,stimLvl,response,rt,precedingITI,trialNumber,block,subject,age,gender,manBadOnset,manBadRespons,onset_phase,happy,emotion
263,110.0,1,0.6418269999994664,0.6559538192331129,0,0.0,1003,24,female,False,False,expiration,True,3
264,95.0,0,0.7340729999996256,1.042267347418809,1,0.0,1003,24,female,False,False,expiration,False,0
265,105.0,1,0.7128240000001824,1.0655782272326857,2,0.0,1003,24,female,False,False,expiration,True,2
266,110.0,0,0.7091483999993216,1.174222596345298,3,0.0,1003,24,female,False,False,inspiration,False,3
267,105.0,1,0.7582364000008965,0.668721146237272,4,0.0,1003,24,female,False,False,expiration,True,2
268,100.0,0,0.5354059999990568,1.794915042148164,5,0.0,1003,24,female,False,False,expiration,False,1
269,95.0,0,1.1190987000009045,0.8783415348930173,6,0.0,1003,24,female,False,False,expiration,False,0
270,100.0,1,0.6042617999992217,1.7616285198856458,7,0.0,1003,24,female,False,False,expiration,True,1
271,110.0,1,0.8580077000005986,1.4728490016497071,8,0.0,1003,24,female,False,False,expiration,True,3
273,105.0,1,0.6964805999996315,1.443886156141819,10,0.0,1003,24,female,False,False,inspiration,True,2
274,110.0,1,0.8298930000000837,1.7040046362947323,11,0.0,1003,24,female,False,False,expiration,True,3
275,105.0,1,0.6983502000002773,1.3570603454873895,12,0.0,1003,24,female,False,False,inspiration,True,2
276,95.0,1,1.4957685000008496,1.8530281741872543,13,0.0,1003,24,female,False,False,inspiration,True,0
277,100.0,0,1.0365617999996175,1.345415950942271,14,0.0,1003,24,female,False,False,inspiration,False,1
278,95.0,0,1.4380055999990873,0.3083821753028504,15,0.0,1003,24,female,False,False,expiration,False,0
279,110.0,1,0.6874160000006668,1.6864079476096998,16,0.0,1003,24,female,False,False,expiration,True,3
280,95.0,0,0.7158227000018087,1.2563907602586184,17,0.0,1003,24,female,False,False,inspiration,False,0
281,105.0,0,0.9819332999995822,0.7729080930128601,18,0.0,1003,24,female,False,False,expiration,False,2
282,105.0,0,1.4539641999999733,0.6996074233282576,19,0.0,1003,24,female,False,False,inspiration,False,2
283,100.0,1,1.9114683000007064,1.0423511677607908,20,0.0,1003,24,female,False,False,expiration,True,1
284,100.0,0,1.3774952000003395,0.5725877941331661,21,0.0,1003,24,female,False,False,expiration,False,1
285,95.0,0,0.6972952999985864,1.3349745320307258,22,0.0,1003,24,female,False,False,expiration,False,0
287,105.0,0,0.7048180000001594,0.6750160193869179,24,0.0,1003,24,female,False,False,expiration,False,2
288,95.0,0,0.5382589999990159,0.3892140517358845,25,0.0,1003,24,female,False,False,inspiration,False,0
289,110.0,0,1.444557699998768,1.0607666701466618,26,0.0,1003,24,female,False,False,expiration,False,3
290,110.0,0,1.0633440000001428,1.9630811327958888,27,0.0,1003,24,female,False,False,expiration,False,3
291,100.0,0,0.6350886000000173,1.5483892501439327,28,0.0,1003,24,female,False,False,expiration,False,1
292,95.0,0,0.7862425000002986,1.4597559222561374,29,0.0,1003,24,female,False,False,inspiration,False,0
293,100.0,1,1.3770136000002822,1.3279684775356495,30,0.0,1003,24,female,False,False,expiration,True,1
294,105.0,0,1.3934205000005022,1.4938093042960718,31,0.0,1003,24,female,False,False,expiration,False,2
295,95.0,0,0.8090192999989085,1.4714350728909302,32,0.0,1003,24,female,False,False,expiration,False,0
296,110.0,1,0.8555815999989136,0.3953098858460712,33,0.0,1003,24,female,False,False,expiration,True,3
297,105.0,1,0.6507204999998066,1.4697626732475313,34,0.0,1003,24,female,False,False,expiration,True,2
299,95.0,0,0.6894606999994721,0.4277868899528175,36,0.0,1003,24,female,False,False,expiration,False,0
300,105.0,0,0.84687379999923,1.7615918481538508,37,0.0,1003,24,female,False,False,inspiration,False,2
302,100.0,0,0.6670778999996401,1.0059510252688204,39,0.0,1003,24,female,False,False,expiration,False,1
303,105.0,0,0.6892819000004238,1.309707804743412,40,0.0,1003,24,female,False,False,inspiration,False,2
304,110.0,0,0.7202634000004764,0.7822173522766773,41,0.0,1003,24,female,False,False,expiration,False,3
305,100.0,0,0.932655500000692,1.6168451373579331,42,0.0,1003,24,female,False,False,inspiration,False,1
306,95.0,0,0.7290979999997944,1.7439820444433098,43,0.0,1003,24,female,False,False,inspiration,False,0
307,95.0,0,0.6928539999989879,0.3891316494041357,44,0.0,1003,24,female,False,False,expiration,False,0
308,100.0,0,0.7989136999985931,1.3826939152512066,45,0.0,1003,24,female,False,False,inspiration,False,1
309,110.0,0,0.7490476999992097,1.824299159259094,46,0.0,1003,24,female,False,False,expiration,False,3
310,105.0,0,0.7924846999994771,0.975943566914686,47,0.0,1003,24,female,False,False,expiration,False,2
311,95.0,0,1.0698544999995647,1.8417970515562527,48,0.0,1003,24,female,False,False,inspiration,False,0
312,110.0,1,0.7516363000013371,1.0472142408025142,49,0.0,1003,24,female,False,False,expiration,True,3
313,105.0,1,0.8067133000004105,1.4755802178311899,50,0.0,1003,24,female,False,False,inspiration,True,2
314,105.0,1,0.6464580000010756,0.7078016113660911,51,0.0,1003,24,female,False,False,inspiration,True,2
315,95.0,0,1.043532800000321,1.4772528686095785,52,0.0,1003,24,female,False,False,expiration,False,0
316,100.0,0,0.6549795999999333,1.83884223984782,53,0.0,1003,24,female,False,False,expiration,False,1
317,110.0,1,0.691362499999741,1.0367894481598978,54,0.0,1003,24,female,False,False,inspiration,True,3
318,100.0,1,0.7421506000009686,1.2790088031919185,55,0.0,1003,24,female,False,False,expiration,True,1
319,100.0,0,0.8635875999989366,1.0403964944765232,56,0.0,1003,24,female,False,False,inspiration,False,1
320,100.0,1,0.6789633000007598,1.2259921259455284,57,0.0,1003,24,female,False,False,expiration,True,1
321,110.0,1,0.6554022999989684,0.3687767233396159,58,0.0,1003,24,female,False,False,inspiration,True,3
322,105.0,1,0.7916867999992974,0.8681426227584292,59,0.0,1003,24,female,False,False,expiration,True,2
323,95.0,1,0.8835135000008449,1.7060111297660658,60,0.0,1003,24,female,False,False,expiration,True,0
324,95.0,0,0.8946030000006431,1.0934679658271622,61,0.0,1003,24,female,False,False,inspiration,False,0
325,105.0,1,0.9173723000003521,1.3186097635440606,62,0.0,1003,24,female,False,False,expiration,True,2
326,110.0,1,0.7487499999988358,0.6320042713657149,63,0.0,1003,24,female,False,False,inspiration,True,3
327,110.0,1,0.7121761999987939,1.798895615025242,64,0.0,1003,24,female,False,False,expiration,True,3
328,95.0,1,0.6606090999994194,1.1222954385929098,65,0.0,1003,24,female,False,False,expiration,True,0
329,110.0,1,0.6540010000007896,0.6417035992414054,66,0.0,1003,24,female,False,False,expiration,True,3
330,100.0,1,1.0335770000001503,0.3755201735875997,67,0.0,1003,24,female,False,False,inspiration,True,1
331,105.0,1,0.7517994000008912,0.8967273806388552,68,0.0,1003,24,female,False,False,expiration,True,2
332,100.0,1,0.937859199999366,1.7436921813297432,69,0.0,1003,24,female,False,False,expiration,True,1
333,95.0,0,1.0629993000002291,1.6375230974787338,70,0.0,1003,24,female,False,False,inspiration,False,0
334,105.0,0,0.6690077999992354,0.6105640909368735,71,0.0,1003,24,female,False,False,expiration,False,2
335,100.0,1,0.6407989999988786,0.34831782254309324,72,0.0,1003,24,female,False,False,inspiration,True,1
337,95.0,0,1.0480147999987819,1.7059069084429148,74,0.0,1003,24,female,False,False,expiration,False,0
338,110.0,1,0.7119065999995655,1.4569126664572185,75,0.0,1003,24,female,False,False,expiration,True,3
339,105.0,1,0.7218345999990561,1.5600606474258607,76,0.0,1003,24,female,False,False,expiration,True,2
340,110.0,1,0.6356293999997433,0.7408464611646639,77,0.0,1003,24,female,False,False,expiration,True,3
341,95.0,1,0.7866541000003053,1.4402535647803718,78,0.0,1003,24,female,False,False,expiration,True,0
342,100.0,0,0.91942729999937,1.5270880975633403,79,0.0,1003,24,female,False,False,inspiration,False,1
423,110.0,1,0.7376354999996693,1.3987781421606678,0,1.0,1003,24,female,False,False,expiration,True,3
424,95.0,0,0.6300339999997959,0.9264143900411594,1,1.0,1003,24,female,False,False,inspiration,False,0
425,105.0,0,0.5437846000004356,0.4144315137416335,2,1.0,1003,24,female,False,False,expiration,False,2
427,105.0,0,0.5922859000002063,1.8524516953155727,4,1.0,1003,24,female,False,False,inspiration,False,2
428,100.0,1,0.6180400999983249,1.5276160530933405,5,1.0,1003,24,female,False,False,expiration,True,1
441,105.0,0,0.7228230000000622,1.290831090434805,18,1.0,1003,24,female,False,False,inspiration,False,2
442,105.0,0,0.4585795999992115,1.0377170443789014,19,1.0,1003,24,female,False,False,expiration,False,2
443,100.0,0,0.6377603000000818,1.015850279796211,20,1.0,1003,24,female,False,False,inspiration,False,1
444,100.0,0,0.6273538000004919,0.722093187612866,21,1.0,1003,24,female,False,False,expiration,False,1
445,95.0,0,0.430483699999968,1.3541573673310812,22,1.0,1003,24,female,False,False,inspiration,False,0
446,110.0,1,0.9175226999996084,1.5835518881841282,23,1.0,1003,24,female,False,False,expiration,True,3
447,105.0,1,0.6869983999986289,0.5366966870482173,24,1.0,1003,24,female,False,False,inspiration,True,2
448,95.0,0,0.9259884000002784,0.4569437671949458,25,1.0,1003,24,female,False,False,expiration,False,0
449,110.0,1,0.7573666000007506,0.6733449099956456,26,1.0,1003,24,female,False,False,inspiration,True,3
450,110.0,1,0.6758922000008171,1.5865802237057791,27,1.0,1003,24,female,False,False,expiration,True,3
451,100.0,1,1.0305542999994939,0.3762277277437888,28,1.0,1003,24,female,False,False,inspiration,True,1
452,95.0,0,0.6915498999987904,1.6142775698351193,29,1.0,1003,24,female,False,False,expiration,False,0
453,100.0,0,0.7551277000002301,0.9045716057125625,30,1.0,1003,24,female,False,False,expiration,False,1
454,105.0,0,0.8881657999991148,0.9791358516124502,31,1.0,1003,24,female,False,False,inspiration,False,2
455,95.0,0,0.8313115000000835,1.4306053729244703,32,1.0,1003,24,female,False,False,expiration,False,0
456,110.0,1,0.7752902000011089,0.3709548922883733,33,1.0,1003,24,female,False,False,inspiration,True,3
457,105.0,1,0.847710799998822,1.4576809834276083,34,1.0,1003,24,female,False,False,expiration,True,2
458,110.0,1,0.6612543999999616,0.5364887298454641,35,1.0,1003,24,female,False,False,expiration,True,3
459,95.0,1,0.7581916000017372,1.066615901661164,36,1.0,1003,24,female,False,False,inspiration,True,0
460,105.0,1,0.9733773999996628,1.930422630591312,37,1.0,1003,24,female,False,False,expiration,True,2
461,100.0,0,0.6163639999995212,1.0461733987207271,38,1.0,1003,24,female,False,False,expiration,False,1
462,100.0,1,0.6411956000010832,1.2499392618318637,39,1.0,1003,24,female,False,False,expiration,True,1
463,105.0,0,0.6871931000005134,1.087973977907548,40,1.0,1003,24,female,False,False,inspiration,False,2
464,110.0,1,0.8622795999999653,1.89808667290726,41,1.0,1003,24,female,False,False,expiration,True,3
465,100.0,0,0.5901680000006309,1.906589215020194,42,1.0,1003,24,female,False,False,expiration,False,1
466,95.0,1,1.1685701999995215,0.3505845133689493,43,1.0,1003,24,female,False,False,expiration,True,0
467,95.0,0,0.7208798999999999,1.4183628285539551,44,1.0,1003,24,female,False,False,expiration,False,0
468,100.0,0,0.8412432000004628,0.8729708558399998,45,1.0,1003,24,female,False,False,inspiration,False,1
469,110.0,1,0.6680438999992475,0.871132548047195,46,1.0,1003,24,female,False,False,expiration,True,3
470,105.0,0,1.1374719999985246,0.7188199755293107,47,1.0,1003,24,female,False,False,expiration,False,2
471,95.0,0,0.8788167000002431,1.3581877906945723,48,1.0,1003,24,female,False,False,expiration,False,0
472,110.0,1,0.8335760000009032,0.6233121820044596,49,1.0,1003,24,female,False,False,inspiration,True,3
474,105.0,1,0.6307852999998431,1.6798492644344618,51,1.0,1003,24,female,False,False,expiration,True,2
475,95.0,0,0.7671811999989586,1.3173440438783388,52,1.0,1003,24,female,False,False,expiration,False,0
476,100.0,0,0.8532998999999108,1.5994744038062414,53,1.0,1003,24,female,False,False,inspiration,False,1
477,110.0,1,0.6677266000006057,1.2886390119974058,54,1.0,1003,24,female,False,False,expiration,True,3
478,100.0,0,0.8281120000010559,1.1279348709493089,55,1.0,1003,24,female,False,False,expiration,False,1
479,100.0,0,0.8652620000011666,1.7023494300041944,56,1.0,1003,24,female,False,False,inspiration,False,1
480,100.0,0,0.8263521999997465,1.3589720129024818,57,1.0,1003,24,female,False,False,expiration,False,1
482,105.0,1,1.8118605999989088,1.7299325093556377,59,1.0,1003,24,female,False,False,inspiration,True,2
483,95.0,0,0.6407120000003488,1.4384190307743363,60,1.0,1003,24,female,False,False,inspiration,False,0
484,95.0,0,0.7022548000004463,1.8019071370433883,61,1.0,1003,24,female,False,False,expiration,False,0
485,105.0,1,0.9058896000005916,1.2080605102089594,62,1.0,1003,24,female,False,False,expiration,True,2
486,110.0,0,0.8306251999983942,1.7973666906637529,63,1.0,1003,24,female,False,False,expiration,False,3
487,110.0,1,0.9206914999995206,1.0927231621272608,64,1.0,1003,24,female,False,False,expiration,True,3
488,95.0,0,1.0394431999993683,1.6936298979589668,65,1.0,1003,24,female,False,False,expiration,False,0
489,110.0,1,0.6555183999989822,0.3929329942660697,66,1.0,1003,24,female,False,False,inspiration,True,3
490,100.0,1,1.1649856000003638,1.171005607422387,67,1.0,1003,24,female,False,False,expiration,True,1
491,105.0,1,0.7283663999987766,0.836410047317734,68,1.0,1003,24,female,False,False,expiration,True,2
492,100.0,1,0.885841100000107,1.856724379099372,69,1.0,1003,24,female,False,False,inspiration,True,1
493,95.0,1,0.7898628000002645,0.8972117511097766,70,1.0,1003,24,female,False,False,expiration,True,0
494,105.0,1,0.8056395999992674,1.2289663867846534,71,1.0,1003,24,female,False,False,inspiration,True,2
495,100.0,1,0.7824539000012009,1.81267064632776,72,1.0,1003,24,female,False,False,expiration,True,1
496,105.0,1,1.1698271999994176,1.6594017126307403,73,1.0,1003,24,female,False,False,expiration,True,2
497,95.0,0,0.8492177000007359,1.2443773812423282,74,1.0,1003,24,female,False,False,inspiration,False,0
498,110.0,1,0.9089987999996084,1.3977146980416435,75,1.0,1003,24,female,False,False,expiration,True,3
499,105.0,1,1.6757507999991503,0.4506478237202624,76,1.0,1003,24,female,False,False,inspiration,True,2
500,110.0,1,0.7192054000006465,1.825762303707744,77,1.0,1003,24,female,False,False,inspiration,True,3
501,95.0,0,0.7296107000001939,0.7166777303686542,78,1.0,1003,24,female,False,False,expiration,False,0
502,100.0,0,0.9980431999993016,1.944060718003952,79,1.0,1003,24,female,False,False,expiration,False,1
583,110.0,1,1.079504299999826,0.4478655408943838,0,2.0,1003,24,female,False,False,expiration,True,3
584,95.0,0,0.5149055999991106,0.4517830271979538,1,2.0,1003,24,female,False,False,inspiration,False,0
585,105.0,1,0.693964899999628,1.1909134173097482,2,2.0,1003,24,female,False,False,expiration,True,2
586,110.0,1,0.8173667999999452,0.8190781399972059,3,2.0,1003,24,female,False,False,inspiration,True,3
587,105.0,1,1.1084764999995969,1.9037158845359536,4,2.0,1003,24,female,False,False,inspiration,True,2
588,100.0,1,1.1571949999997742,0.4948099400553592,5,2.0,1003,24,female,False,False,expiration,True,1
589,95.0,0,0.8486666999997396,0.9793813326385248,6,2.0,1003,24,female,False,False,expiration,False,0
590,100.0,0,1.2644639999998617,1.8703181730196001,7,2.0,1003,24,female,False,False,inspiration,False,1
591,110.0,1,0.8232953000006091,1.9346599497895527,8,2.0,1003,24,female,False,False,inspiration,True,3
594,110.0,0,1.0266357000000426,1.3018706481654978,11,2.0,1003,24,female,False,False,expiration,False,3
595,105.0,0,0.7440688999995473,1.9275595854555687,12,2.0,1003,24,female,False,False,inspiration,False,2
596,95.0,0,0.6341370999998617,0.3121145773184064,13,2.0,1003,24,female,False,False,expiration,False,0
597,100.0,0,0.9278892000002088,1.0211000060760191,14,2.0,1003,24,female,False,False,inspiration,False,1
598,95.0,0,0.7160001000011107,0.7058334634538991,15,2.0,1003,24,female,False,False,expiration,False,0
600,95.0,0,0.8947512000013376,0.7519134705751467,17,2.0,1003,24,female,False,False,expiration,False,0
601,105.0,1,0.6185454999995272,0.9709640267120974,18,2.0,1003,24,female,False,False,expiration,True,2
602,105.0,1,1.0225653999987117,1.9726655836348348,19,2.0,1003,24,female,False,False,inspiration,True,2
603,100.0,1,0.7416148000011162,0.4048757686596495,20,2.0,1003,24,female,False,False,expiration,True,1
605,95.0,0,0.6578181999993831,1.072194760248909,22,2.0,1003,24,female,False,False,expiration,False,0
606,110.0,0,0.6804852000004757,0.3994311981968635,23,2.0,1003,24,female,False,False,inspiration,False,3
607,105.0,0,0.8769114999995509,1.5553730931154546,24,2.0,1003,24,female,False,False,inspiration,False,2
608,95.0,0,0.8593265000017709,1.0196569071714028,25,2.0,1003,24,female,False,False,expiration,False,0
609,110.0,1,0.8853850000014063,1.6213821375252242,26,2.0,1003,24,female,False,False,expiration,True,3
610,110.0,1,0.9895426999992196,1.3968988979172752,27,2.0,1003,24,female,False,False,inspiration,True,3
611,100.0,1,1.081359900001189,1.0717498107371422,28,2.0,1003,24,female,False,False,expiration,True,1
612,95.0,0,0.6754006999999547,1.2942522142264772,29,2.0,1003,24,female,False,False,inspiration,False,0
613,100.0,0,0.6405217999999877,1.113210738529297,30,2.0,1003,24,female,False,False,expiration,False,1
614,105.0,0,0.9996064999995724,1.7340987161787191,31,2.0,1003,24,female,False,False,inspiration,False,2
615,95.0,0,0.6380122999999003,1.6483288953227022,32,2.0,1003,24,female,False,False,expiration,False,0
616,110.0,0,0.6537399999997433,1.7039342230752803,33,2.0,1003,24,female,False,False,expiration,False,3
617,105.0,0,0.4675542999993922,0.4546511711560265,34,2.0,1003,24,female,False,False,expiration,False,2
618,110.0,0,0.4632483999994293,0.6473625595109341,35,2.0,1003,24,female,False,False,inspiration,False,3
619,95.0,0,0.4002115000002959,0.5015655553174349,36,2.0,1003,24,female,False,False,expiration,False,0
620,105.0,0,0.6473019999993994,1.9110507770759784,37,2.0,1003,24,female,False,False,inspiration,False,2
621,100.0,0,0.41688819999944826,0.9866212844467632,38,2.0,1003,24,female,False,False,expiration,False,1
622,100.0,0,0.637798699999621,0.3397326205055256,39,2.0,1003,24,female,False,False,inspiration,False,1
623,105.0,0,0.9898427999996784,0.7874243239270278,40,2.0,1003,24,female,False,False,expiration,False,2
624,110.0,0,0.7616073999997752,0.6576668572682962,41,2.0,1003,24,female,False,False,expiration,False,3
625,100.0,0,0.7703216999998403,0.5393705138234219,42,2.0,1003,24,female,False,False,expiration,False,1
626,95.0,0,0.7277141999984451,0.5251433599676747,43,2.0,1003,24,female,False,False,expiration,False,0
627,95.0,0,0.7884170999986964,0.4344789323662625,44,2.0,1003,24,female,False,False,inspiration,False,0
628,100.0,0,0.8208525999998528,1.4218202417554282,45,2.0,1003,24,female,False,False,expiration,False,1
629,110.0,1,0.7512478999997256,1.2260358202972907,46,2.0,1003,24,female,False,False,expiration,True,3
630,105.0,0,2.4130108999997897,1.3639935504391998,47,2.0,1003,24,female,False,False,inspiration,False,2
631,95.0,1,1.2824713999998494,0.4828625538017762,48,2.0,1003,24,female,False,False,inspiration,True,0
632,110.0,1,0.6777473000001919,0.6584875925219753,49,2.0,1003,24,female,False,False,expiration,True,3
633,105.0,1,1.0322624999989785,0.8629211925739213,50,2.0,1003,24,female,False,False,inspiration,True,2
634,105.0,1,1.5304255999999439,1.8382081450112242,51,2.0,1003,24,female,False,False,inspiration,True,2
635,95.0,0,1.7205387000012706,1.091576118110723,52,2.0,1003,24,female,False,False,inspiration,False,0
636,100.0,0,0.7082853000010799,1.6823246320448288,53,2.0,1003,24,female,False,False,inspiration,False,1
638,100.0,0,0.9532328999994206,1.168590438943638,55,2.0,1003,24,female,False,False,expiration,False,1
639,100.0,0,2.0209358000010984,0.5605391816361169,56,2.0,1003,24,female,False,False,expiration,False,1
640,100.0,0,0.9440113000000564,0.8543269383092047,57,2.0,1003,24,female,False,False,expiration,False,1
641,110.0,0,0.9314687000005506,1.2902659130316223,58,2.0,1003,24,female,False,False,expiration,False,3
642,105.0,0,0.6871730999991996,0.5212100259000858,59,2.0,1003,24,female,False,False,expiration,False,2
643,95.0,0,0.5530740999984118,0.9534559773151536,60,2.0,1003,24,female,False,False,expiration,False,0
644,95.0,0,0.6500326000004861,1.7263064941188428,61,2.0,1003,24,female,False,False,inspiration,False,0
645,105.0,0,0.4858469000009791,0.4982124539952335,62,2.0,1003,24,female,False,False,expiration,False,2
647,110.0,1,0.4648837999993702,0.9562314139559444,64,2.0,1003,24,female,False,False,expiration,True,3
648,95.0,0,0.622333899998921,1.32989529706943,65,2.0,1003,24,female,False,False,expiration,False,0
649,110.0,1,0.8050263000004634,0.3546043158333211,66,2.0,1003,24,female,False,False,expiration,True,3
650,100.0,0,0.9024852999991708,1.5199831768531418,67,2.0,1003,24,female,False,False,expiration,False,1
651,105.0,0,0.682551500000045,1.3800939744493683,68,2.0,1003,24,female,False,False,expiration,False,2
652,100.0,0,0.6627403000002232,1.744422147703692,69,2.0,1003,24,female,False,False,inspiration,False,1
654,105.0,0,0.5608548000000155,1.3660730409183424,71,2.0,1003,24,female,False,False,expiration,False,2
655,100.0,1,1.0138955999991597,0.930980282866821,72,2.0,1003,24,female,False,False,inspiration,True,1
656,105.0,0,1.5563653000008344,1.9075851013700773,73,2.0,1003,24,female,False,False,inspiration,False,2
657,95.0,0,0.6508418999983405,0.9435689659902148,74,2.0,1003,24,female,False,False,expiration,False,0
658,110.0,1,1.0148484999990617,1.7215774168814957,75,2.0,1003,24,female,False,False,expiration,True,3
659,105.0,0,0.7166147999996608,0.30002812154825625,76,2.0,1003,24,female,False,False,inspiration,False,2
660,110.0,1,0.7466792000013811,1.1160679898102486,77,2.0,1003,24,female,False,False,expiration,True,3
661,95.0,0,0.9127765000012004,1.1730161218814736,78,2.0,1003,24,female,False,False,expiration,False,0
662,100.0,0,0.6491792999986501,0.9393385149353864,79,2.0,1003,24,female,False,False,inspiration,False,1
744,95.0,0,0.714600999999675,1.4334072126091275,1,3.0,1003,24,female,False,False,expiration,False,0
745,105.0,0,0.8490029000004142,0.8392879223377501,2,3.0,1003,24,female,False,False,inspiration,False,2
746,110.0,1,0.6930828999993537,0.5231097189280216,3,3.0,1003,24,female,False,False,expiration,True,3
747,105.0,1,1.0994766000003438,1.7541396732790815,4,3.0,1003,24,female,False,False,expiration,True,2
748,100.0,0,0.7572755000001052,1.2959484871246711,5,3.0,1003,24,female,False,False,expiration,False,1
749,95.0,0,0.7670264999997016,1.1903242513186845,6,3.0,1003,24,female,False,False,inspiration,False,0
750,100.0,1,1.1124973999994836,1.9448538561994064,7,3.0,1003,24,female,False,False,inspiration,True,1
751,110.0,1,0.5852164999996603,0.9846414681856124,8,3.0,1003,24,female,False,False,inspiration,True,3
752,100.0,0,0.6016256000002613,1.1667795677949284,9,3.0,1003,24,female,False,False,expiration,False,1
753,105.0,0,0.6450415999988763,0.4315914291402457,10,3.0,1003,24,female,False,False,expiration,False,2
754,110.0,1,0.6693749000005482,0.9614774421067632,11,3.0,1003,24,female,False,False,expiration,True,3
755,105.0,0,0.7238271000005625,1.6719889584343008,12,3.0,1003,24,female,False,False,expiration,False,2
756,95.0,0,0.8646331999989343,1.938814721088298,13,3.0,1003,24,female,False,False,expiration,False,0
757,100.0,0,0.8440227000010054,0.5348311495261888,14,3.0,1003,24,female,False,False,expiration,False,1
758,95.0,0,0.7827794000004359,1.8616315162477235,15,3.0,1003,24,female,False,False,expiration,False,0
759,110.0,1,0.7788691999994626,1.3337197453152192,16,3.0,1003,24,female,False,False,inspiration,True,3
760,95.0,0,0.5716021000007458,1.2851880602140238,17,3.0,1003,24,female,False,False,expiration,False,0
761,105.0,1,0.6770323000000644,0.9174372488021032,18,3.0,1003,24,female,False,False,inspiration,True,2
763,100.0,0,0.9769418999985646,0.5365822464883501,20,3.0,1003,24,female,False,False,expiration,False,1
764,100.0,0,0.8144227000011597,1.1598176548142014,21,3.0,1003,24,female,False,False,inspiration,False,1
766,110.0,1,0.6297371000000567,1.1188036898035454,23,3.0,1003,24,female,False,False,expiration,True,3
767,105.0,1,0.6912307000002329,1.6007585585444024,24,3.0,1003,24,female,False,False,inspiration,True,2
768,95.0,0,0.6033026000004611,1.2950533574400866,25,3.0,1003,24,female,False,False,inspiration,False,0
769,110.0,1,0.7354433000000427,0.5844315505724101,26,3.0,1003,24,female,False,False,inspiration,True,3
770,110.0,1,0.9790806000000885,1.0649193437357003,27,3.0,1003,24,female,False,False,expiration,True,3
771,100.0,0,0.6681571000008262,0.8960616100140826,28,3.0,1003,24,female,False,False,expiration,False,1
772,95.0,0,0.5968868999989354,0.6511352886641744,29,3.0,1003,24,female,False,False,expiration,False,0
773,100.0,0,0.7216287000010198,0.8086568434936714,30,3.0,1003,24,female,False,False,expiration,False,1
774,105.0,0,0.7660455999994156,1.5606061669038656,31,3.0,1003,24,female,False,False,inspiration,False,2
775,95.0,0,0.8134285999985877,1.2351880725416966,32,3.0,1003,24,female,False,False,expiration,False,0
776,110.0,1,1.0315121000003271,0.8089794623248974,33,3.0,1003,24,female,False,False,expiration,True,3
777,105.0,1,0.8559805000004417,0.4620301490284131,34,3.0,1003,24,female,False,False,expiration,True,2
779,95.0,0,1.406259699999282,1.1011725198642623,36,3.0,1003,24,female,False,False,expiration,False,0
781,100.0,1,0.5506936000001588,1.744705334822261,38,3.0,1003,24,female,False,False,inspiration,True,1
782,100.0,0,0.7487637999984145,1.2761833567522136,39,3.0,1003,24,female,False,False,expiration,False,1
783,105.0,1,0.8831938999992417,1.2501587280645372,40,3.0,1003,24,female,False,False,inspiration,True,2
784,110.0,0,0.7690574999996898,1.667713926651576,41,3.0,1003,24,female,False,False,expiration,False,3
785,100.0,0,0.9874024000000644,1.4779715938582847,42,3.0,1003,24,female,False,False,expiration,False,1
786,95.0,0,0.7044870000008814,1.4258112750912415,43,3.0,1003,24,female,False,False,expiration,False,0
787,95.0,0,0.7035319000005984,0.3257209449628908,44,3.0,1003,24,female,False,False,expiration,False,0
788,100.0,1,0.5140824999998586,0.3992698462486179,45,3.0,1003,24,female,False,False,inspiration,True,1
789,110.0,0,1.6453543999996327,1.6211593356905658,46,3.0,1003,24,female,False,False,expiration,False,3
790,105.0,1,0.8107763000007253,0.4390914324563641,47,3.0,1003,24,female,False,False,expiration,True,2
791,95.0,1,0.8685566000003746,1.6571008787130128,48,3.0,1003,24,female,False,False,inspiration,True,0
792,110.0,1,0.6849583999992319,0.9375277225305724,49,3.0,1003,24,female,False,False,expiration,True,3
794,105.0,1,0.9774098999987472,1.4489114833607122,51,3.0,1003,24,female,False,False,inspiration,True,2
795,95.0,0,1.0505456000009872,1.2537160835613188,52,3.0,1003,24,female,False,False,expiration,False,0
796,100.0,1,0.6636198999985936,1.4583620242574291,53,3.0,1003,24,female,False,False,expiration,True,1
797,110.0,1,0.7573685000006662,1.5608015613024475,54,3.0,1003,24,female,False,False,inspiration,True,3
798,100.0,1,0.9228640999990604,1.5509016652631218,55,3.0,1003,24,female,False,False,inspiration,True,1
799,100.0,1,0.811855399999331,0.5535479061103303,56,3.0,1003,24,female,False,False,expiration,True,1
800,100.0,1,1.7340007999991942,1.9269495531374183,57,3.0,1003,24,female,False,False,expiration,True,1
801,110.0,1,0.7514268000013544,1.1684092697409578,58,3.0,1003,24,female,False,False,inspiration,True,3
802,105.0,1,0.9091423999998368,0.3429305479504032,59,3.0,1003,24,female,False,False,expiration,True,2
803,95.0,1,0.9455884999988484,1.5617589757970485,60,3.0,1003,24,female,False,False,expiration,True,0
804,95.0,0,1.4436854999985371,0.986419229753247,61,3.0,1003,24,female,False,False,inspiration,False,0
805,105.0,1,0.9418941999992968,1.4994986547118665,62,3.0,1003,24,female,False,False,inspiration,True,2
806,110.0,0,1.432550600000468,1.316814591689896,63,3.0,1003,24,female,False,False,inspiration,False,3
807,110.0,1,0.8612744000001841,0.7354188055482893,64,3.0,1003,24,female,False,False,expiration,True,3
808,95.0,0,1.2773907999999208,1.311799864459136,65,3.0,1003,24,female,False,False,expiration,False,0
809,110.0,1,0.685124800000267,0.5412450116028872,66,3.0,1003,24,female,False,False,inspiration,True,3
810,100.0,1,0.901556900000287,0.9430138139680848,67,3.0,1003,24,female,False,False,expiration,True,1
811,105.0,1,0.983244699998977,0.9652837941187422,68,3.0,1003,24,female,False,False,expiration,True,2
812,100.0,0,0.8399919000003138,1.7828193877600969,69,3.0,1003,24,female,False,False,inspiration,False,1
813,95.0,1,1.1574357999998028,1.1721348162308545,70,3.0,1003,24,female,False,False,inspiration,True,0
814,105.0,1,0.7411143000008451,1.1566172094781195,71,3.0,1003,24,female,False,False,expiration,True,2
815,100.0,1,0.5985194000004412,0.5599764164978177,72,3.0,1003,24,female,False,False,inspiration,True,1
816,105.0,1,0.6279329999997572,0.952655089721701,73,3.0,1003,24,female,False,False,expiration,True,2
817,95.0,1,0.997803099999146,1.9434011539360088,74,3.0,1003,24,female,False,False,expiration,True,0
818,110.0,1,0.5695367999996961,0.9482264217807356,75,3.0,1003,24,female,False,False,inspiration,True,3
819,105.0,1,0.6406208000007609,1.0661505248205527,76,3.0,1003,24,female,False,False,expiration,True,2
820,110.0,1,0.5666799999999057,0.3556590249501487,77,3.0,1003,24,female,False,False,inspiration,True,3
821,95.0,1,1.3117458999986409,1.2721995681133844,78,3.0,1003,24,female,False,False,expiration,True,0
822,100.0,1,1.3401783000008436,1.6964731852342492,79,3.0,1003,24,female,False,False,expiration,True,1
1085,149.0,1,0.6217956000000413,0.721548469482016,0,0.0,179,22,female,False,False,inspiration,True,3
1086,113.0,0,0.7528892000009364,1.4846802651532094,1,0.0,179,22,female,False,False,expiration,False,0
1087,137.0,1,0.6256573000027856,0.6955673017813582,2,0.0,179,22,female,False,False,expiration,True,2
1088,149.0,1,0.6643650000005437,0.7854047856578451,3,0.0,179,22,female,False,False,expiration,True,3
1089,137.0,1,0.41709439999976894,1.5490647476160504,4,0.0,179,22,female,False,False,expiration,True,2
1090,125.0,0,0.7028782999987016,1.8860049142542108,5,0.0,179,22,female,False,False,expiration,False,1
1091,113.0,0,0.5185873000009451,0.3671983190284879,6,0.0,179,22,female,False,False,inspiration,False,0
1092,125.0,1,0.7455637999992177,1.611105921575554,7,0.0,179,22,female,False,False,inspiration,True,1
1093,149.0,1,0.3835060000019439,1.6545466648114109,8,0.0,179,22,female,False,False,inspiration,True,3
1094,125.0,1,0.3333345999999437,0.5407637366661017,9,0.0,179,22,female,False,False,expiration,True,1
1095,137.0,1,0.3335045999992872,0.9889669882516784,10,0.0,179,22,female,False,False,inspiration,True,2
1096,149.0,1,0.3668187000002945,1.5548714310752094,11,0.0,179,22,female,False,False,inspiration,True,3
1097,137.0,1,0.465995100003056,0.3022704262970893,12,0.0,179,22,female,False,False,expiration,True,2
1098,113.0,1,0.4624478000005183,1.833995757037036,13,0.0,179,22,female,False,False,expiration,True,0
1099,125.0,1,1.0258579000001191,1.335831128627246,14,0.0,179,22,female,False,False,expiration,True,1
1101,149.0,0,0.6939982000003511,0.6748912160239275,16,0.0,179,22,female,False,False,inspiration,False,3
1102,113.0,0,0.7783777000004193,1.562398716867346,17,0.0,179,22,female,False,False,inspiration,False,0
1103,137.0,0,0.5494699000009861,0.6286292829061368,18,0.0,179,22,female,False,False,expiration,False,2
1104,137.0,0,0.7428663999999117,1.996912785416329,19,0.0,179,22,female,False,False,expiration,False,2
1105,125.0,0,0.6399514000004274,1.1951993542140575,20,0.0,179,22,female,False,False,expiration,False,1
1106,125.0,0,0.5598331000001053,1.2739538579933507,21,0.0,179,22,female,False,False,inspiration,False,1
1107,113.0,0,0.4501001999997243,1.1303426495233904,22,0.0,179,22,female,False,False,inspiration,False,0
1108,149.0,0,0.3836303000025509,1.282284834651355,23,0.0,179,22,female,False,False,inspiration,False,3
1109,137.0,0,0.7302234000017052,0.7287940447861516,24,0.0,179,22,female,False,False,expiration,False,2
1110,113.0,1,0.4997007999991183,1.1830333509804387,25,0.0,179,22,female,False,False,inspiration,True,0
1111,149.0,1,0.3669177000010677,1.683391789443592,26,0.0,179,22,female,False,False,inspiration,True,3
1112,149.0,1,0.2834925999995903,1.385074408604308,27,0.0,179,22,female,False,False,inspiration,True,3
1113,125.0,1,0.23354299999846265,1.3388062299490782,28,0.0,179,22,female,False,False,expiration,True,1
1114,113.0,1,0.3002388999993855,1.4631128314288262,29,0.0,179,22,female,False,False,expiration,True,0
1115,125.0,1,0.487670700000308,1.8360839917488256,30,0.0,179,22,female,False,False,expiration,True,1
1116,137.0,1,0.30018289999861736,0.7641933439904934,31,0.0,179,22,female,False,False,inspiration,True,2
1117,113.0,1,0.2667700999991212,0.7001115964749598,32,0.0,179,22,female,False,False,expiration,True,0
1118,149.0,1,0.2503156000020681,1.0801136460972165,33,0.0,179,22,female,False,False,inspiration,True,3
1119,137.0,1,0.233515100000659,1.5793057098125014,34,0.0,179,22,female,False,False,inspiration,True,2
1120,149.0,1,0.30012530000021803,0.33899625408301004,35,0.0,179,22,female,False,False,expiration,True,3
1121,113.0,1,1.2437351999978998,0.7723219209566281,36,0.0,179,22,female,False,False,inspiration,True,0
1122,137.0,1,0.28348949999781325,0.613195874600693,37,0.0,179,22,female,False,False,expiration,True,2
1123,125.0,1,0.31693430000086664,1.7224937387664188,38,0.0,179,22,female,False,False,expiration,True,1
1124,125.0,1,0.6699435000009544,0.8632170834747008,39,0.0,179,22,female,False,False,expiration,True,1
1125,137.0,1,0.28354299999773497,0.8074593208340726,40,0.0,179,22,female,False,False,inspiration,True,2
1127,125.0,1,0.33348969999860856,0.7792680910743195,42,0.0,179,22,female,False,False,expiration,True,1
1128,113.0,1,0.3669558000001416,1.9569490317376328,43,0.0,179,22,female,False,False,expiration,True,0
1129,113.0,1,0.4001974999991944,1.7731014244937682,44,0.0,179,22,female,False,False,expiration,True,0
1130,125.0,1,0.4474503999990702,0.9516268253254672,45,0.0,179,22,female,False,False,inspiration,True,1
1131,149.0,1,0.473955900000874,1.5100200953502934,46,0.0,179,22,female,False,False,inspiration,True,3
1132,137.0,1,0.4932379999991099,1.0413407646781996,47,0.0,179,22,female,False,False,expiration,True,2
1133,113.0,1,0.2334407999987889,0.4021899514525816,48,0.0,179,22,female,False,False,inspiration,True,0
1134,149.0,1,1.6762866999997643,0.4579764992204405,49,0.0,179,22,female,False,False,expiration,True,3
1135,137.0,1,0.3668523999986064,1.8608718006853533,50,0.0,179,22,female,False,False,inspiration,True,2
1136,137.0,1,0.4864756999995734,0.6990419378265439,51,0.0,179,22,female,False,False,expiration,True,2
1137,113.0,1,0.18339329999798792,0.4319997292587423,52,0.0,179,22,female,False,False,inspiration,True,0
1138,125.0,1,0.33351439999751165,1.8004375280898688,53,0.0,179,22,female,False,False,inspiration,True,1
1140,125.0,1,0.3668997999993735,1.8837842590937293,55,0.0,179,22,female,False,False,expiration,True,1
1141,125.0,1,0.4929019999981392,0.3675928745020609,56,0.0,179,22,female,False,False,inspiration,True,1
1142,125.0,1,0.30017450000013923,1.5997832973610981,57,0.0,179,22,female,False,False,inspiration,True,1
1143,149.0,1,0.30015740000089863,0.8259336505674949,58,0.0,179,22,female,False,False,expiration,True,3
1144,137.0,1,0.33348430000114604,1.896243005719377,59,0.0,179,22,female,False,False,expiration,True,2
1146,113.0,1,0.5438227000013285,0.5385886757398499,61,0.0,179,22,female,False,False,expiration,True,0
1147,137.0,1,0.400187499999447,0.3704339990421295,62,0.0,179,22,female,False,False,inspiration,True,2
1148,149.0,1,0.3168364000011934,1.9213801893881104,63,0.0,179,22,female,False,False,inspiration,True,3
1149,149.0,1,0.33351609999954235,0.8247171979802821,64,0.0,179,22,female,False,False,expiration,True,3
1150,113.0,1,0.3333764999988489,1.024480028190958,65,0.0,179,22,female,False,False,expiration,True,0
1151,149.0,1,0.4167895999999017,1.8885541657242333,66,0.0,179,22,female,False,False,expiration,True,3
1152,125.0,1,0.3668645000034303,0.5332526030670335,67,0.0,179,22,female,False,False,inspiration,True,1
1153,137.0,1,0.33351330000004964,0.4963490822054821,68,0.0,179,22,female,False,False,expiration,True,2
1154,125.0,0,0.6573977000007291,1.4959480410696355,69,0.0,179,22,female,False,False,inspiration,False,1
1155,113.0,0,0.5124538999989454,0.8301423312774465,70,0.0,179,22,female,False,False,expiration,False,0
1156,137.0,1,0.4513532999990275,1.1744006391944668,71,0.0,179,22,female,False,False,expiration,True,2
1157,125.0,1,0.7296158999997715,1.5051966892481083,72,0.0,179,22,female,False,False,expiration,True,1
1158,137.0,1,0.6425293000029342,1.9712063910994304,73,0.0,179,22,female,False,False,expiration,True,2
1160,149.0,1,0.538293400000839,0.6221959146821519,75,0.0,179,22,female,False,False,expiration,True,3
1161,137.0,1,0.30017320000115433,0.8007873844682436,76,0.0,179,22,female,False,False,inspiration,True,2
1162,149.0,1,0.4453920000014477,0.8976080323156885,77,0.0,179,22,female,False,False,expiration,True,3
1163,113.0,1,0.3169049999996787,1.3443673799856806,78,0.0,179,22,female,False,False,expiration,True,0
1164,125.0,1,0.31702839999707066,1.3413734082673026,79,0.0,179,22,female,False,False,expiration,True,1
1245,149.0,0,1.019515500000125,0.9214032745587672,0,1.0,179,22,female,False,False,expiration,False,3
1246,113.0,1,0.5262879000001703,1.930844263280774,1,1.0,179,22,female,False,False,expiration,True,0
1247,137.0,1,0.5900366999994731,1.7686863011513854,2,1.0,179,22,female,False,False,expiration,True,2
1248,149.0,1,0.31681120000212104,1.2775374594564894,3,1.0,179,22,female,False,False,inspiration,True,3
1249,137.0,1,0.5925057000022207,0.4383404204989148,4,1.0,179,22,female,False,False,expiration,True,2
1250,125.0,1,0.2835145999997621,0.3760417454246131,5,1.0,179,22,female,False,False,inspiration,True,1
1251,113.0,1,0.2500857000013639,1.49734657279784,6,1.0,179,22,female,False,False,expiration,True,0
1252,125.0,1,0.5360486999998102,0.6472218612933576,7,1.0,179,22,female,False,False,inspiration,True,1
1253,149.0,1,0.552095899998676,0.4466473912544024,8,1.0,179,22,female,False,False,inspiration,True,3
1254,125.0,1,0.4331243000015093,0.5214283748562706,9,1.0,179,22,female,False,False,inspiration,True,1
1255,137.0,1,0.2668234999982815,1.984985217435837,10,1.0,179,22,female,False,False,expiration,True,2
1256,149.0,1,0.3001162000000477,1.2303151885452746,11,1.0,179,22,female,False,False,expiration,True,3
1257,137.0,1,0.3668489999981829,1.5084137919936669,12,1.0,179,22,female,False,False,inspiration,True,2
1258,113.0,1,0.3667892000012216,1.5499518410785764,13,1.0,179,22,female,False,False,inspiration,True,0
1259,125.0,1,0.4305753999979061,0.8846850847539256,14,1.0,179,22,female,False,False,inspiration,True,1
1260,113.0,1,0.4168231000003289,1.059702905051194,15,1.0,179,22,female,False,False,inspiration,True,0
1261,149.0,1,0.4796042000016314,1.3895317412757655,16,1.0,179,22,female,False,False,inspiration,True,3
1263,137.0,1,0.4001405999988492,0.9576189546553016,18,1.0,179,22,female,False,False,expiration,True,2
1264,137.0,0,0.7022495999990497,1.860763628234809,19,1.0,179,22,female,False,False,expiration,False,2
1265,125.0,1,0.4001834000009694,1.1261530358552363,20,1.0,179,22,female,False,False,expiration,True,1
1266,125.0,1,0.4446987000010267,1.042576583003169,21,1.0,179,22,female,False,False,inspiration,True,1
1267,113.0,1,0.3836233000001812,1.7652333704121776,22,1.0,179,22,female,False,False,expiration,True,0
1268,149.0,1,0.5478376999999455,0.4601898092926011,23,1.0,179,22,female,False,False,inspiration,True,3
1269,137.0,1,0.4685755999998946,1.8226120880128909,24,1.0,179,22,female,False,False,inspiration,True,2
1270,113.0,1,0.4693766000018513,1.7370944456915007,25,1.0,179,22,female,False,False,inspiration,True,0
1272,149.0,1,0.4168114999993122,0.5051199172460881,27,1.0,179,22,female,False,False,expiration,True,3
1273,125.0,0,0.7598418000015954,0.9431783746480142,28,1.0,179,22,female,False,False,inspiration,False,1
1274,113.0,0,0.5133037000014156,0.3815279296135111,29,1.0,179,22,female,False,False,expiration,False,0
1275,125.0,1,0.4226603999995859,0.7823840366201469,30,1.0,179,22,female,False,False,inspiration,True,1
1276,137.0,1,0.4001642000002903,1.356916290942674,31,1.0,179,22,female,False,False,inspiration,True,2
1278,149.0,1,0.4819270000007237,0.34186448939123026,33,1.0,179,22,female,False,False,inspiration,True,3
1279,137.0,1,0.3834937000028731,1.5913993660579235,34,1.0,179,22,female,False,False,inspiration,True,2
1280,149.0,1,0.4376587999977346,1.1031432880457857,35,1.0,179,22,female,False,False,expiration,True,3
1281,113.0,1,0.7543336999988242,0.3341965359219737,36,1.0,179,22,female,False,False,inspiration,True,0
1282,137.0,1,0.38351239999974496,1.3748934351280309,37,1.0,179,22,female,False,False,inspiration,True,2
1283,125.0,1,0.4002163000004657,0.7839000669026785,38,1.0,179,22,female,False,False,expiration,True,1
1284,125.0,1,0.4996216999970784,1.6574719791705332,39,1.0,179,22,female,False,False,expiration,True,1
1285,137.0,1,0.4627586999995401,1.5872595275098211,40,1.0,179,22,female,False,False,inspiration,True,2
1286,149.0,1,0.5629306999981054,1.265059568510698,41,1.0,179,22,female,False,False,expiration,True,3
1287,125.0,1,0.4798987000031048,0.36943665342021614,42,1.0,179,22,female,False,False,inspiration,True,1
1288,113.0,1,0.31683930000144755,1.224219934009246,43,1.0,179,22,female,False,False,expiration,True,0
1289,113.0,1,0.3500118999982078,0.6769366316215526,44,1.0,179,22,female,False,False,expiration,True,0
1290,125.0,0,0.6048573999978544,1.1242276304778154,45,1.0,179,22,female,False,False,inspiration,False,1
1291,149.0,1,0.15018879999843193,1.0384719505404365,46,1.0,179,22,female,False,False,expiration,True,3
1292,137.0,1,0.480151299998397,1.4168911559601465,47,1.0,179,22,female,False,False,expiration,True,2
1293,113.0,1,0.3001850000000559,0.5948672599289648,48,1.0,179,22,female,False,False,inspiration,True,0
1294,149.0,1,0.4170076999980665,0.9686576040654996,49,1.0,179,22,female,False,False,expiration,True,3
1295,137.0,1,0.4186781999997038,1.8654304910900807,50,1.0,179,22,female,False,False,expiration,True,2
1296,137.0,0,0.8177300999996078,0.6688851671686613,51,1.0,179,22,female,False,False,inspiration,False,2
1297,113.0,0,0.7958216999977594,1.6998065590635432,52,1.0,179,22,female,False,False,inspiration,False,0
1298,125.0,0,0.6349590999998327,1.877468788245402,53,1.0,179,22,female,False,False,expiration,False,1
1299,149.0,0,0.6639359000000695,1.6808881634760937,54,1.0,179,22,female,False,False,expiration,False,3
1300,125.0,0,0.5725038999989921,1.804778187405104,55,1.0,179,22,female,False,False,expiration,False,1
1301,125.0,0,0.5482511999980488,1.9427419415731173,56,1.0,179,22,female,False,False,expiration,False,1
1302,125.0,0,0.6382866999992984,1.6686974223835511,57,1.0,179,22,female,False,False,expiration,False,1
1303,149.0,1,0.4787641000002623,0.903984547025307,58,1.0,179,22,female,False,False,inspiration,True,3
1304,137.0,1,0.7974708000001556,1.2582335999207928,59,1.0,179,22,female,False,False,expiration,True,2
1305,113.0,1,0.5179588000028161,0.7897869348502877,60,1.0,179,22,female,False,False,expiration,True,0
1307,137.0,0,0.8893674999999348,0.8715868206970734,62,1.0,179,22,female,False,False,inspiration,False,2
1308,149.0,0,0.5940990000017337,0.8811370080793408,63,1.0,179,22,female,False,False,expiration,False,3
1309,149.0,0,0.6585631999987527,0.9124870182992092,64,1.0,179,22,female,False,False,expiration,False,3
1310,113.0,0,0.6356037999976252,0.620682732158362,65,1.0,179,22,female,False,False,inspiration,False,0
1311,149.0,0,0.6676207000018621,1.5953624679504572,66,1.0,179,22,female,False,False,inspiration,False,3
1312,125.0,1,0.8933528999987175,0.3167723167396813,67,1.0,179,22,female,False,False,expiration,True,1
1313,137.0,1,0.5145340000017313,1.9796130875113471,68,1.0,179,22,female,False,False,expiration,True,2
1315,113.0,1,0.5223306000007142,1.4477920830237143,70,1.0,179,22,female,False,False,inspiration,True,0
1316,137.0,1,0.4213271000007808,0.6895899045625133,71,1.0,179,22,female,False,False,expiration,True,2
1317,125.0,1,0.33353180000267457,1.179753459810472,72,1.0,179,22,female,False,False,expiration,True,1
1318,137.0,1,0.31682070000169915,0.928656226439269,73,1.0,179,22,female,False,False,inspiration,True,2
1319,113.0,1,0.3500300999985484,0.33584060130246546,74,1.0,179,22,female,False,False,expiration,True,0
1320,149.0,1,0.5146821999987878,1.9363139378344407,75,1.0,179,22,female,False,False,expiration,True,3
1321,137.0,1,0.5746882999992522,1.7100769811580931,76,1.0,179,22,female,False,False,expiration,True,2
1322,149.0,1,0.3333628000000317,1.0523834041378577,77,1.0,179,22,female,False,False,inspiration,True,3
1323,113.0,1,0.3168279000019538,0.77163200914724,78,1.0,179,22,female,False,False,expiration,True,0
1324,125.0,0,0.8542643000000679,1.6673012733451162,79,1.0,179,22,female,False,False,expiration,False,1
1405,149.0,1,0.4954084000019066,1.4290592701203657,0,2.0,179,22,female,False,False,inspiration,True,3
1406,113.0,0,0.5953791000029014,0.3224469534339681,1,2.0,179,22,female,False,False,expiration,False,0
1407,137.0,0,0.5774061000010988,0.6109017500293458,2,2.0,179,22,female,False,False,expiration,False,2
1408,149.0,0,0.4498581000007107,1.3567784130159373,3,2.0,179,22,female,False,False,inspiration,False,3
1409,137.0,0,0.5475857999990694,0.777914723153428,4,2.0,179,22,female,False,False,expiration,False,2
1410,125.0,1,0.4950413000005938,1.8223490248063001,5,2.0,179,22,female,False,False,expiration,True,1
1411,113.0,1,0.4574097000004258,0.6480560633279691,6,2.0,179,22,female,False,False,inspiration,True,0
1412,125.0,0,0.6903920000004291,1.9678757411645065,7,2.0,179,22,female,False,False,inspiration,False,1
1413,149.0,0,0.5855866999991122,0.8986845784454702,8,2.0,179,22,female,False,False,inspiration,False,3
1414,125.0,0,0.6874763999985589,1.976064781136884,9,2.0,179,22,female,False,False,inspiration,False,1
1415,137.0,0,0.6354338000019197,1.5879543981503412,10,2.0,179,22,female,False,False,inspiration,False,2
1416,149.0,0,0.6694490000008955,0.5044900003280989,11,2.0,179,22,female,False,False,expiration,False,3
1417,137.0,0,0.5018758999976853,0.6774086529290201,12,2.0,179,22,female,False,False,expiration,False,2
1418,113.0,0,0.6896692000009352,1.2625943831870805,13,2.0,179,22,female,False,False,inspiration,False,0
1419,125.0,0,0.5063853999999992,1.7153112930801069,14,2.0,179,22,female,False,False,inspiration,False,1
1420,113.0,0,0.4762816000002204,1.3593640142698131,15,2.0,179,22,female,False,False,inspiration,False,0
1421,149.0,1,0.7522317000002658,1.4883095369709527,16,2.0,179,22,female,False,False,expiration,True,3
1422,113.0,0,0.5559450000000652,0.5582210095479336,17,2.0,179,22,female,False,False,inspiration,False,0
1423,137.0,1,0.5440433000003395,1.6726791815666222,18,2.0,179,22,female,False,False,inspiration,True,2
1424,137.0,0,0.5097570000034466,1.0756663968386715,19,2.0,179,22,female,False,False,expiration,False,2
1425,125.0,0,0.6885479999982635,0.5612489505373324,20,2.0,179,22,female,False,False,expiration,False,1
1426,125.0,0,0.4905544000030204,0.8426952596087385,21,2.0,179,22,female,False,False,inspiration,False,1
1427,113.0,0,0.4886511000004248,1.1429467105754465,22,2.0,179,22,female,False,False,expiration,False,0
1428,149.0,1,0.5430311000018264,1.0016427712178992,23,2.0,179,22,female,False,False,expiration,True,3
1429,137.0,0,0.5331148000004761,1.328524567089555,24,2.0,179,22,female,False,False,inspiration,False,2
1430,113.0,0,0.6931396999971184,0.4517103685506697,25,2.0,179,22,female,False,False,expiration,False,0
1431,149.0,0,0.7394373999995878,0.3633436912804116,26,2.0,179,22,female,False,False,inspiration,False,3
1432,149.0,0,0.5866338999985601,1.905319597397144,27,2.0,179,22,female,False,False,expiration,False,3
1433,125.0,0,0.6153870999987703,0.8618303318817016,28,2.0,179,22,female,False,False,inspiration,False,1
1434,113.0,0,0.4911398000003828,1.6977138510018364,29,2.0,179,22,female,False,False,inspiration,False,0
1435,125.0,0,0.5939041000019643,1.9063554473589484,30,2.0,179,22,female,False,False,inspiration,False,1
1436,137.0,1,0.5550857999987784,0.3340713935997988,31,2.0,179,22,female,False,False,expiration,True,2
1437,113.0,0,0.5887124000000767,1.4169132044386996,32,2.0,179,22,female,False,False,expiration,False,0
1438,149.0,0,0.5517798000000766,1.974146011965745,33,2.0,179,22,female,False,False,expiration,False,3
1439,137.0,0,0.602600899997924,1.823700931793492,34,2.0,179,22,female,False,False,expiration,False,2
1440,149.0,1,0.7425165999993624,1.6477164694230881,35,2.0,179,22,female,False,False,inspiration,True,3
1442,137.0,0,0.5979149999984656,0.7540217419697126,37,2.0,179,22,female,False,False,inspiration,False,2
1443,125.0,0,0.5942838000009942,0.8251052739476792,38,2.0,179,22,female,False,False,expiration,False,1
1444,125.0,0,0.3835121999982221,0.6279497830725924,39,2.0,179,22,female,False,False,inspiration,False,1
1446,149.0,0,0.3335441999988689,0.6518293804137832,41,2.0,179,22,female,False,False,inspiration,False,3
1447,125.0,1,0.7315306999989843,1.0079490413162049,42,2.0,179,22,female,False,False,expiration,True,1
1448,113.0,0,0.6875917999968806,1.193783080282846,43,2.0,179,22,female,False,False,inspiration,False,0
1449,113.0,0,1.956380499999796,0.7780977649326261,44,2.0,179,22,female,False,False,expiration,False,0
1451,149.0,0,0.6703664999986358,0.5412644001591623,46,2.0,179,22,female,False,False,inspiration,False,3
1452,137.0,0,1.3946482999999716,1.1458698058298291,47,2.0,179,22,female,False,False,inspiration,False,2
1453,113.0,0,0.5137070000018866,0.3578069079968409,48,2.0,179,22,female,False,False,inspiration,False,0
1454,149.0,0,0.4876666000018304,1.7422945698829748,49,2.0,179,22,female,False,False,expiration,False,3
1455,137.0,0,0.6462206000032893,1.7874157594451137,50,2.0,179,22,female,False,False,expiration,False,2
1456,137.0,0,0.4750090999987151,0.8211437113903128,51,2.0,179,22,female,False,False,expiration,False,2
1457,113.0,0,0.460405300000275,1.9820372219375089,52,2.0,179,22,female,False,False,expiration,False,0
1458,125.0,0,0.5171270999999251,1.2452292750379912,53,2.0,179,22,female,False,False,inspiration,False,1
1459,149.0,0,0.6072115999995731,1.8151863400464776,54,2.0,179,22,female,False,False,inspiration,False,3
1460,125.0,0,0.5734527000022354,1.5673644707413368,55,2.0,179,22,female,False,False,inspiration,False,1
1463,149.0,0,0.8625863999986905,1.006118495505856,58,2.0,179,22,female,False,False,expiration,False,3
1465,113.0,0,0.6290022000030149,0.5171152529892178,60,2.0,179,22,female,False,False,expiration,False,0
1466,113.0,0,0.8435157999992953,1.8825430533575187,61,2.0,179,22,female,False,False,expiration,False,0
1467,137.0,0,0.4001852000001236,1.8164971549938669,62,2.0,179,22,female,False,False,inspiration,False,2
1469,149.0,0,0.41683280000142986,1.6996632784722738,64,2.0,179,22,female,False,False,expiration,False,3
1471,149.0,0,0.3668333999994502,0.8056046731170896,66,2.0,179,22,female,False,False,expiration,False,3
1472,125.0,0,0.5371970000014699,1.3390878892192626,67,2.0,179,22,female,False,False,expiration,False,1
1473,137.0,0,0.35018449999915896,1.845191101518181,68,2.0,179,22,female,False,False,expiration,False,2
1474,125.0,0,0.5218286999988777,0.4892420670085339,69,2.0,179,22,female,False,False,inspiration,False,1
1475,113.0,0,0.3667473000023165,1.9988406332391948,70,2.0,179,22,female,False,False,inspiration,False,0
1476,137.0,0,0.3834784999999101,0.3370703161245856,71,2.0,179,22,female,False,False,expiration,False,2
1477,125.0,0,0.4002355000011448,1.9010293481592435,72,2.0,179,22,female,False,False,expiration,False,1
1479,113.0,0,0.216713300000265,0.7191924201428499,74,2.0,179,22,female,False,False,expiration,False,0
1482,149.0,0,0.31687070000043605,1.4964520707832631,77,2.0,179,22,female,False,False,expiration,False,3
1483,113.0,0,0.6527949000010267,1.512527826045076,78,2.0,179,22,female,False,False,expiration,False,0
1484,125.0,0,0.2001769999988028,1.074228732484686,79,2.0,179,22,female,False,False,expiration,False,1
1565,149.0,1,0.8103757999997472,0.7652604691999352,0,3.0,179,22,female,False,False,inspiration,True,3
1566,113.0,0,0.7977506000024732,0.6806368061298971,1,3.0,179,22,female,False,False,expiration,False,0
1567,137.0,1,0.6368990000009944,1.5164511941462078,2,3.0,179,22,female,False,False,inspiration,True,2
1568,149.0,0,0.5253733999998076,1.9537703223994147,3,3.0,179,22,female,False,False,inspiration,False,3
1569,137.0,0,0.5247154000026057,1.013876993454493,4,3.0,179,22,female,False,False,inspiration,False,2
1570,125.0,0,0.4872000999966986,0.7623426399871505,5,3.0,179,22,female,False,False,inspiration,False,1
1571,113.0,0,0.4298467999979039,0.6650595059475521,6,3.0,179,22,female,False,False,inspiration,False,0
1572,125.0,0,0.684257200002321,1.4580510810200822,7,3.0,179,22,female,False,False,inspiration,False,1
1573,149.0,0,0.6916349999992235,1.2081999089452855,8,3.0,179,22,female,False,False,expiration,False,3
1574,125.0,0,0.9097064000015962,0.4389266351639178,9,3.0,179,22,female,False,False,inspiration,False,1
1575,137.0,1,0.5400798000009672,0.5861458150973294,10,3.0,179,22,female,False,False,expiration,True,2
1576,149.0,1,0.4805282999986957,0.9560774161880912,11,3.0,179,22,female,False,False,expiration,True,3
1577,137.0,1,0.5161068999987037,1.8615108522185333,12,3.0,179,22,female,False,False,expiration,True,2
1578,113.0,1,0.5793358000009903,1.136100136357251,13,3.0,179,22,female,False,False,inspiration,True,0
1579,125.0,1,0.5174151999999594,1.3987623636459057,14,3.0,179,22,female,False,False,inspiration,True,1
1580,113.0,1,0.5625414000023738,1.9625622894074843,15,3.0,179,22,female,False,False,inspiration,True,0
1581,149.0,1,0.4273488999970141,1.3465105073303374,16,3.0,179,22,female,False,False,expiration,True,3
1582,113.0,1,0.3502176999973017,1.3780862877087336,17,3.0,179,22,female,False,False,expiration,True,0
1583,137.0,1,0.3835314999996626,0.5955586149563241,18,3.0,179,22,female,False,False,inspiration,True,2
1584,137.0,1,0.28353749999951106,0.5705440676673905,19,3.0,179,22,female,False,False,expiration,True,2
1585,125.0,1,0.2668277000011585,1.0478946823179458,20,3.0,179,22,female,False,False,inspiration,True,1
1586,125.0,1,0.3168766999988293,0.3839368430541202,21,3.0,179,22,female,False,False,expiration,True,1
1587,113.0,1,0.3835107000013521,1.7372421251433223,22,3.0,179,22,female,False,False,expiration,True,0
1588,149.0,1,0.38355779999983497,0.7912411306736442,23,3.0,179,22,female,False,False,inspiration,True,3
1589,137.0,1,0.3834998999991512,1.2590088833055826,24,3.0,179,22,female,False,False,expiration,True,2
1590,113.0,1,0.2669426000029489,0.4509954310286843,25,3.0,179,22,female,False,False,inspiration,True,0
1591,149.0,1,0.4959381999979087,1.7677113672210831,26,3.0,179,22,female,False,False,inspiration,True,3
1593,125.0,1,0.3500874000019394,0.9531563315037332,28,3.0,179,22,female,False,False,expiration,True,1
1594,113.0,1,0.5261375000009139,1.3253800771139743,29,3.0,179,22,female,False,False,inspiration,True,0
1595,125.0,1,0.5425021000010021,0.904635753372879,30,3.0,179,22,female,False,False,expiration,True,1
1596,137.0,1,0.5689663999983168,1.8360891721991441,31,3.0,179,22,female,False,False,expiration,True,2
1597,113.0,0,0.4596615000009479,0.7440328258146154,32,3.0,179,22,female,False,False,inspiration,False,0
1598,149.0,0,0.4920337000003201,0.3455004456587672,33,3.0,179,22,female,False,False,expiration,False,3
1599,137.0,1,0.4794576000022062,1.902221883690385,34,3.0,179,22,female,False,False,expiration,True,2
1600,149.0,1,0.26712950000001,0.8983501170257229,35,3.0,179,22,female,False,False,inspiration,True,3
1601,113.0,0,0.6352364999984275,1.1859601787934688,36,3.0,179,22,female,False,False,expiration,False,0
1602,137.0,1,0.5590168999988236,1.3672616966686084,37,3.0,179,22,female,False,False,expiration,True,2
1603,125.0,1,0.5990988000012294,1.6122973563316243,38,3.0,179,22,female,False,False,expiration,True,1
1605,137.0,0,0.9775493999986792,1.5732671394713151,40,3.0,179,22,female,False,False,expiration,False,2
1606,149.0,1,0.8179533000002266,0.3686643662352058,41,3.0,179,22,female,False,False,inspiration,True,3
1607,125.0,1,0.366815500001394,0.9926876962387168,42,3.0,179,22,female,False,False,inspiration,True,1
1608,113.0,1,0.5757011999994575,0.4964708150491072,43,3.0,179,22,female,False,False,expiration,True,0
1609,113.0,0,0.4551948000007542,1.919220849781848,44,3.0,179,22,female,False,False,expiration,False,0
1610,125.0,0,0.16682779999973718,0.3864979093800518,45,3.0,179,22,female,False,False,inspiration,False,1
1611,149.0,0,0.4167672999974457,0.8097466286824953,46,3.0,179,22,female,False,False,expiration,False,3
1612,137.0,1,1.1608116999996128,1.88245691289368,47,3.0,179,22,female,False,False,expiration,True,2
1613,113.0,0,0.5586221999983536,1.208456878199907,48,3.0,179,22,female,False,False,expiration,False,0
1615,137.0,0,0.3501216000004206,1.1764318104936755,50,3.0,179,22,female,False,False,inspiration,False,2
1616,137.0,1,0.4000369999994291,0.6681675979040265,51,3.0,179,22,female,False,False,expiration,True,2
1617,113.0,1,0.31686760000229697,1.041946484943856,52,3.0,179,22,female,False,False,inspiration,True,0
1619,149.0,1,0.267017099999066,1.0207461084159322,54,3.0,179,22,female,False,False,expiration,True,3
1620,125.0,1,0.2668045999998867,1.7073412977972915,55,3.0,179,22,female,False,False,expiration,True,1
1621,125.0,1,0.30016620000242256,1.7021074706353492,56,3.0,179,22,female,False,False,expiration,True,1
1622,125.0,1,0.4314747999997053,0.42774887096149,57,3.0,179,22,female,False,False,expiration,True,1
1623,149.0,1,0.2668306999985361,0.7969374062494081,58,3.0,179,22,female,False,False,expiration,True,3
1624,137.0,1,0.3168479000014486,1.3578625098966564,59,3.0,179,22,female,False,False,inspiration,True,2
1625,113.0,0,0.5817031999977189,0.9294783221816392,60,3.0,179,22,female,False,False,expiration,False,0
1626,113.0,1,0.4590514000010444,1.9258428355820119,61,3.0,179,22,female,False,False,expiration,True,0
1628,149.0,1,0.4001663999988523,1.662798643159279,63,3.0,179,22,female,False,False,inspiration,True,3
1629,149.0,1,0.4167712000016763,1.1841927841773492,64,3.0,179,22,female,False,False,expiration,True,3
1630,113.0,0,0.6203606000017317,0.907296642456038,65,3.0,179,22,female,False,False,expiration,False,0
1631,149.0,0,0.4444008999998914,0.8038810640625699,66,3.0,179,22,female,False,False,inspiration,False,3
1632,125.0,0,0.5390861999985646,0.30277380076500765,67,3.0,179,22,female,False,False,expiration,False,1
1633,137.0,1,0.4167772000000696,0.9045154757567058,68,3.0,179,22,female,False,False,inspiration,True,2
1635,113.0,1,0.3833643999969354,0.940328999319726,70,3.0,179,22,female,False,False,inspiration,True,0
1636,137.0,1,0.9383680999999342,1.0942775482956175,71,3.0,179,22,female,False,False,inspiration,True,2
1637,125.0,1,0.3168140999987372,1.6198290823115158,72,3.0,179,22,female,False,False,inspiration,True,1
1638,137.0,1,0.31679729999814304,1.796457521163847,73,3.0,179,22,female,False,False,inspiration,True,2
1639,113.0,1,0.3168475000020408,0.9301878296074472,74,3.0,179,22,female,False,False,expiration,True,0
1640,149.0,0,0.4854596000004676,1.519340534741516,75,3.0,179,22,female,False,False,expiration,False,3
1641,137.0,0,0.30018639999980223,1.326500112540971,76,3.0,179,22,female,False,False,inspiration,False,2
1642,149.0,1,0.4626454999997805,1.4605971713329704,77,3.0,179,22,female,False,False,inspiration,True,3
1643,113.0,1,0.4902961000007053,0.8877026653891553,78,3.0,179,22,female,False,False,expiration,True,0
1644,125.0,1,0.4767373000031512,0.3812050952290077,79,3.0,179,22,female,False,False,expiration,True,1
1910,115.0,0,0.7316337000002022,1.445237193505756,2,0.0,1002,29,female,False,False,inspiration,False,3
1911,102.0,0,0.6260866000002352,1.7011817163665008,3,0.0,1002,29,female,False,False,expiration,False,0
1913,111.0,0,0.7934969999996611,0.3325492378032722,5,0.0,1002,29,female,False,False,expiration,False,2
1914,106.0,0,0.5899578999997175,0.359904135116435,6,0.0,1002,29,female,False,False,inspiration,False,1
1915,102.0,0,0.5253341000006913,0.9990608837471308,7,0.0,1002,29,female,False,False,expiration,False,0
1916,102.0,0,0.666769700000259,1.8104254578473955,8,0.0,1002,29,female,False,False,inspiration,False,0
1917,115.0,1,0.7808205000001178,0.543396987860003,9,0.0,1002,29,female,False,False,expiration,True,3
1918,111.0,0,0.6035464000005959,0.8883648513561684,10,0.0,1002,29,female,False,False,inspiration,False,2
1919,106.0,0,0.5135771000004752,1.2285719156310697,11,0.0,1002,29,female,False,False,expiration,False,1
1920,115.0,1,1.0720614000001658,1.6900052298117163,12,0.0,1002,29,female,False,False,inspiration,True,3
1921,102.0,0,0.5458229999994728,1.8932525161417089,13,0.0,1002,29,female,False,False,inspiration,False,0
1922,106.0,1,0.9682339999999384,1.0526004564326643,14,0.0,1002,29,female,False,False,expiration,True,1
1923,111.0,1,0.5849690000004557,0.5919902701497739,15,0.0,1002,29,female,False,False,inspiration,True,2
1924,102.0,1,0.8650006999996549,0.39373428161553387,16,0.0,1002,29,female,False,False,expiration,True,0
1925,111.0,1,0.7181213000003481,1.4778265212498125,17,0.0,1002,29,female,False,False,inspiration,True,2
1926,111.0,1,1.6598601000005146,1.189757939055108,18,0.0,1002,29,female,False,False,expiration,True,2
1927,115.0,0,1.0483284000001731,1.7296123683155256,19,0.0,1002,29,female,False,False,expiration,False,3
1928,102.0,0,0.5967513000005056,1.838878996465096,20,0.0,1002,29,female,False,False,inspiration,False,0
1929,106.0,0,0.4595175000004019,1.1505064188887075,21,0.0,1002,29,female,False,False,expiration,False,1
1930,115.0,0,0.5016711999996915,1.9077063176250448,22,0.0,1002,29,female,False,False,expiration,False,3
1931,106.0,1,0.8290070999992167,0.8318378729805205,23,0.0,1002,29,female,False,False,expiration,True,1
1932,106.0,0,0.8207795999996961,1.240080336496215,24,0.0,1002,29,female,False,False,expiration,False,1
1933,111.0,1,0.8161620999999286,0.40743839933042497,25,0.0,1002,29,female,False,False,expiration,True,2
1934,115.0,1,0.6882060999996611,0.6734327993827633,26,0.0,1002,29,female,False,False,inspiration,True,3
1935,102.0,0,1.57594969999991,1.5218992747176738,27,0.0,1002,29,female,False,False,inspiration,False,0
1936,111.0,1,0.7070602000003419,1.1665100403591169,28,0.0,1002,29,female,False,False,expiration,True,2
1939,115.0,0,1.361414200000581,0.8085237346745067,31,0.0,1002,29,female,False,False,inspiration,False,3
1940,111.0,0,0.9732292999997298,1.9364079469003823,32,0.0,1002,29,female,False,False,inspiration,False,2
1941,102.0,1,0.9096579000006386,0.5690336601667141,33,0.0,1002,29,female,False,False,expiration,True,0
1942,106.0,1,0.6043627000008199,0.4140042088843524,34,0.0,1002,29,female,False,False,inspiration,True,1
1943,106.0,1,0.5307787000001554,1.9893548507489245,35,0.0,1002,29,female,False,False,expiration,True,1
1944,115.0,1,1.6025260999995226,1.6811779022790627,36,0.0,1002,29,female,False,False,inspiration,True,3
1945,111.0,0,1.2393138999996154,0.9138274556264304,37,0.0,1002,29,female,False,False,inspiration,False,2
1946,115.0,1,0.7517882000001919,1.0473207020776527,38,0.0,1002,29,female,False,False,expiration,True,3
1947,102.0,1,0.7757927000002383,0.7019168660915283,39,0.0,1002,29,female,False,False,inspiration,True,0
1948,106.0,0,0.710960200000045,0.8044914360892923,40,0.0,1002,29,female,False,False,expiration,False,1
1949,102.0,1,1.5452943999998752,0.7393689571394084,41,0.0,1002,29,female,False,False,inspiration,True,0
1950,102.0,0,0.7041099000007307,1.3162892830977069,42,0.0,1002,29,female,False,False,expiration,False,0
1951,115.0,1,1.1737933999993402,0.8547712771522753,43,0.0,1002,29,female,False,False,expiration,True,3
1952,111.0,0,0.7805528999997478,1.1701421199565312,44,0.0,1002,29,female,False,False,inspiration,False,2
1953,106.0,0,1.0389568000000509,1.1191674854270637,45,0.0,1002,29,female,False,False,expiration,False,1
1954,111.0,0,0.8830336999999417,0.5744392396729538,46,0.0,1002,29,female,False,False,inspiration,False,2
1955,115.0,0,0.6534572999999,1.064790280273557,47,0.0,1002,29,female,False,False,expiration,False,3
1956,106.0,0,0.6855362000005698,1.563287640198349,48,0.0,1002,29,female,False,False,inspiration,False,1
1957,115.0,1,0.6293468000003486,1.8213056395666087,49,0.0,1002,29,female,False,False,inspiration,True,3
1958,111.0,1,1.0481284999996203,1.2829820781324082,50,0.0,1002,29,female,False,False,expiration,True,2
1959,102.0,1,1.029096200000822,0.36522344505162135,51,0.0,1002,29,female,False,False,inspiration,True,0
1960,111.0,0,1.1099137000001065,1.1292234923538462,52,0.0,1002,29,female,False,False,expiration,False,2
1961,106.0,0,0.6340208000001439,0.6047826218223139,53,0.0,1002,29,female,False,False,inspiration,False,1
1962,115.0,1,1.907303899999533,0.6731995265608548,54,0.0,1002,29,female,False,False,expiration,True,3
1963,102.0,0,0.6548152999994272,1.2764646053062385,55,0.0,1002,29,female,False,False,inspiration,False,0
1964,111.0,0,1.1175096999995728,0.6552665670100841,56,0.0,1002,29,female,False,False,expiration,False,2
1965,111.0,0,0.6705903000001854,1.0719476426347772,57,0.0,1002,29,female,False,False,inspiration,False,2
1966,102.0,1,0.6303946999996697,0.3960221070588812,58,0.0,1002,29,female,False,False,expiration,True,0
1967,115.0,1,1.5647628999995504,1.9135842336853008,59,0.0,1002,29,female,False,False,expiration,True,3
1968,115.0,1,0.8015378999998575,1.3879002039554835,60,0.0,1002,29,female,False,False,inspiration,True,3
1969,106.0,1,0.7492751999998291,0.3515530041281877,61,0.0,1002,29,female,False,False,expiration,True,1
1970,106.0,0,0.9220757000002776,1.9683499708938192,62,0.0,1002,29,female,False,False,inspiration,False,1
1971,102.0,0,0.8644706000004589,1.4634360052288586,63,0.0,1002,29,female,False,False,expiration,False,0
1972,106.0,0,0.534196399999928,0.5586976464718658,64,0.0,1002,29,female,False,False,inspiration,False,1
1973,115.0,1,0.931631099999322,1.8052050731238518,65,0.0,1002,29,female,False,False,inspiration,True,3
1974,111.0,1,1.4847516999998334,1.7314589775960068,66,0.0,1002,29,female,False,False,expiration,True,2
1975,102.0,0,0.9428871000000072,1.591911911517804,67,0.0,1002,29,female,False,False,expiration,False,0
1977,111.0,0,0.8553734000006443,0.4240139698992805,69,0.0,1002,29,female,False,False,inspiration,False,2
1978,106.0,0,0.5848213999997824,1.3973672517972957,70,0.0,1002,29,female,False,False,inspiration,False,1
1979,115.0,0,1.1259220000001733,0.5433227634233367,71,0.0,1002,29,female,False,False,expiration,False,3
1980,102.0,0,0.7060660000006465,1.99785222995974,72,0.0,1002,29,female,False,False,inspiration,False,0
1981,106.0,0,0.8090308999999252,0.8570636375664302,73,0.0,1002,29,female,False,False,expiration,False,1
1982,102.0,0,0.7617794999996477,0.6572136073599153,74,0.0,1002,29,female,False,False,expiration,False,0
1984,115.0,1,0.4002152000002752,1.2056314961108896,76,0.0,1002,29,female,False,False,expiration,True,3
1985,106.0,1,1.1156756999998834,0.3833625452917861,77,0.0,1002,29,female,False,False,expiration,True,1
1986,115.0,1,1.3447741999998468,1.0749869848146618,78,0.0,1002,29,female,False,False,expiration,True,3
2068,115.0,0,1.6195692000001145,0.37698847856643697,0,1.0,1002,29,female,False,False,inspiration,False,3
2069,111.0,0,0.6986264999995911,0.8325614179648455,1,1.0,1002,29,female,False,False,expiration,False,2
2070,115.0,0,0.9471018999993248,1.9493595250378213,2,1.0,1002,29,female,False,False,expiration,False,3
2071,102.0,0,0.8894303000006403,1.294245312813422,3,1.0,1002,29,female,False,False,expiration,False,0
2072,106.0,0,1.0528770999999324,0.8962250650163461,4,1.0,1002,29,female,False,False,expiration,False,1
2073,111.0,1,1.3670547000001534,1.063759741787794,5,1.0,1002,29,female,False,False,expiration,True,2
2074,106.0,0,0.6873932999997123,1.3369422009036034,6,1.0,1002,29,female,False,False,expiration,False,1
2075,102.0,0,1.0461404999996375,0.3642527230723629,7,1.0,1002,29,female,False,False,inspiration,False,0
2076,102.0,1,0.4945938999999271,1.5081773887654586,8,1.0,1002,29,female,False,False,expiration,True,0
2077,115.0,0,0.6473387000005459,1.7315157493163562,9,1.0,1002,29,female,False,False,expiration,False,3
2078,111.0,1,1.2348019000000932,1.8407965786517444,10,1.0,1002,29,female,False,False,inspiration,True,2
2079,106.0,1,0.7881922999995368,1.499872256923963,11,1.0,1002,29,female,False,False,expiration,True,1
2080,115.0,1,1.1729522999994515,0.680128716820927,12,1.0,1002,29,female,False,False,inspiration,True,3
2081,102.0,0,0.6920187000005171,1.1348086912506001,13,1.0,1002,29,female,False,False,expiration,False,0
2082,106.0,1,2.0844441999997803,1.3013531921350476,14,1.0,1002,29,female,False,False,inspiration,True,1
2084,102.0,0,1.261432899999818,0.8326229321709828,16,1.0,1002,29,female,False,False,expiration,False,0
2085,111.0,1,0.8735612999998921,1.9695505369165969,17,1.0,1002,29,female,False,False,inspiration,True,2
2086,111.0,1,0.7755910000005315,1.9942664239846848,18,1.0,1002,29,female,False,False,expiration,True,2
2087,115.0,1,0.6956766999992396,1.740539205780829,19,1.0,1002,29,female,False,False,expiration,True,3
2088,102.0,0,0.8828124000001479,0.977057954179195,20,1.0,1002,29,female,False,False,inspiration,False,0
2089,106.0,1,1.167535199999293,1.814287191474612,21,1.0,1002,29,female,False,False,expiration,True,1
2090,115.0,1,0.6899774000003163,1.0163167651011469,22,1.0,1002,29,female,False,False,expiration,True,3
2091,106.0,0,0.6464066999997158,1.866109521317076,23,1.0,1002,29,female,False,False,inspiration,False,1
2092,106.0,0,1.3404534999999669,0.5355077442590632,24,1.0,1002,29,female,False,False,expiration,False,1
2093,111.0,1,0.8638872000001356,1.6912888108098636,25,1.0,1002,29,female,False,False,expiration,True,2
2094,115.0,1,0.5520427999999811,0.6091708433257992,26,1.0,1002,29,female,False,False,expiration,True,3
2095,102.0,0,1.0848022000000128,0.6937638377853097,27,1.0,1002,29,female,False,False,inspiration,False,0
2096,111.0,1,1.206119999999828,1.5644036504206316,28,1.0,1002,29,female,False,False,expiration,True,2
2097,102.0,1,0.8931632000003447,1.019895129807744,29,1.0,1002,29,female,False,False,expiration,True,0
2104,115.0,1,0.8959512000001268,0.9295333285108124,36,1.0,1002,29,female,False,False,inspiration,True,3
2105,111.0,1,0.625693400000273,1.6548105734666094,37,1.0,1002,29,female,False,False,expiration,True,2
2106,115.0,1,0.9161008999999468,1.2659123988704148,38,1.0,1002,29,female,False,False,inspiration,True,3
2107,102.0,1,0.822536300000138,0.917575924487678,39,1.0,1002,29,female,False,False,expiration,True,0
2108,106.0,1,0.8599160000003394,1.4047745658493025,40,1.0,1002,29,female,False,False,expiration,True,1
2109,102.0,0,1.2970079999995503,0.4768501529697258,41,1.0,1002,29,female,False,False,inspiration,False,0
2110,102.0,0,0.6387236999999004,0.31787733721457834,42,1.0,1002,29,female,False,False,inspiration,False,0
2111,115.0,1,0.8688395999997738,0.6318898510556459,43,1.0,1002,29,female,False,False,expiration,True,3
2112,111.0,1,0.6282344999999623,0.6585025996652939,44,1.0,1002,29,female,False,False,inspiration,True,2
2113,106.0,1,1.1976425000002564,0.9047638721714024,45,1.0,1002,29,female,False,False,expiration,True,1
2114,111.0,0,1.6097714000006818,1.3769427643180479,46,1.0,1002,29,female,False,False,expiration,False,2
2115,115.0,0,0.5768428999999742,1.5261049650926,47,1.0,1002,29,female,False,False,inspiration,False,3
2116,106.0,0,0.7165685999998459,1.4221905756525288,48,1.0,1002,29,female,False,False,expiration,False,1
2117,115.0,1,0.8590231999996831,1.2751491948557412,49,1.0,1002,29,female,False,False,inspiration,True,3
2118,111.0,0,1.223460299999715,1.6834928150553312,50,1.0,1002,29,female,False,False,expiration,False,2
2120,111.0,1,1.0912588000001051,1.0325454975334825,52,1.0,1002,29,female,False,False,expiration,True,2
2121,106.0,0,0.7100731000000451,1.8823231951443449,53,1.0,1002,29,female,False,False,expiration,False,1
2123,102.0,0,0.9029531000005592,0.5047666683725235,55,1.0,1002,29,female,False,False,expiration,False,0
2124,111.0,1,0.8190012000004572,1.7707992062420588,56,1.0,1002,29,female,False,False,inspiration,True,2
2125,111.0,1,0.8937668999997186,1.3352395401352901,57,1.0,1002,29,female,False,False,expiration,True,2
2126,102.0,1,0.7708401999998387,0.9253277014648726,58,1.0,1002,29,female,False,False,inspiration,True,0
2127,115.0,1,0.6699636000003011,1.1452123350435304,59,1.0,1002,29,female,False,False,expiration,True,3
2128,115.0,1,0.6736923000007664,0.4614555971913954,60,1.0,1002,29,female,False,False,inspiration,True,3
2129,106.0,1,0.4703693999999814,0.37909352365062654,61,1.0,1002,29,female,False,False,expiration,True,1
2130,106.0,1,0.5327648000002227,1.2268865477796256,62,1.0,1002,29,female,False,False,inspiration,True,1
2131,102.0,0,1.359844499999781,1.3521345288904718,63,1.0,1002,29,female,False,False,expiration,False,0
2133,115.0,1,0.9734215999997105,1.5872614281871198,65,1.0,1002,29,female,False,False,inspiration,True,3
2134,111.0,0,0.9015045000005556,1.6099787340524905,66,1.0,1002,29,female,False,False,expiration,False,2
2135,102.0,0,0.5199591000000511,0.7940354539372569,67,1.0,1002,29,female,False,False,inspiration,False,0
2136,102.0,0,0.9050128999997468,1.3215363410806618,68,1.0,1002,29,female,False,False,expiration,False,0
2137,111.0,0,0.7157943000001978,1.7939553633353629,69,1.0,1002,29,female,False,False,expiration,False,2
2138,106.0,0,1.0638733999994656,0.3097062527725603,70,1.0,1002,29,female,False,False,expiration,False,1
2139,115.0,0,1.026578899999549,1.8883695777273903,71,1.0,1002,29,female,False,False,expiration,False,3
2140,102.0,0,0.7060273000006418,1.386595138128755,72,1.0,1002,29,female,False,False,inspiration,False,0
2141,106.0,0,1.1175176999995529,1.6457375278939486,73,1.0,1002,29,female,False,False,expiration,False,1
2142,102.0,0,0.8172099000003072,0.8000141634119726,74,1.0,1002,29,female,False,False,expiration,False,0
2143,111.0,0,1.0519224999998191,0.33565175436399136,75,1.0,1002,29,female,False,False,expiration,False,2
2144,115.0,0,1.181735099999969,0.9109933885714392,76,1.0,1002,29,female,False,False,expiration,False,3
2145,106.0,0,0.945445800000016,1.016177829250298,77,1.0,1002,29,female,False,False,expiration,False,1
2146,115.0,1,0.5096247999999832,1.996192995391004,78,1.0,1002,29,female,False,False,expiration,True,3
2147,111.0,1,0.8213108999998441,1.6488597778059633,79,1.0,1002,29,female,False,False,expiration,True,2
2229,111.0,0,0.8463833999994677,1.5480316618472385,1,2.0,1002,29,female,False,False,expiration,False,2
2230,115.0,0,0.8798139000000447,1.361650098407043,2,2.0,1002,29,female,False,False,inspiration,False,3
2231,102.0,0,0.6231935000005251,0.4495574727432405,3,2.0,1002,29,female,False,False,expiration,False,0
2232,106.0,0,0.8462742000001526,0.8122577900866109,4,2.0,1002,29,female,False,False,expiration,False,1
2234,106.0,0,0.7017990000003921,1.6874181744192909,6,2.0,1002,29,female,False,False,expiration,False,1
2235,102.0,0,0.7762349999993603,0.591733962264527,7,2.0,1002,29,female,False,False,expiration,False,0
2236,102.0,1,0.7129994999995688,0.8880045395549696,8,2.0,1002,29,female,False,False,expiration,True,0
2237,115.0,1,0.4002079000001686,0.4909444896506099,9,2.0,1002,29,female,False,False,inspiration,True,3
2238,111.0,1,0.4944297000001825,0.8441415167777571,10,2.0,1002,29,female,False,False,expiration,True,2
2239,106.0,0,0.8387395999998262,0.8960138309673742,11,2.0,1002,29,female,False,False,expiration,False,1
2240,115.0,0,0.6025055000000066,0.41456999377099146,12,2.0,1002,29,female,False,False,inspiration,False,3
2241,102.0,0,0.4915940000000774,1.470314907495754,13,2.0,1002,29,female,False,False,inspiration,False,0
2242,106.0,0,0.5193871000001309,1.4583757091963805,14,2.0,1002,29,female,False,False,expiration,False,1
2243,111.0,0,0.7861963000004835,1.4825436944235617,15,2.0,1002,29,female,False,False,inspiration,False,2
2244,102.0,0,0.501840799999627,1.2640599389248308,16,2.0,1002,29,female,False,False,expiration,False,0
2245,111.0,1,0.5056445999998687,1.5074543669262401,17,2.0,1002,29,female,False,False,inspiration,True,2
2246,111.0,1,0.6093378999994457,1.5211923933675178,18,2.0,1002,29,female,False,False,expiration,True,2
2247,115.0,0,0.8538260999994236,1.7259979480530887,19,2.0,1002,29,female,False,False,inspiration,False,3
2248,102.0,0,0.8852256000000125,1.6593467951954195,20,2.0,1002,29,female,False,False,expiration,False,0
2249,106.0,0,0.572660700000597,0.40267464170026623,21,2.0,1002,29,female,False,False,inspiration,False,1
2250,115.0,0,0.6903247000000192,1.0335988006329395,22,2.0,1002,29,female,False,False,expiration,False,3
2251,106.0,0,0.6937791999998808,0.4108501080750626,23,2.0,1002,29,female,False,False,expiration,False,1
2252,106.0,1,1.2311291999994864,0.8991636169930497,24,2.0,1002,29,female,False,False,inspiration,True,1
2253,111.0,1,0.4425916999998663,0.6603614313052667,25,2.0,1002,29,female,False,False,expiration,True,2
2254,115.0,1,0.8200013000005129,1.94460623819038,26,2.0,1002,29,female,False,False,expiration,True,3
2255,102.0,1,0.9580684000002292,1.6902648988577462,27,2.0,1002,29,female,False,False,inspiration,True,0
2256,111.0,1,0.572806799999853,0.6685199635124173,28,2.0,1002,29,female,False,False,inspiration,True,2
2257,102.0,1,0.4555144000005384,0.6383078505848829,29,2.0,1002,29,female,False,False,expiration,True,0
2258,106.0,1,0.6926418000002741,1.46593120885981,30,2.0,1002,29,female,False,False,expiration,True,1
2259,115.0,1,0.5550234000002092,1.000108112470103,31,2.0,1002,29,female,False,False,inspiration,True,3
2260,111.0,1,0.4497051999996984,0.6687787798731804,32,2.0,1002,29,female,False,False,inspiration,True,2
2261,102.0,0,1.3544968999995035,0.6658690879147819,33,2.0,1002,29,female,False,False,inspiration,False,0
2262,106.0,0,0.5616239999999381,1.1964048940865135,34,2.0,1002,29,female,False,False,inspiration,False,1
2263,106.0,0,0.4869306000000506,0.5742292312336635,35,2.0,1002,29,female,False,False,expiration,False,1
2264,115.0,1,1.0340108000000328,0.9883514675924407,36,2.0,1002,29,female,False,False,expiration,True,3
2265,111.0,1,0.8244185000003199,0.4150786778046154,37,2.0,1002,29,female,False,False,expiration,True,2
2266,115.0,1,1.1054683000002117,1.1524084121070102,38,2.0,1002,29,female,False,False,expiration,True,3
2267,102.0,0,0.6736391000004005,1.7072412273016755,39,2.0,1002,29,female,False,False,expiration,False,0
2268,106.0,0,0.5656529999996565,0.35013043448495496,40,2.0,1002,29,female,False,False,inspiration,False,1
2269,102.0,0,0.4664429999993445,0.3741111658149018,41,2.0,1002,29,female,False,False,expiration,False,0
2270,102.0,0,0.9334238999999798,1.168943305420961,42,2.0,1002,29,female,False,False,expiration,False,0
2271,115.0,0,1.3441775999999663,1.08237360220363,43,2.0,1002,29,female,False,False,expiration,False,3
2277,115.0,1,0.7649886999997761,0.9323772042804492,49,2.0,1002,29,female,False,False,inspiration,True,3
2278,111.0,0,0.6510214999998425,0.924937327767814,50,2.0,1002,29,female,False,False,expiration,False,2
2279,102.0,0,0.7778069999994841,1.9519652068175959,51,2.0,1002,29,female,False,False,inspiration,False,0
2280,111.0,0,0.8418431000000055,0.3185259561948225,52,2.0,1002,29,female,False,False,expiration,False,2
2281,106.0,0,0.8954395000000659,1.9947233548240209,53,2.0,1002,29,female,False,False,expiration,False,1
2282,115.0,1,0.8504706000003353,1.8332640695377056,54,2.0,1002,29,female,False,False,inspiration,True,3
2283,102.0,0,0.6342440000007628,1.751052748370949,55,2.0,1002,29,female,False,False,expiration,False,0
2284,111.0,1,0.5915708000002269,0.8680272274185374,56,2.0,1002,29,female,False,False,inspiration,True,2
2285,111.0,1,1.0793471999995743,1.1648394071281605,57,2.0,1002,29,female,False,False,expiration,True,2
2286,102.0,0,0.7304756999992605,1.944152536229105,58,2.0,1002,29,female,False,False,inspiration,False,0
2287,115.0,1,0.8065032000004067,0.8486515746871437,59,2.0,1002,29,female,False,False,expiration,True,3
2288,115.0,1,1.1752764000002571,1.825636067722309,60,2.0,1002,29,female,False,False,expiration,True,3
2289,106.0,1,0.6577293999998801,0.8041868675042518,61,2.0,1002,29,female,False,False,expiration,True,1
2290,106.0,0,0.6338341999999102,1.9191637241192108,62,2.0,1002,29,female,False,False,expiration,False,1
2298,106.0,1,0.8595439000000624,1.9015141615412423,70,2.0,1002,29,female,False,False,inspiration,True,1
2299,115.0,1,0.7189014000005045,0.33957113561612146,71,2.0,1002,29,female,False,False,expiration,True,3
2300,102.0,0,0.6488422000002174,0.6369462980311899,72,2.0,1002,29,female,False,False,expiration,False,0
2302,102.0,0,0.6872192000000723,0.7057723060579721,74,2.0,1002,29,female,False,False,expiration,False,0
2303,111.0,1,1.0203096000004734,1.8804804940875253,75,2.0,1002,29,female,False,False,expiration,True,2
2304,115.0,1,1.02342039999985,1.0558857391373428,76,2.0,1002,29,female,False,False,inspiration,True,3
2305,106.0,0,0.923895299999458,1.823861903628644,77,2.0,1002,29,female,False,False,expiration,False,1
2306,115.0,0,0.8429695000004358,0.35347874325463857,78,2.0,1002,29,female,False,False,inspiration,False,3
2307,111.0,0,0.6180121999996118,1.0309155879419645,79,2.0,1002,29,female,False,False,expiration,False,2
2413,111.0,1,1.2732675000006566,1.6749532313814433,25,3.0,1002,29,female,False,False,inspiration,True,2
2414,115.0,0,0.8833791000006386,1.48900316520259,26,3.0,1002,29,female,False,False,expiration,False,3
2415,102.0,0,0.9621280000001208,1.254357865842109,27,3.0,1002,29,female,False,False,inspiration,False,0
2416,111.0,0,0.6745017000002917,0.6343155069224006,28,3.0,1002,29,female,False,False,expiration,False,2
2417,102.0,0,0.7722884000004342,1.3801762156248472,29,3.0,1002,29,female,False,False,expiration,False,0
2418,106.0,0,0.8820912000001044,1.927680419099662,30,3.0,1002,29,female,False,False,inspiration,False,1
2419,115.0,1,0.5058705000001282,1.689347085407884,31,3.0,1002,29,female,False,False,expiration,True,3
2420,111.0,1,0.6332453000004534,1.7904930644761732,32,3.0,1002,29,female,False,False,inspiration,True,2
2421,102.0,0,0.7793096999994304,0.8002695198902323,33,3.0,1002,29,female,False,False,expiration,False,0
2422,106.0,1,0.7344419999999445,1.0000171810497829,34,3.0,1002,29,female,False,False,expiration,True,1
2423,106.0,0,0.8718418000007659,1.7563706289362118,35,3.0,1002,29,female,False,False,inspiration,False,1
2424,115.0,0,0.921907700000702,0.6872812794018142,36,3.0,1002,29,female,False,False,expiration,False,3
2425,111.0,1,1.7802842000000965,1.3248101537822696,37,3.0,1002,29,female,False,False,inspiration,True,2
2426,115.0,0,0.8508253999998487,1.5230270109555788,38,3.0,1002,29,female,False,False,expiration,False,3
2427,102.0,0,0.6935671999999613,1.35132148663733,39,3.0,1002,29,female,False,False,inspiration,False,0
2428,106.0,0,0.6460142999994787,1.3445363792164695,40,3.0,1002,29,female,False,False,expiration,False,1
2429,102.0,0,0.8203681999993933,1.1996829956863375,41,3.0,1002,29,female,False,False,inspiration,False,0
2430,102.0,0,0.7251360000000204,1.0317098851778137,42,3.0,1002,29,female,False,False,expiration,False,0
2431,115.0,0,1.0165980000001582,1.6602779225230986,43,3.0,1002,29,female,False,False,inspiration,False,3
2432,111.0,0,0.7693267000004198,1.1896777061826558,44,3.0,1002,29,female,False,False,expiration,False,2
2433,106.0,0,0.7097524000000703,1.5668956382603318,45,3.0,1002,29,female,False,False,inspiration,False,1
2434,111.0,0,1.1964949999992314,1.6520997482673456,46,3.0,1002,29,female,False,False,expiration,False,2
2435,115.0,1,1.4476678000000902,1.6238332956020645,47,3.0,1002,29,female,False,False,expiration,True,3
2436,106.0,0,0.5624427000002471,1.9691307001624991,48,3.0,1002,29,female,False,False,expiration,False,1
2437,115.0,1,0.6744846999999936,0.8123061134766416,49,3.0,1002,29,female,False,False,inspiration,True,3
2438,111.0,1,0.6539242999997441,1.2652872162672573,50,3.0,1002,29,female,False,False,expiration,True,2
2439,102.0,0,1.0923532000006162,0.6761777684296899,51,3.0,1002,29,female,False,False,inspiration,False,0
2440,111.0,1,0.5570191000006162,0.576768360247342,52,3.0,1002,29,female,False,False,expiration,True,2
2441,106.0,1,0.8527493000001414,1.0746244322346277,53,3.0,1002,29,female,False,False,inspiration,True,1
2442,115.0,0,1.2748234000000591,0.7567140629833462,54,3.0,1002,29,female,False,False,expiration,False,3
2443,102.0,0,0.4343541999996887,1.6345223826274071,55,3.0,1002,29,female,False,False,inspiration,False,0
2444,111.0,0,1.1313560999997208,1.3073251385754696,56,3.0,1002,29,female,False,False,inspiration,False,2
2445,111.0,0,0.6669087000000218,1.0185326835778659,57,3.0,1002,29,female,False,False,inspiration,False,2
2446,102.0,0,1.1386286999995718,1.7496508075809645,58,3.0,1002,29,female,False,False,expiration,False,0
2447,115.0,1,0.8513014000000112,1.0145369079575681,59,3.0,1002,29,female,False,False,inspiration,True,3
2448,115.0,1,0.8537034999999378,1.0080985379754512,60,3.0,1002,29,female,False,False,expiration,True,3
2449,106.0,0,1.057187299999896,1.9823224628912903,61,3.0,1002,29,female,False,False,expiration,False,1
2450,106.0,0,0.9109579000005396,1.6585703989915437,62,3.0,1002,29,female,False,False,inspiration,False,1
2451,102.0,0,0.7925058999999237,0.8713928919990517,63,3.0,1002,29,female,False,False,expiration,False,0
2452,106.0,0,0.7234384000003047,1.2827550826593492,64,3.0,1002,29,female,False,False,inspiration,False,1
2453,115.0,1,0.8417903999998089,0.4668697268886154,65,3.0,1002,29,female,False,False,expiration,True,3
2454,111.0,1,0.8136358000001565,1.4352325725513333,66,3.0,1002,29,female,False,False,inspiration,True,2
2455,102.0,1,0.6757230999992316,1.5247088515269402,67,3.0,1002,29,female,False,False,expiration,True,0
2456,102.0,0,0.5811159999993833,1.9184425386727089,68,3.0,1002,29,female,False,False,expiration,False,0
2457,111.0,0,1.3785330000000613,1.1177909333071192,69,3.0,1002,29,female,False,False,inspiration,False,2
2458,106.0,0,0.6043466999999509,0.6709639563041307,70,3.0,1002,29,female,False,False,expiration,False,1
2459,115.0,0,0.7293364999995902,0.32236628328450617,71,3.0,1002,29,female,False,False,expiration,False,3
2460,102.0,0,1.0524104000005536,1.3544987473714003,72,3.0,1002,29,female,False,False,expiration,False,0
2461,106.0,1,0.6648095999998986,0.6039353379511999,73,3.0,1002,29,female,False,False,expiration,True,1
2462,102.0,0,0.7069184000001769,0.3112190632413345,74,3.0,1002,29,female,False,False,inspiration,False,0
2463,111.0,0,1.1456388000005973,1.4574227557836867,75,3.0,1002,29,female,False,False,expiration,False,2
2464,115.0,0,1.040706300000238,0.9780772627960276,76,3.0,1002,29,female,False,False,inspiration,False,3
2465,106.0,0,0.9531733999992866,0.9505471959270412,77,3.0,1002,29,female,False,False,expiration,False,1
2466,115.0,1,0.7211905999993178,0.8323755487037157,78,3.0,1002,29,female,False,False,inspiration,True,3
2467,111.0,1,0.5186493000001065,1.423045327842677,79,3.0,1002,29,female,False,False,expiration,True,2
2650,107.0,1,1.0397382000001016,1.8761673841852675,0,0.0,1001,26,female,False,False,expiration,True,3
2651,87.0,1,1.039809500000047,0.623125543654375,1,0.0,1001,26,female,False,False,expiration,True,0
2652,100.0,1,0.5445427999998174,0.8904630300066547,2,0.0,1001,26,female,False,False,expiration,True,2
2653,107.0,1,0.6010008000000653,1.5935438195075904,3,0.0,1001,26,female,False,False,inspiration,True,3
2654,100.0,1,0.5090540000001056,0.5497681414406399,4,0.0,1001,26,female,False,False,expiration,True,2
2655,93.0,1,0.5587318000000323,1.536695282573058,5,0.0,1001,26,female,False,False,expiration,True,1
2656,87.0,1,0.6408419000001686,0.3714795178027618,6,0.0,1001,26,female,False,False,expiration,True,0
2657,93.0,1,0.6318638000000192,1.9369461920209177,7,0.0,1001,26,female,False,False,expiration,True,1
2658,107.0,1,0.4429589000001215,1.6492010096335148,8,0.0,1001,26,female,False,False,expiration,True,3
2659,93.0,1,0.4001710999998522,0.7971829662780386,9,0.0,1001,26,female,False,False,expiration,True,1
2660,100.0,1,0.6494502000000466,0.9014004445826864,10,0.0,1001,26,female,False,False,expiration,True,2
2661,107.0,1,0.5531780000001163,1.075194306444584,11,0.0,1001,26,female,False,False,inspiration,True,3
2662,100.0,1,0.7336104999999407,1.3385185769529304,12,0.0,1001,26,female,False,False,expiration,True,2
2663,87.0,0,0.6403023000000303,0.7650824799741529,13,0.0,1001,26,female,False,False,expiration,False,0
2664,93.0,0,1.0714308999999955,1.9417921200005683,14,0.0,1001,26,female,False,False,inspiration,False,1
2665,87.0,1,0.6279293000000052,1.9375721988930417,15,0.0,1001,26,female,False,False,inspiration,True,0
2666,107.0,1,0.4806083999999373,0.5198795683446067,16,0.0,1001,26,female,False,False,expiration,True,3
2667,87.0,1,0.720041700000138,1.5695495228523069,17,0.0,1001,26,female,False,False,expiration,True,0
2668,100.0,1,0.4528046000000359,0.8131407404787969,18,0.0,1001,26,female,False,False,inspiration,True,2
2669,100.0,1,0.43585589999997865,0.3368804405180965,19,0.0,1001,26,female,False,False,expiration,True,2
2671,93.0,1,0.6146202999998422,0.9483298495379608,21,0.0,1001,26,female,False,False,inspiration,True,1
2672,87.0,1,0.4579942000000301,0.8829944414779474,22,0.0,1001,26,female,False,False,expiration,True,0
2673,107.0,1,0.6271523000000343,1.4166428244728542,23,0.0,1001,26,female,False,False,expiration,True,3
2674,100.0,1,0.4861863999999514,1.2481352219051118,24,0.0,1001,26,female,False,False,inspiration,True,2
2675,87.0,0,1.0479973999999856,1.9746051363225143,25,0.0,1001,26,female,False,False,inspiration,False,0
2676,107.0,1,0.6407023000001573,1.6087556326691803,26,0.0,1001,26,female,False,False,inspiration,True,3
2677,107.0,1,0.6308217999999215,0.4835155560276617,27,0.0,1001,26,female,False,False,expiration,True,3
2678,93.0,1,0.7548937000001388,0.6907786706597823,28,0.0,1001,26,female,False,False,inspiration,True,1
2679,87.0,1,0.8279121999999006,1.2291916604736208,29,0.0,1001,26,female,False,False,inspiration,True,0
2680,93.0,1,0.7186221000001751,1.4750315681398436,30,0.0,1001,26,female,False,False,expiration,True,1
2681,100.0,1,0.6981014999996661,0.5137376492664014,31,0.0,1001,26,female,False,False,expiration,True,2
2682,87.0,1,0.6834209000003284,0.4111141909205812,32,0.0,1001,26,female,False,False,expiration,True,0
2684,100.0,1,0.5456403000002865,1.5563718276865102,34,0.0,1001,26,female,False,False,inspiration,True,2
2685,107.0,1,0.4969654000001356,0.5003807641236286,35,0.0,1001,26,female,False,False,expiration,True,3
2686,87.0,1,1.8186903000000711,1.5177555097235962,36,0.0,1001,26,female,False,False,inspiration,True,0
2687,100.0,0,1.6978141999998115,0.7427851124571436,37,0.0,1001,26,female,False,False,inspiration,False,2
2688,93.0,0,0.7855730000001131,1.7571108062984933,38,0.0,1001,26,female,False,False,expiration,False,1
2689,93.0,0,0.96607640000002,1.6246542276851312,39,0.0,1001,26,female,False,False,expiration,False,1
2690,100.0,0,0.5737627000003158,0.3520579176599152,40,0.0,1001,26,female,False,False,expiration,False,2
2691,107.0,1,1.4018534000001637,1.4496688450222426,41,0.0,1001,26,female,False,False,expiration,True,3
2692,93.0,1,0.6286350999998831,1.655620654774301,42,0.0,1001,26,female,False,False,expiration,True,1
2693,87.0,1,1.9544473000000842,1.429763807204645,43,0.0,1001,26,female,False,False,expiration,True,0
2694,87.0,0,1.5758762999998908,0.9442872163337348,44,0.0,1001,26,female,False,False,expiration,False,0
2695,93.0,1,0.7154410999996799,0.6757522084952017,45,0.0,1001,26,female,False,False,inspiration,True,1
2696,107.0,1,0.6099586999998792,0.3286638330788585,46,0.0,1001,26,female,False,False,expiration,True,3
2698,87.0,0,0.8660460999999486,0.7356292010425027,48,0.0,1001,26,female,False,False,expiration,False,0
2699,107.0,1,0.7005183000001125,1.3954758911437732,49,0.0,1001,26,female,False,False,inspiration,True,3
2700,100.0,1,0.5789140000001679,0.6332984971077303,50,0.0,1001,26,female,False,False,expiration,True,2
2701,100.0,1,0.3835112000001573,0.8826435516856128,51,0.0,1001,26,female,False,False,expiration,True,2
2702,87.0,1,0.42969159999984186,1.1708556555209555,52,0.0,1001,26,female,False,False,inspiration,True,0
2703,93.0,1,0.4717548000003262,0.3932635906314557,53,0.0,1001,26,female,False,False,expiration,True,1
2705,93.0,1,0.7406246000000465,1.3266754460166206,55,0.0,1001,26,female,False,False,inspiration,True,1
2706,93.0,1,0.5069862000000285,0.6041843419776519,56,0.0,1001,26,female,False,False,expiration,True,1
2707,93.0,1,0.8891054999999142,1.5241654479724032,57,0.0,1001,26,female,False,False,expiration,True,1
2708,107.0,1,0.7701679000001604,1.6961910280077954,58,0.0,1001,26,female,False,False,expiration,True,3
2711,87.0,1,0.6550968000001376,0.8606635807733429,61,0.0,1001,26,female,False,False,expiration,True,0
2712,100.0,1,0.42880719999993744,1.2064465505242088,62,0.0,1001,26,female,False,False,inspiration,True,2
2713,107.0,1,0.5176107000002048,1.9767912964538583,63,0.0,1001,26,female,False,False,expiration,True,3
2714,107.0,1,1.2842977000000246,0.9263151444257685,64,0.0,1001,26,female,False,False,inspiration,True,3
2715,87.0,1,1.4407218999999714,0.6620038248278957,65,0.0,1001,26,female,False,False,expiration,True,0
2716,107.0,1,0.42611940000006143,1.097020286309384,66,0.0,1001,26,female,False,False,expiration,True,3
2718,100.0,1,0.4419523000001391,1.411349444289033,68,0.0,1001,26,female,False,False,expiration,True,2
2719,93.0,1,0.8669806000002609,1.036847783439704,69,0.0,1001,26,female,False,False,inspiration,True,1
2720,87.0,1,0.5540760000003502,0.9751260810161556,70,0.0,1001,26,female,False,False,expiration,True,0
2722,93.0,0,1.1558391999997184,0.652887490091479,72,0.0,1001,26,female,False,False,expiration,False,1
2723,100.0,1,0.5376784999998563,1.517167510811284,73,0.0,1001,26,female,False,False,expiration,True,2
2724,87.0,1,0.7964336000000003,1.9227617413480087,74,0.0,1001,26,female,False,False,expiration,True,0
2725,107.0,1,0.42057040000008783,1.1753553482009629,75,0.0,1001,26,female,False,False,inspiration,True,3
2726,100.0,1,0.26684049999994386,1.4096855491536524,76,0.0,1001,26,female,False,False,expiration,True,2
2727,107.0,1,0.38351929999998907,0.7991017449201229,77,0.0,1001,26,female,False,False,expiration,True,3
2728,87.0,1,0.6809997999998814,1.5014861279560818,78,0.0,1001,26,female,False,False,inspiration,True,0
2729,93.0,1,0.4707895000001372,0.8728842541020563,79,0.0,1001,26,female,False,False,expiration,True,1
2810,107.0,1,0.9396275999997672,1.1840662317304484,0,1.0,1001,26,female,False,False,inspiration,True,3
2811,87.0,0,0.6746554999999717,0.7335053333987125,1,1.0,1001,26,female,False,False,expiration,False,0
2812,100.0,0,0.5064947000000757,0.4231634136573277,2,1.0,1001,26,female,False,False,inspiration,False,2
2813,107.0,0,0.6999329000000216,0.8877382126572371,3,1.0,1001,26,female,False,False,expiration,False,3
2814,100.0,1,1.2005760000001828,1.6584078761979453,4,1.0,1001,26,female,False,False,inspiration,True,2
2815,93.0,0,0.4940458999999464,0.4921093777285082,5,1.0,1001,26,female,False,False,expiration,False,1
2816,87.0,0,0.6647442000003139,1.6778778504812475,6,1.0,1001,26,female,False,False,expiration,False,0
2817,93.0,0,0.7385266000001138,1.0016973725438831,7,1.0,1001,26,female,False,False,expiration,False,1
2818,107.0,0,0.6905940999999984,1.052537163457049,8,1.0,1001,26,female,False,False,inspiration,False,3
2819,93.0,0,0.5754210000000057,1.8734201239214272,9,1.0,1001,26,female,False,False,inspiration,False,1
2820,100.0,0,0.4561315999999351,1.1898491017916113,10,1.0,1001,26,female,False,False,expiration,False,2
2821,107.0,1,1.1508485999997902,1.5179334518130871,11,1.0,1001,26,female,False,False,expiration,True,3
2822,100.0,0,0.47766570000021596,0.6637772041393502,12,1.0,1001,26,female,False,False,inspiration,False,2
2823,87.0,0,0.4723484999999528,0.67975336785566,13,1.0,1001,26,female,False,False,expiration,False,0
2824,93.0,0,0.542131000000154,1.9770850538533369,14,1.0,1001,26,female,False,False,expiration,False,1
2825,87.0,0,0.3835518000000775,1.4732000140910415,15,1.0,1001,26,female,False,False,inspiration,False,0
2826,107.0,1,1.1199116999996477,1.1241958629270026,16,1.0,1001,26,female,False,False,expiration,True,3
2827,87.0,1,0.5807056000003286,1.7846200930240528,17,1.0,1001,26,female,False,False,expiration,True,0
2828,100.0,0,0.8845228000000134,1.1015726565913129,18,1.0,1001,26,female,False,False,expiration,False,2
2829,100.0,1,0.6619104999999763,1.1198717993399958,19,1.0,1001,26,female,False,False,expiration,True,2
2830,93.0,0,0.7676303000002918,1.6756022542554738,20,1.0,1001,26,female,False,False,inspiration,False,1
2831,93.0,0,0.6466924999999719,1.0062063620913777,21,1.0,1001,26,female,False,False,expiration,False,1
2832,87.0,0,0.5254737000000205,1.7561950852520114,22,1.0,1001,26,female,False,False,expiration,False,0
2834,100.0,0,0.4909615999999914,1.30773706411022,24,1.0,1001,26,female,False,False,inspiration,False,2
2835,87.0,0,0.5253875000003063,0.5590166141084542,25,1.0,1001,26,female,False,False,expiration,False,0
2836,107.0,0,0.4001930999997967,0.4590419853159939,26,1.0,1001,26,female,False,False,inspiration,False,3
2837,107.0,0,0.5138855000000149,1.3346252337679263,27,1.0,1001,26,female,False,False,expiration,False,3
2838,93.0,0,0.7649663000001965,1.7053464762958594,28,1.0,1001,26,female,False,False,expiration,False,1
2839,87.0,0,0.702950200000032,1.7716575924045108,29,1.0,1001,26,female,False,False,expiration,False,0
2840,93.0,0,0.5257683999998335,0.9641565074106246,30,1.0,1001,26,female,False,False,inspiration,False,1
2841,100.0,0,0.7122205999999096,1.1118242568814354,31,1.0,1001,26,female,False,False,expiration,False,2
2843,107.0,0,0.688950499999919,0.9454763692981932,33,1.0,1001,26,female,False,False,expiration,False,3
2844,100.0,0,1.1100636000001032,1.59491490260324,34,1.0,1001,26,female,False,False,expiration,False,2
2845,107.0,0,0.7584676999999829,1.9520910270395744,35,1.0,1001,26,female,False,False,expiration,False,3
2847,100.0,1,0.6310281000000941,1.5270532009649267,37,1.0,1001,26,female,False,False,inspiration,True,2
2848,93.0,1,0.7726966999998695,0.8201295102181974,38,1.0,1001,26,female,False,False,expiration,True,1
2849,93.0,0,0.7024883999997655,0.4841072029736633,39,1.0,1001,26,female,False,False,inspiration,False,1
2851,107.0,1,1.2058530999997856,1.1853733686004793,41,1.0,1001,26,female,False,False,expiration,True,3
2852,93.0,1,0.7180002999998578,0.933037803728154,42,1.0,1001,26,female,False,False,inspiration,True,1
2853,87.0,1,0.5307613999998466,0.33781288330718645,43,1.0,1001,26,female,False,False,expiration,True,0
2854,87.0,1,0.5572171000003436,0.5722103203093106,44,1.0,1001,26,female,False,False,expiration,True,0
2856,107.0,1,0.4802488000000267,0.9808687145226664,46,1.0,1001,26,female,False,False,expiration,True,3
2857,100.0,1,0.5942611000000397,0.4887187287219818,47,1.0,1001,26,female,False,False,inspiration,True,2
2858,87.0,1,0.5293849999998201,1.886801807654288,48,1.0,1001,26,female,False,False,inspiration,True,0
2859,107.0,1,0.6761546000002454,1.5787528204488166,49,1.0,1001,26,female,False,False,expiration,True,3
2860,100.0,1,0.4515394999998534,1.4119602089178571,50,1.0,1001,26,female,False,False,expiration,True,2
2861,100.0,1,0.456955999999991,1.9888847965676328,51,1.0,1001,26,female,False,False,expiration,True,2
2862,87.0,0,1.1650669000000562,0.6225744786832779,52,1.0,1001,26,female,False,False,expiration,False,0
2863,93.0,0,0.980771900000036,0.9387359050662925,53,1.0,1001,26,female,False,False,expiration,False,1
2864,107.0,0,0.6618980000002921,0.4262447153953344,54,1.0,1001,26,female,False,False,inspiration,False,3
2865,93.0,0,0.4235781000002135,0.450684372488428,55,1.0,1001,26,female,False,False,expiration,False,1
2866,93.0,0,0.5267165999998724,1.9745217425651256,56,1.0,1001,26,female,False,False,expiration,False,1
2867,93.0,0,0.7890921000002891,1.5793615344573049,57,1.0,1001,26,female,False,False,inspiration,False,1
2868,107.0,0,0.6278260999997656,1.174006816734846,58,1.0,1001,26,female,False,False,expiration,False,3
2869,100.0,0,0.4672513999998955,1.7851325442126431,59,1.0,1001,26,female,False,False,expiration,False,2
2870,87.0,0,0.629106899999897,1.987982634730792,60,1.0,1001,26,female,False,False,expiration,False,0
2871,87.0,0,0.5494054000000688,0.7224859021158305,61,1.0,1001,26,female,False,False,inspiration,False,0
