,stimLvl,dir,response,rt,precedingITI,trialNumber,block,subject,age,gender,manBadOnset,manBadRespons,onset_phase,respons_phase,hit,happy
183,0.2146934650880827,0,0,1.2949664000007033,1.059183733320047,0,0.0,1003,24,female,False,False,expiration,expiration,True,False
184,0.2146934650880827,1,1,0.9337510000004839,1.4116014379852115,1,0.0,1003,24,female,False,False,inspiration,expiration,True,True
185,0.2146934650880827,0,0,0.9574558999993316,0.78846382235076,2,0.0,1003,24,female,False,False,expiration,expiration,True,False
186,0.2146934650880827,1,1,0.8688150000016321,0.4898806410682449,3,0.0,1003,24,female,False,False,inspiration,expiration,True,True
187,0.2146934650880827,0,0,0.8876815000003262,0.6603120603566491,4,0.0,1003,24,female,False,False,expiration,expiration,True,False
188,0.2146934650880827,0,0,0.7182494999997289,0.8883544999543855,5,0.0,1003,24,female,False,False,inspiration,expiration,True,False
189,0.2146934650880827,1,1,0.7487333000008219,1.0408497452886758,6,0.0,1003,24,female,False,False,expiration,expiration,True,True
190,0.2146934650880827,0,0,0.8444220000001224,0.4597919168027499,7,0.0,1003,24,female,False,False,inspiration,expiration,True,False
191,0.2146934650880827,1,1,0.7339988999992784,1.9442707883069168,8,0.0,1003,24,female,False,False,inspiration,inspiration,True,True
192,0.2146934650880827,1,1,0.7276777999995829,1.993796070380713,9,0.0,1003,24,female,False,False,expiration,inspiration,True,True
193,0.2146934650880827,0,0,0.6900786999995034,1.6652932800815428,10,0.0,1003,24,female,False,False,expiration,expiration,True,False
194,0.2146934650880827,1,1,0.7969169999996666,1.6989381156844787,11,0.0,1003,24,female,False,False,inspiration,expiration,True,True
195,0.2146934650880827,1,1,0.9222891000008532,0.7966644294681479,12,0.0,1003,24,female,False,False,expiration,trough,True,True
196,0.2146934650880827,1,1,0.7240746000006766,1.8391169976302133,13,0.0,1003,24,female,False,False,expiration,expiration,True,True
197,0.2146934650880827,0,1,0.8871557999991637,1.2185123836340983,14,0.0,1003,24,female,False,False,inspiration,expiration,False,True
198,0.2146934650880827,0,1,0.75687040000048,1.284520247290757,15,0.0,1003,24,female,False,False,expiration,expiration,False,True
199,0.2146934650880827,1,1,0.7637102999997296,1.8647230248743791,16,0.0,1003,24,female,False,False,expiration,expiration,True,True
200,0.2146934650880827,1,0,1.1817243000004964,0.8249330739626541,17,0.0,1003,24,female,False,False,inspiration,peak,False,False
201,0.2146934650880827,0,0,0.7584593999999925,0.5549099870985325,18,0.0,1003,24,female,False,False,expiration,expiration,True,False
202,0.2146934650880827,0,1,0.9359121999987108,0.935571711630379,19,0.0,1003,24,female,False,False,inspiration,expiration,False,True
203,0.2146934650880827,1,0,2.0730425999990985,1.0093497972611372,20,0.0,1003,24,female,False,False,expiration,inspiration,False,False
204,0.2146934650880827,0,0,1.0566963000001124,0.4886829160567972,21,0.0,1003,24,female,False,False,expiration,expiration,True,False
205,0.2146934650880827,1,1,0.9265317000008508,1.8084629249552864,22,0.0,1003,24,female,False,False,peak,expiration,True,True
206,0.2146934650880827,0,0,0.7869160999998712,0.4303961220146838,23,0.0,1003,24,female,False,False,expiration,inspiration,True,False
207,0.2146934650880827,0,1,1.5359332000007269,1.250441285556565,24,0.0,1003,24,female,False,False,expiration,expiration,False,True
208,0.2146934650880827,1,0,0.7294167000000016,1.80633721227887,25,0.0,1003,24,female,False,False,peak,expiration,False,False
209,0.2146934650880827,1,0,0.848260400000072,1.847540318313031,26,0.0,1003,24,female,False,False,inspiration,inspiration,False,False
210,0.2146934650880827,0,0,0.8976536999998643,1.8467679207073384,27,0.0,1003,24,female,False,False,expiration,trough,True,False
211,0.2146934650880827,1,1,0.665772600001219,1.2371909750767651,28,0.0,1003,24,female,False,False,expiration,expiration,True,True
212,0.2146934650880827,0,0,0.7464854000008927,1.9449874814039123,29,0.0,1003,24,female,False,False,inspiration,peak,True,False
213,0.2146934650880827,1,1,0.6726515000009385,1.895883627485648,30,0.0,1003,24,female,False,False,expiration,inspiration,True,True
214,0.2146934650880827,0,0,0.7954061000000365,0.6987791820927459,31,0.0,1003,24,female,False,False,peak,expiration,True,False
215,0.2146934650880827,1,1,0.751404900000125,1.0854812833841203,32,0.0,1003,24,female,False,False,expiration,inspiration,True,True
216,0.2146934650880827,0,0,0.7028468999997131,1.9482392505015447,33,0.0,1003,24,female,False,False,expiration,expiration,True,False
217,0.2146934650880827,1,1,0.8709517000006599,1.7462304112660334,34,0.0,1003,24,female,False,False,expiration,expiration,True,True
219,0.2146934650880827,1,1,1.1139401999989786,0.5756901091293487,36,0.0,1003,24,female,False,False,inspiration,expiration,True,True
220,0.2146934650880827,0,0,1.1742358000010429,0.9424287487699442,37,0.0,1003,24,female,False,False,expiration,inspiration,True,False
221,0.2146934650880827,1,0,1.0436909000000014,1.4818754277020132,38,0.0,1003,24,female,False,False,expiration,expiration,False,False
222,0.2146934650880827,0,0,0.9430236999996848,0.31334840182303325,39,0.0,1003,24,female,False,False,trough,inspiration,True,False
223,0.2146934650880827,0,0,0.7294492000000901,0.30499819586332616,40,0.0,1003,24,female,False,False,expiration,expiration,True,False
224,0.2146934650880827,1,1,0.6720982000006188,0.4401172597143518,41,0.0,1003,24,female,False,False,expiration,expiration,True,True
225,0.2146934650880827,0,0,0.7391906000011659,0.90798715465728,42,0.0,1003,24,female,False,False,inspiration,expiration,True,False
226,0.2146934650880827,1,1,0.6470974999992904,1.9275343758907844,43,0.0,1003,24,female,False,False,inspiration,inspiration,True,True
227,0.2146934650880827,1,1,0.7883810999992421,1.9209550489757945,44,0.0,1003,24,female,False,False,expiration,inspiration,True,True
228,0.2146934650880827,0,1,1.1969100999995137,1.9230813930942177,45,0.0,1003,24,female,False,False,expiration,inspiration,False,True
229,0.2146934650880827,0,1,1.0602878999998209,0.6982547748113768,46,0.0,1003,24,female,False,False,peak,expiration,False,True
230,0.2146934650880827,1,0,1.4455109999998967,0.5919966949169995,47,0.0,1003,24,female,False,False,expiration,inspiration,False,False
231,0.2146934650880827,0,0,1.0001176000005216,0.5626598608372455,48,0.0,1003,24,female,False,False,peak,expiration,True,False
232,0.2146934650880827,1,1,0.7428421000004164,0.9336136300915928,49,0.0,1003,24,female,False,False,trough,inspiration,True,True
233,0.2146934650880827,1,0,0.92893450000156,0.491410730893449,50,0.0,1003,24,female,False,False,expiration,expiration,False,False
234,0.2146934650880827,1,1,0.7720152000001691,1.1194519948488808,51,0.0,1003,24,female,False,False,expiration,inspiration,True,True
235,0.2146934650880827,1,1,1.0708562999989226,0.6466125641237273,52,0.0,1003,24,female,False,False,expiration,expiration,True,True
236,0.2146934650880827,1,1,0.9568962000012108,1.5974674584337862,53,0.0,1003,24,female,False,False,inspiration,expiration,True,True
237,0.2146934650880827,0,0,1.1059485000005225,0.3269452788571167,54,0.0,1003,24,female,False,False,expiration,inspiration,True,False
238,0.2146934650880827,0,1,0.7813224999990781,1.6342487963532717,55,0.0,1003,24,female,False,False,expiration,expiration,False,True
239,0.2146934650880827,0,0,1.391798700000436,1.965229991687584,56,0.0,1003,24,female,False,False,inspiration,expiration,True,False
240,0.2146934650880827,1,0,0.9320168000012928,0.8921980829680403,57,0.0,1003,24,female,False,False,expiration,expiration,False,False
241,0.2146934650880827,0,0,0.9029601000002004,0.5171649061076652,58,0.0,1003,24,female,False,False,expiration,expiration,True,False
242,0.2146934650880827,0,1,1.3987261000002036,1.2995292798271263,59,0.0,1003,24,female,False,False,inspiration,expiration,False,True
243,0.2146934650880827,0,0,0.8731384000002436,1.410628104808507,60,0.0,1003,24,female,False,False,expiration,inspiration,True,False
244,0.2146934650880827,1,1,0.802167300000292,1.6667250158580835,61,0.0,1003,24,female,False,False,expiration,expiration,True,True
245,0.2146934650880827,0,0,0.9633478000014292,0.6889773827733825,62,0.0,1003,24,female,False,False,expiration,inspiration,True,False
246,0.2146934650880827,1,1,1.0937220999985584,0.6416055034992032,63,0.0,1003,24,female,False,False,expiration,expiration,True,True
247,0.2146934650880827,1,1,0.7923805999998876,1.8141930986769688,64,0.0,1003,24,female,False,False,inspiration,expiration,True,True
248,0.2146934650880827,0,0,0.9365670000006504,1.3692523998853592,65,0.0,1003,24,female,False,False,expiration,trough,True,False
249,0.2146934650880827,1,1,0.9710104000005232,0.9088007242680044,66,0.0,1003,24,female,False,False,inspiration,expiration,True,True
250,0.2146934650880827,0,0,1.1064546999987217,1.7845649804937258,67,0.0,1003,24,female,False,False,inspiration,inspiration,True,False
251,0.2146934650880827,1,1,0.9762394999997924,0.8137454187550737,68,0.0,1003,24,female,False,False,expiration,expiration,True,True
252,0.2146934650880827,0,0,0.6789516000008007,1.1018698209812008,69,0.0,1003,24,female,False,False,inspiration,expiration,True,False
253,0.2146934650880827,1,0,1.1657252999993943,1.5405181071842395,70,0.0,1003,24,female,False,False,expiration,inspiration,False,False
254,0.2146934650880827,0,1,0.8200082000003022,1.2209697793984655,71,0.0,1003,24,female,False,False,expiration,expiration,False,True
255,0.2146934650880827,0,1,1.1725294000007125,0.36835035663407617,72,0.0,1003,24,female,False,False,inspiration,expiration,False,True
256,0.2146934650880827,0,0,1.0092771999989054,1.141034795965546,73,0.0,1003,24,female,False,False,expiration,inspiration,True,False
257,0.2146934650880827,0,0,0.7430743999993865,1.1107613059708594,74,0.0,1003,24,female,False,False,expiration,expiration,True,False
258,0.2146934650880827,0,1,1.3139080000000831,1.9772396244734816,75,0.0,1003,24,female,False,False,expiration,expiration,False,True
259,0.2146934650880827,1,1,0.7965889000006428,1.1118107170025815,76,0.0,1003,24,female,False,False,inspiration,expiration,True,True
260,0.2146934650880827,1,1,0.950312800001484,0.6322054853604426,77,0.0,1003,24,female,False,False,expiration,inspiration,True,True
261,0.2146934650880827,1,1,0.6657439999999042,1.598576267187022,78,0.0,1003,24,female,False,False,expiration,expiration,True,True
262,0.2146934650880827,1,1,0.7195097999992868,0.30874440228357275,79,0.0,1003,24,female,False,False,expiration,inspiration,True,True
343,0.2146934650880827,1,1,0.7386121999988973,1.6954243328401213,0,1.0,1003,24,female,False,False,expiration,expiration,True,True
344,0.2146934650880827,1,1,1.4350592000009783,1.1239689541519209,1,1.0,1003,24,female,False,False,inspiration,expiration,True,True
345,0.2146934650880827,0,0,0.7837884999989909,1.0317575787714452,2,1.0,1003,24,female,False,False,trough,inspiration,True,False
346,0.2146934650880827,0,1,0.8791996999989351,1.3625174541077505,3,1.0,1003,24,female,False,False,expiration,expiration,False,True
347,0.2146934650880827,1,1,0.7309395000011136,0.6022079426228839,4,1.0,1003,24,female,False,False,inspiration,inspiration,True,True
348,0.2146934650880827,0,1,0.7403649999996559,1.5853923359145132,5,1.0,1003,24,female,False,False,expiration,trough,False,True
349,0.2146934650880827,1,1,0.8361004999987927,1.034674468686522,6,1.0,1003,24,female,False,False,expiration,expiration,True,True
350,0.2146934650880827,1,0,1.4618812000007892,1.6857340582367577,7,1.0,1003,24,female,False,False,inspiration,expiration,False,False
352,0.2146934650880827,0,1,1.2457867000011902,0.6184090076232933,9,1.0,1003,24,female,False,False,expiration,inspiration,False,True
353,0.2146934650880827,0,1,0.9272829999990791,0.9694495725530649,10,1.0,1003,24,female,False,False,expiration,expiration,False,True
354,0.2146934650880827,0,0,0.6669196000002557,0.8578722426477186,11,1.0,1003,24,female,False,False,inspiration,inspiration,True,False
355,0.2146934650880827,0,1,0.6887134999997215,1.8048894640386528,12,1.0,1003,24,female,False,False,expiration,trough,False,True
356,0.2146934650880827,0,1,0.6830668000002333,0.6089995171710705,13,1.0,1003,24,female,False,False,inspiration,expiration,False,True
357,0.2146934650880827,1,1,0.7081735000010667,1.9637309884993817,14,1.0,1003,24,female,False,False,inspiration,expiration,True,True
358,0.2146934650880827,1,1,0.7740073000004486,1.7134211789460394,15,1.0,1003,24,female,False,False,expiration,inspiration,True,True
359,0.2146934650880827,1,1,0.6673737999990408,1.2885513652354657,16,1.0,1003,24,female,False,False,expiration,expiration,True,True
360,0.2146934650880827,1,1,0.6530665999998746,0.5983043195866995,17,1.0,1003,24,female,False,False,expiration,inspiration,True,True
361,0.2146934650880827,0,0,0.932866400000421,1.4553470428251,18,1.0,1003,24,female,False,False,expiration,expiration,True,False
362,0.2146934650880827,1,1,0.8349355999998807,0.4992524926739516,19,1.0,1003,24,female,False,False,expiration,inspiration,True,True
363,0.2146934650880827,1,1,0.8403123999996751,0.5241655591864869,20,1.0,1003,24,female,False,False,peak,expiration,True,True
364,0.2146934650880827,0,0,0.7543473999994603,0.44543351194334735,21,1.0,1003,24,female,False,False,expiration,expiration,True,False
365,0.2146934650880827,1,1,0.8431639999998879,1.9631283726409203,22,1.0,1003,24,female,False,False,expiration,expiration,True,True
366,0.2146934650880827,0,0,0.9102624000006472,1.2898417802125697,23,1.0,1003,24,female,False,False,inspiration,peak,True,False
367,0.2146934650880827,0,0,1.2933981999995012,1.41332517503697,24,1.0,1003,24,female,False,False,expiration,inspiration,True,False
368,0.2146934650880827,1,1,1.019128300000375,1.9247693969634485,25,1.0,1003,24,female,False,False,expiration,expiration,True,True
369,0.2146934650880827,1,0,1.055891199999678,1.5565326393863157,26,1.0,1003,24,female,False,False,expiration,expiration,False,False
370,0.2146934650880827,0,0,0.8856475000011415,1.7112420241078543,27,1.0,1003,24,female,False,False,inspiration,expiration,True,False
371,0.2146934650880827,1,1,0.8081154000010429,0.8649801445186003,28,1.0,1003,24,female,False,False,expiration,trough,True,True
372,0.2146934650880827,0,0,0.7501647000008234,1.4199178333090396,29,1.0,1003,24,female,False,False,expiration,expiration,True,False
373,0.2146934650880827,0,1,1.5829245000004448,0.9179098247931898,30,1.0,1003,24,female,False,False,inspiration,expiration,False,True
374,0.2146934650880827,0,0,1.1543466999992231,1.91501552306319,31,1.0,1003,24,female,False,False,inspiration,expiration,True,False
375,0.2146934650880827,1,1,1.027836199999001,1.4568233282982468,32,1.0,1003,24,female,False,False,inspiration,peak,True,True
376,0.2146934650880827,1,1,0.8995842000003904,0.8938841336795511,33,1.0,1003,24,female,False,False,expiration,inspiration,True,True
377,0.2146934650880827,1,1,1.0273123999995732,1.277132257348914,34,1.0,1003,24,female,False,False,expiration,expiration,True,True
379,0.2146934650880827,0,0,1.0176372000005358,1.2636014770008033,36,1.0,1003,24,female,False,False,expiration,expiration,True,False
380,0.2146934650880827,1,1,0.8129693999999291,0.4868232458323516,37,1.0,1003,24,female,False,False,inspiration,inspiration,True,True
381,0.2146934650880827,0,0,0.8276781000004121,1.0984103204973372,38,1.0,1003,24,female,False,False,expiration,expiration,True,False
382,0.2146934650880827,1,1,0.6354138999995484,0.3265325603612745,39,1.0,1003,24,female,False,False,inspiration,inspiration,True,True
383,0.2146934650880827,1,0,0.8752705000006245,0.4364500591021076,40,1.0,1003,24,female,False,False,expiration,expiration,False,False
385,0.2146934650880827,0,0,0.8430895999990753,0.8227622091183713,42,1.0,1003,24,female,False,False,expiration,inspiration,True,False
386,0.2146934650880827,0,0,0.9574654000007286,1.9135030542307685,43,1.0,1003,24,female,False,False,expiration,inspiration,True,False
387,0.2146934650880827,1,1,0.6625254999999015,0.7817490229139321,44,1.0,1003,24,female,False,False,inspiration,expiration,True,True
388,0.2146934650880827,0,0,0.6075519999994867,0.3738937910349259,45,1.0,1003,24,female,False,False,expiration,expiration,True,False
389,0.2146934650880827,0,0,0.8787275999984558,0.5302469374609092,46,1.0,1003,24,female,False,False,inspiration,inspiration,True,False
390,0.2146934650880827,1,1,0.6931107000000338,1.5336780724140315,47,1.0,1003,24,female,False,False,expiration,expiration,True,True
391,0.2146934650880827,1,1,0.6348159999997733,1.1773468161679568,48,1.0,1003,24,female,False,False,inspiration,expiration,True,True
392,0.2146934650880827,0,0,1.0288354999993317,0.8007770811609791,49,1.0,1003,24,female,False,False,expiration,inspiration,True,False
393,0.2146934650880827,1,1,0.903318600001512,1.6310859916521665,50,1.0,1003,24,female,False,False,expiration,expiration,True,True
394,0.2146934650880827,0,1,0.6757859999997889,1.4985605042604269,51,1.0,1003,24,female,False,False,inspiration,expiration,False,True
395,0.2146934650880827,0,0,1.2045391999999993,0.4463187726459631,52,1.0,1003,24,female,False,False,expiration,expiration,True,False
396,0.2146934650880827,0,0,0.8699058999991394,0.8083614116325819,53,1.0,1003,24,female,False,False,inspiration,expiration,True,False
397,0.2146934650880827,1,0,0.8926294000011694,0.8498332118287268,54,1.0,1003,24,female,False,False,expiration,inspiration,False,False
398,0.2146934650880827,1,1,0.7724008999994112,1.8780694780209541,55,1.0,1003,24,female,False,False,expiration,expiration,True,True
399,0.2146934650880827,0,0,0.8598458999986178,1.5741014295403486,56,1.0,1003,24,female,False,False,expiration,expiration,True,False
400,0.2146934650880827,0,1,0.8075172000008024,1.2105443608252116,57,1.0,1003,24,female,False,False,inspiration,inspiration,False,True
401,0.2146934650880827,1,0,0.8486648999987665,0.9785379662733378,58,1.0,1003,24,female,False,False,expiration,expiration,False,False
402,0.2146934650880827,1,1,0.7117069000014453,0.4858853364057392,59,1.0,1003,24,female,False,False,inspiration,inspiration,True,True
403,0.2146934650880827,1,1,2.286857200000668,1.8788193435211038,60,1.0,1003,24,female,False,True,expiration,expiration,True,True
404,0.2146934650880827,1,1,1.0673258000006172,1.7684945963561378,61,1.0,1003,24,female,True,True,inspiration,inspiration,True,True
405,0.2146934650880827,1,1,0.6714530999997805,0.6150593883097375,62,1.0,1003,24,female,True,True,expiration,inspiration,True,True
406,0.2146934650880827,0,1,0.6618581000002449,1.974016548031972,63,1.0,1003,24,female,True,True,expiration,expiration,False,True
407,0.2146934650880827,0,0,0.893935899999633,1.808721423379,64,1.0,1003,24,female,False,False,expiration,expiration,True,False
408,0.2146934650880827,1,1,0.6933752000004461,1.5564081611972251,65,1.0,1003,24,female,False,False,inspiration,expiration,True,True
409,0.2146934650880827,0,0,0.9577953000007255,1.669848006922266,66,1.0,1003,24,female,False,False,expiration,inspiration,True,False
410,0.2146934650880827,0,1,0.802564399999028,0.9576188570354132,67,1.0,1003,24,female,False,False,expiration,expiration,False,True
411,0.2146934650880827,0,0,0.9669567000000824,0.9628364028433058,68,1.0,1003,24,female,False,False,trough,inspiration,True,False
412,0.2146934650880827,1,1,0.7414946000008058,1.68927346001372,69,1.0,1003,24,female,False,False,expiration,trough,True,True
413,0.2146934650880827,0,1,1.371488999999201,1.3104443178275726,70,1.0,1003,24,female,False,False,expiration,expiration,False,True
414,0.2146934650880827,0,0,0.6409929000001284,1.3314929153239752,71,1.0,1003,24,female,False,False,inspiration,expiration,True,False
415,0.2146934650880827,0,0,1.1556297999995877,1.4431553276530666,72,1.0,1003,24,female,False,False,expiration,inspiration,True,False
416,0.2146934650880827,1,1,0.7317789000007906,1.5388393990609317,73,1.0,1003,24,female,False,False,expiration,expiration,True,True
417,0.2146934650880827,1,1,0.6851910999994288,1.356823708358638,74,1.0,1003,24,female,False,False,inspiration,expiration,True,True
418,0.2146934650880827,0,1,0.7392337000001135,0.9143036191051128,75,1.0,1003,24,female,False,False,expiration,expiration,False,True
419,0.2146934650880827,1,1,0.6663339999995515,0.9029211697057962,76,1.0,1003,24,female,False,False,inspiration,inspiration,True,True
420,0.2146934650880827,0,1,0.6377883999994083,0.6984399083257242,77,1.0,1003,24,female,False,False,expiration,expiration,False,True
421,0.2146934650880827,1,1,0.7171471999990899,1.3609134279230282,78,1.0,1003,24,female,False,False,expiration,expiration,True,True
422,0.2146934650880827,1,1,0.575396100000944,1.967295754549212,79,1.0,1003,24,female,False,False,expiration,expiration,True,True
503,0.2146934650880827,1,1,0.7815439000005426,0.8198322325659384,0,2.0,1003,24,female,False,False,expiration,expiration,True,True
504,0.2146934650880827,1,0,1.0752657999983055,1.1494226059749424,1,2.0,1003,24,female,False,False,inspiration,expiration,False,False
505,0.2146934650880827,0,0,1.0029056999992465,1.8247314709460487,2,2.0,1003,24,female,False,False,inspiration,expiration,True,False
506,0.2146934650880827,0,0,0.9821582000004128,0.603652466271016,3,2.0,1003,24,female,False,False,expiration,inspiration,True,False
507,0.2146934650880827,1,1,0.7159226999992825,1.7372786316073785,4,2.0,1003,24,female,False,False,expiration,expiration,True,True
508,0.2146934650880827,0,0,0.7154421999985061,1.4440443429996686,5,2.0,1003,24,female,False,False,inspiration,expiration,True,False
509,0.2146934650880827,1,1,0.5810853999992105,1.0176085766781358,6,2.0,1003,24,female,False,False,expiration,inspiration,True,True
510,0.2146934650880827,1,0,0.9008905999999116,1.6908290703159998,7,2.0,1003,24,female,False,False,expiration,expiration,False,False
511,0.2146934650880827,0,0,0.7836088000003656,1.313326670193703,8,2.0,1003,24,female,False,False,inspiration,expiration,True,False
512,0.2146934650880827,0,0,1.1717521999999008,1.2967956214426373,9,2.0,1003,24,female,False,False,trough,inspiration,True,False
513,0.2146934650880827,0,0,1.2954724999999598,1.2091793637148276,10,2.0,1003,24,female,False,False,expiration,inspiration,True,False
514,0.2146934650880827,0,0,1.5065351000012015,0.3254203654857473,11,2.0,1003,24,female,False,False,inspiration,expiration,True,False
515,0.2146934650880827,0,1,0.7013764999992418,1.4070630462760978,12,2.0,1003,24,female,False,False,inspiration,inspiration,False,True
516,0.2146934650880827,0,1,2.0973995000003924,0.4375016342907849,13,2.0,1003,24,female,False,False,expiration,inspiration,False,True
517,0.2146934650880827,1,0,1.5288882999993805,1.900650857495532,14,2.0,1003,24,female,False,False,expiration,inspiration,False,False
518,0.2146934650880827,1,1,0.7661330999999336,1.4061630692100713,15,2.0,1003,24,female,False,False,expiration,expiration,True,True
519,0.2146934650880827,1,0,0.7516945999996096,0.5609705228084501,16,2.0,1003,24,female,False,False,inspiration,inspiration,False,False
520,0.2146934650880827,1,1,0.6608265999984724,0.9934524070466936,17,2.0,1003,24,female,False,False,expiration,expiration,True,True
521,0.2146934650880827,0,1,1.150941399999283,0.7303522273945606,18,2.0,1003,24,female,False,False,inspiration,expiration,False,True
522,0.2146934650880827,1,1,1.192941299999802,1.838215265327932,19,2.0,1003,24,female,False,False,inspiration,expiration,True,True
523,0.2146934650880827,1,1,0.7463668000000325,1.9615676836665559,20,2.0,1003,24,female,False,False,inspiration,expiration,True,True
524,0.2146934650880827,0,1,0.6878962000009778,1.1959914232448778,21,2.0,1003,24,female,False,False,expiration,inspiration,False,True
525,0.2146934650880827,1,1,0.8958586999997351,0.4443879662898701,22,2.0,1003,24,female,False,False,inspiration,expiration,True,True
526,0.2146934650880827,0,1,0.9600207000003138,1.9329756009322232,23,2.0,1003,24,female,False,False,inspiration,peak,False,True
527,0.2146934650880827,0,1,0.6931019999992714,1.9244381275325435,24,2.0,1003,24,female,False,False,expiration,inspiration,False,True
528,0.2146934650880827,1,1,1.0561443000005966,1.2489020344667123,25,2.0,1003,24,female,False,False,expiration,expiration,True,True
529,0.2146934650880827,1,1,0.7576281999990897,0.5047194019865278,26,2.0,1003,24,female,False,False,expiration,inspiration,True,True
530,0.2146934650880827,0,0,0.8596616000013455,1.924313481938356,27,2.0,1003,24,female,False,False,expiration,expiration,True,False
531,0.2146934650880827,1,1,1.0267440999996325,0.4194427797544045,28,2.0,1003,24,female,False,False,trough,inspiration,True,True
532,0.2146934650880827,0,1,0.9267882999993162,0.8528826297401517,29,2.0,1003,24,female,False,False,expiration,expiration,False,True
533,0.2146934650880827,0,1,1.3583390000003421,1.3178730384413453,30,2.0,1003,24,female,False,False,inspiration,expiration,False,True
534,0.2146934650880827,0,1,1.9584795999999187,1.6316171024574857,31,2.0,1003,24,female,False,False,inspiration,expiration,False,True
535,0.2146934650880827,1,1,0.8971615999998903,1.4936994542649291,32,2.0,1003,24,female,False,False,inspiration,expiration,True,True
536,0.2146934650880827,1,0,1.7509380999999848,0.6817386042872995,33,2.0,1003,24,female,False,False,expiration,inspiration,False,False
537,0.2146934650880827,1,1,0.9653127000001404,0.4044228809051145,34,2.0,1003,24,female,False,False,inspiration,expiration,True,True
539,0.2146934650880827,0,0,1.1764084000005823,1.2718993083298953,36,2.0,1003,24,female,False,False,expiration,inspiration,True,False
540,0.2146934650880827,1,1,0.8229957000003196,0.4029890778679057,37,2.0,1003,24,female,False,False,inspiration,expiration,True,True
541,0.2146934650880827,0,0,0.7773686000000453,0.5805810020118027,38,2.0,1003,24,female,False,False,expiration,trough,True,False
542,0.2146934650880827,1,1,0.7557343999997101,0.8396276411951009,39,2.0,1003,24,female,False,False,inspiration,expiration,True,True
543,0.2146934650880827,1,1,0.8912631999992299,1.6095548988654462,40,2.0,1003,24,female,False,False,inspiration,inspiration,True,True
544,0.2146934650880827,1,1,0.9059496999998372,1.0350173834154641,41,2.0,1003,24,female,False,False,expiration,trough,True,True
545,0.2146934650880827,0,0,1.1407457000004797,1.6649934445195438,42,2.0,1003,24,female,False,False,expiration,expiration,True,False
546,0.2146934650880827,0,0,0.8525206999984221,1.480529956278117,43,2.0,1003,24,female,False,False,inspiration,expiration,True,False
547,0.2146934650880827,1,1,1.4842033000004449,1.5621128663768966,44,2.0,1003,24,female,False,False,inspiration,expiration,True,True
548,0.2146934650880827,0,0,0.7610393999984808,0.7831929413849679,45,2.0,1003,24,female,False,False,expiration,inspiration,True,False
549,0.2146934650880827,0,1,0.7350736000007599,1.178474200836258,46,2.0,1003,24,female,False,False,expiration,expiration,False,True
550,0.2146934650880827,1,1,0.6901182000001427,0.6631311133933627,47,2.0,1003,24,female,False,False,expiration,trough,True,True
551,0.2146934650880827,1,1,0.7448750999992626,0.9234885825811988,48,2.0,1003,24,female,False,False,peak,expiration,True,True
552,0.2146934650880827,0,0,0.7770243999984814,1.8462257946787743,49,2.0,1003,24,female,False,False,inspiration,inspiration,True,False
553,0.2146934650880827,1,1,0.862692300001072,0.3356404538369069,50,2.0,1003,24,female,False,False,inspiration,expiration,True,True
554,0.2146934650880827,0,0,0.7187202999994042,0.3745376439693682,51,2.0,1003,24,female,False,False,expiration,trough,True,False
555,0.2146934650880827,0,0,0.7205217000009725,1.8597572930701909,52,2.0,1003,24,female,False,False,expiration,expiration,True,False
556,0.2146934650880827,0,0,0.6539529000001494,0.8305551842654351,53,2.0,1003,24,female,False,False,trough,inspiration,True,False
557,0.2146934650880827,1,1,0.7243587000011757,1.4472031446758815,54,2.0,1003,24,female,False,False,expiration,expiration,True,True
558,0.2146934650880827,1,1,0.7254799000002095,1.007174343884133,55,2.0,1003,24,female,False,False,inspiration,peak,True,True
559,0.2146934650880827,0,0,0.6675245999995241,1.1584198324343384,56,2.0,1003,24,female,False,False,expiration,expiration,True,False
560,0.2146934650880827,0,0,1.2496123999990232,1.1675529158923068,57,2.0,1003,24,female,False,False,inspiration,expiration,True,False
561,0.2146934650880827,1,1,0.7683696999993117,1.4712411703066397,58,2.0,1003,24,female,False,False,inspiration,expiration,True,True
562,0.2146934650880827,1,1,0.6444869000006292,1.2022271009216945,59,2.0,1003,24,female,False,False,expiration,expiration,True,True
563,0.2146934650880827,1,1,0.6806039000002784,1.991721520610352,60,2.0,1003,24,female,False,False,expiration,expiration,True,True
564,0.2146934650880827,1,1,1.0379813999988985,0.9085632307363544,61,2.0,1003,24,female,False,False,inspiration,expiration,True,True
565,0.2146934650880827,1,1,0.6556875000005675,1.2384906544182286,62,2.0,1003,24,female,False,False,expiration,inspiration,True,True
566,0.2146934650880827,0,0,0.7788012000000891,0.8245593525836756,63,2.0,1003,24,female,False,False,inspiration,expiration,True,False
567,0.2146934650880827,0,0,0.7005972000006295,1.6910267537289585,64,2.0,1003,24,female,False,False,expiration,inspiration,True,False
568,0.2146934650880827,1,1,0.642274499999985,0.3730852336192485,65,2.0,1003,24,female,False,False,peak,expiration,True,True
569,0.2146934650880827,0,0,0.7336446999997861,0.31410598405179024,66,2.0,1003,24,female,False,False,expiration,expiration,True,False
570,0.2146934650880827,0,0,0.7670224999983475,0.3366712366817171,67,2.0,1003,24,female,False,False,inspiration,inspiration,True,False
571,0.2146934650880827,0,0,0.7233993999998347,0.6825890835931858,68,2.0,1003,24,female,False,False,expiration,expiration,True,False
572,0.2146934650880827,1,0,0.7715057999994315,1.5095993392147693,69,2.0,1003,24,female,False,False,inspiration,expiration,False,False
573,0.2146934650880827,0,0,1.0109549999997398,0.3298590916510393,70,2.0,1003,24,female,False,False,expiration,expiration,True,False
574,0.2146934650880827,0,0,0.7436813000003895,1.5086631239606816,71,2.0,1003,24,female,False,False,expiration,expiration,True,False
575,0.2146934650880827,0,1,0.8691492999987531,1.604729793931337,72,2.0,1003,24,female,False,False,inspiration,expiration,False,True
576,0.2146934650880827,1,1,0.7838675000002695,0.4085157161978597,73,2.0,1003,24,female,False,False,expiration,expiration,True,True
577,0.2146934650880827,1,1,0.7865578000000824,0.4217950103935347,74,2.0,1003,24,female,False,False,expiration,inspiration,True,True
578,0.2146934650880827,0,0,0.8803350999987742,1.0691024378978429,75,2.0,1003,24,female,False,False,expiration,expiration,True,False
579,0.2146934650880827,1,1,0.9350690000010218,1.427304223476929,76,2.0,1003,24,female,False,False,inspiration,expiration,True,True
580,0.2146934650880827,0,1,0.8724445999996533,1.3715910508252835,77,2.0,1003,24,female,False,False,inspiration,inspiration,False,True
581,0.2146934650880827,1,1,0.7034105000002455,1.9044561765056585,78,2.0,1003,24,female,False,False,trough,inspiration,True,True
582,0.2146934650880827,1,1,0.8180657000011706,1.562859215077331,79,2.0,1003,24,female,False,False,expiration,expiration,True,True
663,0.2146934650880827,1,1,0.7194445000004634,0.3297887701817056,0,3.0,1003,24,female,False,False,expiration,expiration,True,True
664,0.2146934650880827,1,1,0.824930000000677,1.3478384805253292,1,3.0,1003,24,female,False,False,trough,inspiration,True,True
665,0.2146934650880827,0,1,0.86929229999987,1.7802118569556638,2,3.0,1003,24,female,False,False,expiration,expiration,False,True
666,0.2146934650880827,0,0,0.6033837000013591,0.4775723927947402,3,3.0,1003,24,female,False,False,expiration,expiration,True,False
667,0.2146934650880827,1,0,0.7061023000005662,0.7080508988186032,4,3.0,1003,24,female,False,False,inspiration,expiration,False,False
668,0.2146934650880827,0,1,0.8834683999994013,1.3468140761958058,5,3.0,1003,24,female,False,False,expiration,expiration,False,True
669,0.2146934650880827,1,1,0.6971976999993785,0.3814008905087194,6,3.0,1003,24,female,False,False,expiration,inspiration,True,True
670,0.2146934650880827,1,1,1.320657899999787,1.8997912204598928,7,3.0,1003,24,female,False,False,expiration,inspiration,True,True
671,0.2146934650880827,0,0,0.7168204999998125,1.80514581385722,8,3.0,1003,24,female,False,False,expiration,expiration,True,False
672,0.2146934650880827,0,0,1.073873100000128,0.3689119458663158,9,3.0,1003,24,female,False,False,inspiration,peak,True,False
673,0.2146934650880827,0,0,1.0185759000014514,1.6434064652981053,10,3.0,1003,24,female,False,False,expiration,inspiration,True,False
674,0.2146934650880827,0,0,0.8084058000004006,1.4468754677303566,11,3.0,1003,24,female,False,False,expiration,expiration,True,False
675,0.2146934650880827,0,1,0.5925574000011693,1.174104145374419,12,3.0,1003,24,female,False,False,inspiration,peak,False,True
676,0.2146934650880827,0,1,0.8669171000001371,1.5937605042573924,13,3.0,1003,24,female,False,False,expiration,inspiration,False,True
677,0.2146934650880827,1,1,0.7663642999996227,1.89339745120958,14,3.0,1003,24,female,False,False,expiration,trough,True,True
678,0.2146934650880827,1,1,1.1793524000004254,0.7301779102548103,15,3.0,1003,24,female,False,False,inspiration,expiration,True,True
679,0.2146934650880827,1,0,0.6658772999999201,1.524631848841144,16,3.0,1003,24,female,False,False,inspiration,expiration,False,False
680,0.2146934650880827,1,1,0.7126099999986764,1.5380905270081382,17,3.0,1003,24,female,False,False,expiration,inspiration,True,True
681,0.2146934650880827,0,1,0.8369934000002104,1.4104111677945381,18,3.0,1003,24,female,False,False,expiration,expiration,False,True
682,0.2146934650880827,1,1,0.6661067000004549,0.8957218308514292,19,3.0,1003,24,female,False,False,inspiration,inspiration,True,True
683,0.2146934650880827,1,1,0.7468368999998347,1.1373876101042542,20,3.0,1003,24,female,False,False,expiration,expiration,True,True
684,0.2146934650880827,0,1,0.6414033999990352,1.4707950775666254,21,3.0,1003,24,female,False,False,expiration,expiration,False,True
685,0.2146934650880827,1,1,0.8059787999991386,0.7242014488622666,22,3.0,1003,24,female,False,False,expiration,expiration,True,True
686,0.2146934650880827,0,0,0.7800867999994807,1.4690232281143678,23,3.0,1003,24,female,False,False,expiration,expiration,True,False
687,0.2146934650880827,0,1,1.2955308999989938,1.8747596997649825,24,3.0,1003,24,female,False,False,inspiration,expiration,False,True
688,0.2146934650880827,1,1,0.963020499999402,1.1663381043925904,25,3.0,1003,24,female,False,False,expiration,inspiration,True,True
689,0.2146934650880827,1,1,0.9037274000002072,1.173777405450332,26,3.0,1003,24,female,False,False,expiration,expiration,True,True
690,0.2146934650880827,0,0,0.8224636000013561,1.8109526221362835,27,3.0,1003,24,female,False,False,expiration,expiration,True,False
691,0.2146934650880827,1,1,0.7312450000008539,1.5927021248215012,28,3.0,1003,24,female,False,False,inspiration,peak,True,True
692,0.2146934650880827,0,0,1.3656872999999905,1.6295483742907804,29,3.0,1003,24,female,False,False,expiration,inspiration,True,False
693,0.2146934650880827,0,0,0.8721313000005466,0.9903528635049376,30,3.0,1003,24,female,False,False,expiration,trough,True,False
694,0.2146934650880827,0,0,0.7986110999991072,1.4329722148582142,31,3.0,1003,24,female,False,False,expiration,expiration,True,False
695,0.2146934650880827,1,1,0.6452938000002177,1.0364096320609513,32,3.0,1003,24,female,False,False,inspiration,inspiration,True,True
696,0.2146934650880827,1,1,0.8237848999997368,0.4645514791407087,33,3.0,1003,24,female,False,False,expiration,expiration,True,True
697,0.2146934650880827,1,1,1.737077899999349,1.6255040985023526,34,3.0,1003,24,female,False,False,inspiration,expiration,True,True
698,0.2146934650880827,0,0,1.3125192999996216,1.0126184274401528,35,3.0,1003,24,female,False,False,inspiration,expiration,True,False
699,0.2146934650880827,0,0,0.8086656999985279,1.0689164641459326,36,3.0,1003,24,female,False,False,expiration,trough,True,False
700,0.2146934650880827,1,1,0.7400501000010992,1.295863204828498,37,3.0,1003,24,female,False,False,expiration,expiration,True,True
701,0.2146934650880827,0,1,0.9411816000010732,0.6467771530604899,38,3.0,1003,24,female,False,False,trough,inspiration,False,True
702,0.2146934650880827,1,0,0.8452137999993283,1.3425943092089507,39,3.0,1003,24,female,False,False,expiration,expiration,False,False
703,0.2146934650880827,1,1,0.8632928999995784,1.2945176943577748,40,3.0,1003,24,female,False,False,inspiration,expiration,True,True
704,0.2146934650880827,1,1,0.941068100000848,1.9553221365919595,41,3.0,1003,24,female,False,False,inspiration,expiration,True,True
705,0.2146934650880827,0,0,0.6994522000004508,0.4781131811602224,42,3.0,1003,24,female,False,False,expiration,expiration,True,False
706,0.2146934650880827,0,0,0.7462440999988758,0.6155632011711829,43,3.0,1003,24,female,False,False,expiration,expiration,True,False
707,0.2146934650880827,1,0,0.7496582999992825,1.4514450616354837,44,3.0,1003,24,female,False,False,inspiration,expiration,False,False
708,0.2146934650880827,0,0,0.8584728000005271,1.9340270277864149,45,3.0,1003,24,female,False,False,expiration,inspiration,True,False
709,0.2146934650880827,0,0,1.1518287999988388,1.6258921799922468,46,3.0,1003,24,female,False,False,expiration,expiration,True,False
710,0.2146934650880827,1,1,0.8532514999988052,0.4079570095734297,47,3.0,1003,24,female,False,False,inspiration,inspiration,True,True
711,0.2146934650880827,1,1,0.9632981999984622,0.4374802061302089,48,3.0,1003,24,female,False,False,expiration,expiration,True,True
712,0.2146934650880827,0,1,1.0404093000015564,1.4696344422730083,49,3.0,1003,24,female,False,False,inspiration,expiration,False,True
713,0.2146934650880827,1,1,0.7644850999986375,0.897534220314617,50,3.0,1003,24,female,False,False,expiration,expiration,True,True
714,0.2146934650880827,0,1,0.925804299999072,0.9409168356580456,51,3.0,1003,24,female,False,False,peak,expiration,False,True
715,0.2146934650880827,0,1,0.6512653999998292,0.6748707398665232,52,3.0,1003,24,female,False,False,expiration,expiration,False,True
716,0.2146934650880827,0,0,0.8690348000000085,0.968694223128782,53,3.0,1003,24,female,False,False,peak,expiration,True,False
717,0.2146934650880827,1,1,0.7265778999990289,1.6755422672053102,54,3.0,1003,24,female,False,False,inspiration,inspiration,True,True
718,0.2146934650880827,1,1,0.7755048999988503,1.4648323525907456,55,3.0,1003,24,female,False,False,expiration,trough,True,True
719,0.2146934650880827,0,1,1.6536505000003672,0.7176330378386879,56,3.0,1003,24,female,False,False,inspiration,expiration,False,True
720,0.2146934650880827,0,0,1.001738300001307,0.3796704446816195,57,3.0,1003,24,female,False,False,expiration,inspiration,True,False
721,0.2146934650880827,1,1,0.8905845999997837,0.9554303330685914,58,3.0,1003,24,female,False,False,expiration,expiration,True,True
722,0.2146934650880827,1,1,1.013497300000381,0.4358152164395364,59,3.0,1003,24,female,False,False,expiration,inspiration,True,True
723,0.2146934650880827,1,1,0.6986028999999689,1.0621593455035008,60,3.0,1003,24,female,False,False,expiration,expiration,True,True
724,0.2146934650880827,1,1,1.4162942000002658,1.1119592084218632,61,3.0,1003,24,female,False,False,expiration,peak,True,True
725,0.2146934650880827,1,1,0.6487496999998257,0.4403730204446135,62,3.0,1003,24,female,False,False,expiration,expiration,True,True
726,0.2146934650880827,0,0,0.703810799999701,1.4840809077666115,63,3.0,1003,24,female,False,False,inspiration,expiration,True,False
727,0.2146934650880827,0,0,0.9602432000010594,1.5425520191424735,64,3.0,1003,24,female,False,False,inspiration,inspiration,True,False
728,0.2146934650880827,1,1,0.8781151000002865,0.8177565958302144,65,3.0,1003,24,female,False,False,expiration,expiration,True,True
729,0.2146934650880827,0,0,1.1857017999991513,0.3440049556079338,66,3.0,1003,24,female,False,False,inspiration,expiration,True,False
730,0.2146934650880827,0,1,0.6554985999991914,1.3425035942414496,67,3.0,1003,24,female,False,False,expiration,inspiration,False,True
731,0.2146934650880827,0,1,1.0728844000004756,1.2432843206535975,68,3.0,1003,24,female,False,False,expiration,expiration,False,True
732,0.2146934650880827,1,0,0.8469992999998794,1.2536487613195773,69,3.0,1003,24,female,False,False,inspiration,expiration,False,False
735,0.2146934650880827,0,0,1.316375700000208,0.6413527783443527,72,3.0,1003,24,female,False,False,expiration,inspiration,True,False
736,0.2146934650880827,1,1,0.6527783000001364,0.6335420076013902,73,3.0,1003,24,female,False,False,expiration,expiration,True,True
737,0.2146934650880827,1,1,0.5832040000004781,1.2584105774494228,74,3.0,1003,24,female,False,False,inspiration,inspiration,True,True
738,0.2146934650880827,0,0,0.6216081000002305,1.5768996490044145,75,3.0,1003,24,female,False,False,expiration,expiration,True,False
739,0.2146934650880827,1,0,1.0551018999994994,1.14034117065845,76,3.0,1003,24,female,False,False,expiration,expiration,False,False
740,0.2146934650880827,0,0,1.7546763999998802,0.4114471895430972,77,3.0,1003,24,female,False,False,inspiration,expiration,True,False
741,0.2146934650880827,1,1,0.6266108000017994,1.3793787863689106,78,3.0,1003,24,female,False,False,inspiration,inspiration,True,True
742,0.2146934650880827,1,1,1.0020442999993977,1.4904790639215588,79,3.0,1003,24,female,False,False,inspiration,peak,True,True
1005,0.4853698961504133,0,1,0.6537779999998747,0.5651058113960538,0,0.0,179,22,female,True,True,expiration,expiration,False,True
1006,0.4853698961504133,1,0,0.41666519999853335,1.7758721005068174,1,0.0,179,22,female,False,False,expiration,expiration,False,False
1007,0.4853698961504133,0,1,0.5469601000004332,1.011471543678079,2,0.0,179,22,female,False,False,inspiration,inspiration,False,True
1008,0.4853698961504133,1,0,0.5193768999997701,1.6590828479326087,3,0.0,179,22,female,False,False,inspiration,inspiration,False,False
1009,0.4853698961504133,0,1,0.9197910999973828,1.7294048983977406,4,0.0,179,22,female,False,False,peak,expiration,False,True
1010,0.4853698961504133,0,0,0.8828622000000905,0.3176041055969183,5,0.0,179,22,female,False,False,expiration,inspiration,True,False
1011,0.4853698961504133,1,1,0.7742693000000145,1.931341670058316,6,0.0,179,22,female,False,False,inspiration,expiration,True,True
1012,0.4853698961504133,0,0,0.6690505000005942,0.5057335932033962,7,0.0,179,22,female,False,False,expiration,inspiration,True,False
1013,0.4853698961504133,1,1,0.6195174000022234,1.4709765833215145,8,0.0,179,22,female,False,False,expiration,inspiration,True,True
1014,0.4853698961504133,1,1,0.7572041000021272,1.7697188459437398,9,0.0,179,22,female,False,False,expiration,inspiration,True,True
1015,0.4853698961504133,0,0,0.5837181999995664,0.5034646408932764,10,0.0,179,22,female,False,False,expiration,expiration,True,False
1016,0.4853698961504133,1,1,0.8337290000017674,1.024294353297354,11,0.0,179,22,female,False,False,inspiration,expiration,True,True
1017,0.4853698961504133,1,1,1.1744161999995413,1.362367894286243,12,0.0,179,22,female,False,False,inspiration,expiration,True,True
1018,0.4853698961504133,1,0,0.8235109000015655,0.9079805193085062,13,0.0,179,22,female,False,False,inspiration,expiration,False,False
1019,0.4853698961504133,0,0,0.5325459999985469,1.2488863351315476,14,0.0,179,22,female,False,False,inspiration,expiration,True,False
1020,0.4853698961504133,0,0,0.38387579999835,0.39369253368418056,15,0.0,179,22,female,False,False,expiration,expiration,True,False
1021,0.4853698961504133,1,1,0.547804099998757,0.6239904710272168,16,0.0,179,22,female,False,False,inspiration,expiration,True,True
1022,0.4853698961504133,1,1,0.5867766000010306,0.9449778882139032,17,0.0,179,22,female,False,False,trough,inspiration,True,True
1023,0.4853698961504133,0,0,0.5315493999987666,1.5370748995345531,18,0.0,179,22,female,False,False,expiration,inspiration,True,False
1024,0.4853698961504133,0,1,0.6939586000007694,1.17766086628689,19,0.0,179,22,female,False,False,expiration,expiration,False,True
1025,0.4853698961504133,1,1,0.6499742000014521,0.5078894820535751,20,0.0,179,22,female,False,False,inspiration,inspiration,True,True
1026,0.4853698961504133,0,0,0.6184245000004012,1.8053048804881784,21,0.0,179,22,female,False,False,inspiration,expiration,True,False
1027,0.4853698961504133,1,1,0.9091482000003452,1.2757381152115803,22,0.0,179,22,female,False,False,inspiration,expiration,True,True
1028,0.4853698961504133,0,1,0.5999449000009918,1.2029810020317693,23,0.0,179,22,female,False,False,expiration,inspiration,False,True
1029,0.4853698961504133,0,0,0.5659657000032894,1.2850851171004374,24,0.0,179,22,female,False,False,expiration,expiration,True,False
1030,0.4853698961504133,1,1,0.5519872999975632,0.9676173961473196,25,0.0,179,22,female,False,False,inspiration,expiration,True,True
1031,0.4853698961504133,1,1,0.5261116000001493,1.885633196862042,26,0.0,179,22,female,False,False,inspiration,expiration,True,True
1032,0.4853698961504133,0,1,0.40024279999852297,0.8122821868448009,27,0.0,179,22,female,False,False,inspiration,inspiration,False,True
1033,0.4853698961504133,1,1,0.4182193999986339,1.324097958903435,28,0.0,179,22,female,False,False,expiration,expiration,True,True
1034,0.4853698961504133,0,1,0.6213004999990517,0.9205679897586334,29,0.0,179,22,female,False,False,inspiration,expiration,False,True
1035,0.4853698961504133,1,1,0.4002459999974235,1.9846424140306893,30,0.0,179,22,female,False,False,expiration,expiration,True,True
1036,0.4853698961504133,0,1,0.41793329999927664,1.6314742759584413,31,0.0,179,22,female,False,False,peak,expiration,False,True
1037,0.4853698961504133,1,1,0.7152516999994987,0.4787584716314926,32,0.0,179,22,female,False,False,expiration,inspiration,True,True
1038,0.4853698961504133,0,1,1.2990279999976335,0.9679097759949781,33,0.0,179,22,female,False,False,expiration,expiration,False,True
1039,0.4853698961504133,1,1,0.6076792999992904,1.0276028709684641,34,0.0,179,22,female,False,False,inspiration,peak,True,True
1040,0.4853698961504133,0,0,0.4498822999994445,1.9741638106117831,35,0.0,179,22,female,False,False,inspiration,peak,True,False
1041,0.4853698961504133,1,0,0.3505274000017381,1.2259531015709968,36,0.0,179,22,female,False,False,inspiration,inspiration,False,False
1042,0.4853698961504133,0,1,0.6283523000020068,1.9310000351527856,37,0.0,179,22,female,False,False,expiration,expiration,False,True
1043,0.4853698961504133,1,1,0.6180810000005295,0.44360630769681975,38,0.0,179,22,female,False,False,inspiration,inspiration,True,True
1044,0.4853698961504133,0,1,0.4485429000014847,0.41028414229457577,39,0.0,179,22,female,False,False,expiration,expiration,False,True
1045,0.4853698961504133,0,1,0.4166732999983651,0.3721713947995489,40,0.0,179,22,female,False,False,expiration,inspiration,False,True
1046,0.4853698961504133,1,0,0.5346076999994693,1.2727107218218658,41,0.0,179,22,female,False,False,expiration,expiration,False,False
1047,0.4853698961504133,0,1,0.4276479000000109,0.6423404961019545,42,0.0,179,22,female,False,False,inspiration,inspiration,False,True
1048,0.4853698961504133,1,1,0.637320699999691,1.5367351721666394,43,0.0,179,22,female,False,False,inspiration,inspiration,True,True
1049,0.4853698961504133,1,0,0.6091035000026751,1.636158433296884,44,0.0,179,22,female,False,False,inspiration,inspiration,False,False
1050,0.4853698961504133,0,0,0.5457314999985101,1.7955687030208791,45,0.0,179,22,female,False,False,inspiration,inspiration,True,False
1051,0.4853698961504133,0,0,0.4445560000021942,1.5973920460652395,46,0.0,179,22,female,False,False,inspiration,inspiration,True,False
1052,0.4853698961504133,1,0,0.4387661000000662,1.1879211732424917,47,0.0,179,22,female,False,False,expiration,expiration,False,False
1053,0.4853698961504133,0,0,0.534794499999407,0.30516708537618137,48,0.0,179,22,female,False,False,inspiration,inspiration,True,False
1054,0.4853698961504133,1,0,0.5048419000013382,1.6582099757448934,49,0.0,179,22,female,False,False,inspiration,inspiration,False,False
1055,0.4853698961504133,1,0,0.4966032999982417,1.0194453744819256,50,0.0,179,22,female,False,False,expiration,expiration,False,False
1056,0.4853698961504133,1,0,0.5950837000018511,1.5610703220508562,51,0.0,179,22,female,False,False,expiration,expiration,False,False
1057,0.4853698961504133,1,1,0.6027424999992945,1.3412401660353703,52,0.0,179,22,female,False,False,inspiration,expiration,True,True
1058,0.4853698961504133,1,1,0.4641133999975864,0.3709614379561109,53,0.0,179,22,female,False,False,expiration,inspiration,True,True
1059,0.4853698961504133,0,0,0.8035142999979143,1.2936106268513707,54,0.0,179,22,female,False,False,expiration,expiration,True,False
1060,0.4853698961504133,0,1,0.6238986999996996,1.3814057762832408,55,0.0,179,22,female,False,False,expiration,expiration,False,True
1061,0.4853698961504133,0,0,0.4360395000003337,1.3790164106302958,56,0.0,179,22,female,False,False,peak,expiration,True,False
1062,0.4853698961504133,1,0,0.4538556000006793,1.9677448584133368,57,0.0,179,22,female,False,False,expiration,expiration,False,False
1063,0.4853698961504133,0,0,0.7542098000012629,0.41798341410071294,58,0.0,179,22,female,False,False,expiration,inspiration,True,False
1064,0.4853698961504133,0,1,0.4598949999999604,1.4545322255867192,59,0.0,179,22,female,False,False,expiration,inspiration,False,True
1065,0.4853698961504133,0,0,0.4002562999994552,1.8335302873415333,60,0.0,179,22,female,False,False,expiration,expiration,True,False
1066,0.4853698961504133,1,0,0.31718610000098124,1.0764210177976148,61,0.0,179,22,female,False,False,expiration,expiration,False,False
1067,0.4853698961504133,0,0,0.7938115999968431,1.8691550993436947,62,0.0,179,22,female,False,False,inspiration,expiration,True,False
1068,0.4853698961504133,1,1,0.5546013999992283,0.33673172646099003,63,0.0,179,22,female,False,False,expiration,inspiration,True,True
1069,0.4853698961504133,1,0,0.4796623000002001,1.18562257903001,64,0.0,179,22,female,False,False,expiration,expiration,False,False
1070,0.4853698961504133,0,1,0.4168857999975444,0.8883202471092673,65,0.0,179,22,female,False,False,inspiration,expiration,False,True
1071,0.4853698961504133,1,0,0.4212239000007685,0.4512004734854167,66,0.0,179,22,female,False,False,expiration,expiration,False,False
1072,0.4853698961504133,0,1,0.4418092999985673,1.8652781106872625,67,0.0,179,22,female,False,False,expiration,expiration,False,True
1073,0.4853698961504133,1,0,0.4295072999993863,0.7919847847428727,68,0.0,179,22,female,False,False,inspiration,expiration,False,False
1074,0.4853698961504133,0,1,0.4590908999998646,1.7751968325460592,69,0.0,179,22,female,False,False,inspiration,peak,False,True
1075,0.4853698961504133,1,0,0.4003386000003957,0.3497061102231072,70,0.0,179,22,female,False,False,expiration,expiration,False,False
1076,0.4853698961504133,0,0,0.577353900000162,0.9240547001600294,71,0.0,179,22,female,False,False,inspiration,expiration,True,False
1077,0.4853698961504133,0,1,0.7340822000005573,0.4544200482556161,72,0.0,179,22,female,False,False,expiration,inspiration,False,True
1078,0.4853698961504133,0,1,0.6198942000009993,0.4487760925379718,73,0.0,179,22,female,False,False,inspiration,expiration,False,True
1079,0.4853698961504133,0,0,0.5874116000013601,0.34232938083263864,74,0.0,179,22,female,False,False,expiration,inspiration,True,False
1080,0.4853698961504133,0,1,0.6436027999989165,0.8272382945948684,75,0.0,179,22,female,False,False,expiration,expiration,False,True
1081,0.4853698961504133,1,1,0.9497037000001,1.6494940954300583,76,0.0,179,22,female,False,False,expiration,expiration,True,True
1082,0.4853698961504133,1,1,0.7374136999969778,0.6217131772631534,77,0.0,179,22,female,False,False,inspiration,expiration,True,True
1083,0.4853698961504133,1,1,0.6231450000013865,1.9392010882071145,78,0.0,179,22,female,False,False,inspiration,expiration,True,True
1084,0.4853698961504133,1,1,0.5783009000006132,1.2957298780097393,79,0.0,179,22,female,False,False,inspiration,expiration,True,True
1165,0.4853698961504133,1,1,0.6037232999988191,0.8891062972689814,0,1.0,179,22,female,False,False,expiration,expiration,True,True
1166,0.4853698961504133,1,0,0.4634986000019126,0.8255568247437517,1,1.0,179,22,female,False,False,inspiration,peak,False,False
1167,0.4853698961504133,0,0,0.4455049999996845,1.27348181069608,2,1.0,179,22,female,False,False,inspiration,inspiration,True,False
1168,0.4853698961504133,0,1,0.4833106000005501,1.77469937855479,3,1.0,179,22,female,False,False,inspiration,inspiration,False,True
1169,0.4853698961504133,1,0,0.43207709999842336,0.9911379069540054,4,1.0,179,22,female,False,False,expiration,expiration,False,False
1170,0.4853698961504133,0,1,0.4507702999981121,1.84282396164747,5,1.0,179,22,female,False,False,expiration,expiration,False,True
1171,0.4853698961504133,1,0,0.4717793000017991,0.3906774335382349,6,1.0,179,22,female,False,False,inspiration,inspiration,False,False
1172,0.4853698961504133,1,1,0.317141299998184,0.3859534818781086,7,1.0,179,22,female,False,False,expiration,expiration,True,True
1173,0.4853698961504133,0,0,0.4166754999969271,1.6031241334897308,8,1.0,179,22,female,False,False,inspiration,peak,True,False
1174,0.4853698961504133,0,1,0.3504400999991049,0.8584163493485342,9,1.0,179,22,female,False,False,expiration,inspiration,False,True
1175,0.4853698961504133,0,1,0.4168064000004961,1.2385741463515023,10,1.0,179,22,female,False,False,expiration,expiration,False,True
1176,0.4853698961504133,0,1,0.5604599999969649,0.6442992367356175,11,1.0,179,22,female,False,False,inspiration,peak,False,True
1177,0.4853698961504133,0,0,0.4666354000000865,1.9712421637433168,12,1.0,179,22,female,False,False,inspiration,expiration,True,False
1178,0.4853698961504133,0,0,0.4603677999984938,0.5581829304313957,13,1.0,179,22,female,False,False,expiration,inspiration,True,False
1179,0.4853698961504133,1,0,0.4990675000008196,1.9510937988278143,14,1.0,179,22,female,False,False,expiration,inspiration,False,False
1180,0.4853698961504133,1,0,0.5382481999986339,0.59228398564963,15,1.0,179,22,female,False,False,expiration,expiration,False,False
1181,0.4853698961504133,1,0,0.4688395000011951,1.041761374357994,16,1.0,179,22,female,False,False,inspiration,inspiration,False,False
1182,0.4853698961504133,1,0,0.4769378999990295,1.8192795033578368,17,1.0,179,22,female,False,False,inspiration,inspiration,False,False
1183,0.4853698961504133,0,0,0.5017203999996127,1.1902833070023302,18,1.0,179,22,female,False,False,expiration,inspiration,True,False
1184,0.4853698961504133,1,0,0.4890806999974302,0.3056449872602095,19,1.0,179,22,female,False,False,inspiration,expiration,False,False
1185,0.4853698961504133,1,0,0.5728051000005507,1.7788937164867948,20,1.0,179,22,female,False,False,inspiration,expiration,False,False
1186,0.4853698961504133,0,0,0.6261701000003086,0.7384055899157221,21,1.0,179,22,female,False,False,expiration,inspiration,True,False
1187,0.4853698961504133,1,0,1.234317700000247,0.7676405603206768,22,1.0,179,22,female,False,False,expiration,expiration,False,False
1188,0.4853698961504133,0,0,0.4296719999983907,0.5238329569187266,23,1.0,179,22,female,False,False,inspiration,inspiration,True,False
1189,0.4853698961504133,0,0,0.4389325000011013,1.1547264759793,24,1.0,179,22,female,False,False,expiration,inspiration,True,False
1190,0.4853698961504133,1,0,0.3671109999995679,1.1058154432278078,25,1.0,179,22,female,False,False,expiration,expiration,False,False
1191,0.4853698961504133,1,1,0.6805425000020477,1.98069292321832,26,1.0,179,22,female,False,False,expiration,expiration,True,True
1192,0.4853698961504133,0,1,0.4836570000006759,1.3524272027730042,27,1.0,179,22,female,False,False,peak,expiration,False,True
1193,0.4853698961504133,1,0,0.4943084999977145,0.8814108448076834,28,1.0,179,22,female,False,False,inspiration,inspiration,False,False
1194,0.4853698961504133,0,1,0.608452300002682,1.1904746311350511,29,1.0,179,22,female,False,False,expiration,expiration,False,True
1195,0.4853698961504133,0,1,0.7284970000000612,1.082760324190614,30,1.0,179,22,female,False,False,expiration,expiration,False,True
1196,0.4853698961504133,0,0,0.5884332000023278,1.0832240666337527,31,1.0,179,22,female,False,False,inspiration,expiration,True,False
1197,0.4853698961504133,1,1,0.6159468999976525,0.6253933179446162,32,1.0,179,22,female,False,False,expiration,inspiration,True,True
1198,0.4853698961504133,1,1,0.6330899999993562,1.8865048574515595,33,1.0,179,22,female,False,False,expiration,trough,True,True
1199,0.4853698961504133,1,1,0.4885201000033703,0.4240228589598234,34,1.0,179,22,female,False,False,inspiration,peak,True,True
1200,0.4853698961504133,0,0,0.5468615999998292,0.7708817331345534,35,1.0,179,22,female,False,False,expiration,expiration,True,False
1201,0.4853698961504133,0,1,0.6089500000016415,1.7378946562179274,36,1.0,179,22,female,False,False,expiration,expiration,False,True
1202,0.4853698961504133,1,1,0.5364101999984996,1.7379976812191007,37,1.0,179,22,female,False,False,expiration,expiration,True,True
1203,0.4853698961504133,0,0,0.4363806000001205,1.1959306367505873,38,1.0,179,22,female,False,False,inspiration,expiration,True,False
1204,0.4853698961504133,1,1,0.6518472999996447,1.317977498480347,39,1.0,179,22,female,False,False,inspiration,inspiration,True,True
1205,0.4853698961504133,1,1,0.5676109999985783,1.1159641127215696,40,1.0,179,22,female,False,False,expiration,inspiration,True,True
1206,0.4853698961504133,1,1,0.5233402000012575,1.9142343643848363,41,1.0,179,22,female,False,False,expiration,inspiration,True,True
1207,0.4853698961504133,0,0,0.5263100999982271,0.40207340548434417,42,1.0,179,22,female,False,False,peak,expiration,True,False
1208,0.4853698961504133,0,0,0.6448536999996577,1.3067462504993652,43,1.0,179,22,female,False,False,inspiration,peak,True,False
1209,0.4853698961504133,1,1,0.6852792999998201,1.9614565190902613,44,1.0,179,22,female,False,False,inspiration,expiration,True,True
1210,0.4853698961504133,0,1,0.4616516999994929,0.7625991773454702,45,1.0,179,22,female,False,False,trough,inspiration,False,True
1211,0.4853698961504133,0,1,0.5087218000007852,0.4707826047708348,46,1.0,179,22,female,False,False,expiration,expiration,False,True
1212,0.4853698961504133,1,1,0.6024434999999357,1.1190287611240306,47,1.0,179,22,female,False,False,inspiration,peak,True,True
1213,0.4853698961504133,1,1,0.5237568999982614,1.484289190394536,48,1.0,179,22,female,False,False,inspiration,inspiration,True,True
1214,0.4853698961504133,0,1,0.4003275999966718,1.5034266420764788,49,1.0,179,22,female,False,False,inspiration,inspiration,False,True
1215,0.4853698961504133,1,1,0.5060420000008891,1.4758030174282533,50,1.0,179,22,female,False,False,inspiration,inspiration,True,True
1216,0.4853698961504133,0,1,0.4167433999973582,0.4860031815922961,51,1.0,179,22,female,False,False,expiration,expiration,False,True
1217,0.4853698961504133,0,1,0.36725450000085397,0.8442520119962393,52,1.0,179,22,female,False,False,inspiration,inspiration,False,True
1218,0.4853698961504133,0,1,0.31697609999901033,0.3624404962218937,53,1.0,179,22,female,False,False,expiration,expiration,False,True
1219,0.4853698961504133,1,1,1.4585984999976065,1.9704484861783709,54,1.0,179,22,female,False,False,expiration,inspiration,True,True
1220,0.4853698961504133,1,1,1.0851862999988953,1.4366015453263103,55,1.0,179,22,female,False,False,expiration,inspiration,True,True
1221,0.4853698961504133,0,1,0.4968278999986069,0.4400204371714206,56,1.0,179,22,female,False,False,inspiration,inspiration,False,True
1222,0.4853698961504133,0,1,0.4168564999999944,0.5809622263813601,57,1.0,179,22,female,False,False,expiration,expiration,False,True
1223,0.4853698961504133,1,1,0.4273690999980317,1.4137818376864772,58,1.0,179,22,female,False,False,expiration,expiration,True,True
1224,0.4853698961504133,1,1,0.42230320000089705,1.4771980233073585,59,1.0,179,22,female,False,False,inspiration,inspiration,True,True
1225,0.4853698961504133,1,1,0.5296758999975282,0.8271931522051461,60,1.0,179,22,female,False,False,expiration,expiration,True,True
1226,0.4853698961504133,1,1,0.4871192000027804,1.6613451588960853,61,1.0,179,22,female,False,False,expiration,expiration,True,True
1227,0.4853698961504133,1,1,0.7486382999995841,1.6649367718538146,62,1.0,179,22,female,False,False,expiration,expiration,True,True
1228,0.4853698961504133,0,1,0.5919478999967396,1.667723278373135,63,1.0,179,22,female,False,False,expiration,expiration,False,True
1229,0.4853698961504133,0,1,0.4593610000010813,0.7095150456144086,64,1.0,179,22,female,False,False,inspiration,inspiration,False,True
1230,0.4853698961504133,1,1,0.4654795999995258,1.4693232050974396,65,1.0,179,22,female,False,False,expiration,inspiration,True,True
1231,0.4853698961504133,0,0,0.43893929999831016,0.4791882270357771,66,1.0,179,22,female,False,False,expiration,expiration,True,False
1232,0.4853698961504133,0,1,0.3171433999996225,0.6078741070598406,67,1.0,179,22,female,False,False,expiration,expiration,False,True
1233,0.4853698961504133,0,1,0.3173080999986269,0.6502889212632306,68,1.0,179,22,female,False,False,inspiration,expiration,False,True
1234,0.4853698961504133,1,1,0.2671580000023823,1.0872017702628594,69,1.0,179,22,female,False,False,expiration,inspiration,True,True
1235,0.4853698961504133,0,1,0.2838673000005656,0.9890974124929904,70,1.0,179,22,female,False,False,expiration,expiration,False,True
1236,0.4853698961504133,0,1,0.3673472000009497,0.9363644120149766,71,1.0,179,22,female,False,False,inspiration,inspiration,False,True
1237,0.4853698961504133,0,1,0.3337571999982174,1.382960974321389,72,1.0,179,22,female,False,False,expiration,inspiration,False,True
1238,0.4853698961504133,1,0,0.6422657000002799,1.4008598046281031,73,1.0,179,22,female,False,False,expiration,expiration,False,False
1239,0.4853698961504133,1,1,0.7176211999976658,1.0452716416376484,74,1.0,179,22,female,False,False,inspiration,expiration,True,True
1240,0.4853698961504133,0,1,0.5774253999989014,0.4622919004850933,75,1.0,179,22,female,False,False,expiration,inspiration,False,True
1241,0.4853698961504133,1,0,0.8414582000004884,0.548241463968937,76,1.0,179,22,female,False,False,expiration,expiration,False,False
1242,0.4853698961504133,0,0,0.6752140000025975,1.8704618938183648,77,1.0,179,22,female,False,False,expiration,expiration,True,False
1243,0.4853698961504133,1,0,0.5635483000005479,0.6843236947883541,78,1.0,179,22,female,False,False,inspiration,inspiration,False,False
1244,0.4853698961504133,1,0,0.7523456999988412,0.8135295930164348,79,1.0,179,22,female,False,False,expiration,inspiration,False,False
1325,0.4853698961504133,1,1,0.5351519999967422,0.7791334765480036,0,2.0,179,22,female,False,False,expiration,expiration,True,True
1326,0.4853698961504133,1,1,0.4698647000004712,1.0321684929922794,1,2.0,179,22,female,False,False,inspiration,peak,True,True
1327,0.4853698961504133,0,1,0.4897123000009742,0.8442369859051249,2,2.0,179,22,female,False,False,expiration,expiration,False,True
1328,0.4853698961504133,0,1,0.38384750000113854,1.7900576428119737,3,2.0,179,22,female,False,False,expiration,expiration,False,True
1329,0.4853698961504133,1,1,0.7814276999997674,1.0949792301164778,4,2.0,179,22,female,False,False,inspiration,expiration,True,True
1330,0.4853698961504133,0,1,0.48584709999704495,1.5680071949354115,5,2.0,179,22,female,False,False,inspiration,peak,False,True
1331,0.4853698961504133,1,1,0.5883290000019771,1.889390620320116,6,2.0,179,22,female,False,False,inspiration,expiration,True,True
1332,0.4853698961504133,1,1,0.35061279999717954,0.4843135034547052,7,2.0,179,22,female,False,False,expiration,trough,True,True
1333,0.4853698961504133,0,1,0.4533833999994386,1.0623052811481783,8,2.0,179,22,female,False,False,expiration,expiration,False,True
1334,0.4853698961504133,0,1,0.6050558999995701,0.7740595464290497,9,2.0,179,22,female,False,False,inspiration,inspiration,False,True
1335,0.4853698961504133,0,1,0.7418529000024137,1.4656194905962874,10,2.0,179,22,female,False,False,expiration,inspiration,False,True
1336,0.4853698961504133,0,1,0.5856595000004745,0.8758801248306554,11,2.0,179,22,female,False,False,expiration,expiration,False,True
1337,0.4853698961504133,0,1,0.7323646000004373,1.3976557595245742,12,2.0,179,22,female,False,False,inspiration,expiration,False,True
1338,0.4853698961504133,0,1,0.4867683999982546,0.7683175013918991,13,2.0,179,22,female,False,False,inspiration,inspiration,False,True
1339,0.4853698961504133,1,1,2.1601383999986865,1.746435706305525,14,2.0,179,22,female,False,False,expiration,expiration,True,True
1340,0.4853698961504133,1,0,0.8566190999990795,0.9070927283481328,15,2.0,179,22,female,False,False,expiration,inspiration,False,False
1341,0.4853698961504133,1,1,0.8453937999984191,1.212384021119504,16,2.0,179,22,female,False,False,expiration,inspiration,True,True
1342,0.4853698961504133,1,1,0.6928168999984337,1.1586051680796523,17,2.0,179,22,female,False,False,expiration,expiration,True,True
1343,0.4853698961504133,0,0,0.7332074000005377,1.2709069847505192,18,2.0,179,22,female,False,False,inspiration,expiration,True,False
1344,0.4853698961504133,1,1,0.6453054000012344,1.8403569353224127,19,2.0,179,22,female,False,False,expiration,expiration,True,True
1345,0.4853698961504133,1,0,0.5470668999987538,1.874632813540125,20,2.0,179,22,female,False,False,expiration,expiration,False,False
1346,0.4853698961504133,0,1,0.6187982999981614,0.31541536015596705,21,2.0,179,22,female,False,False,inspiration,inspiration,False,True
1347,0.4853698961504133,1,1,0.7565557999987504,1.1414807817597306,22,2.0,179,22,female,False,False,expiration,inspiration,True,True
1348,0.4853698961504133,0,0,0.5950706000003265,0.7812262692624732,23,2.0,179,22,female,False,False,expiration,expiration,True,False
1349,0.4853698961504133,0,1,0.7633774999994785,1.7026262638203755,24,2.0,179,22,female,False,False,expiration,expiration,False,True
1350,0.4853698961504133,1,1,0.5854780999979994,1.6728796899633278,25,2.0,179,22,female,False,False,expiration,expiration,True,True
1351,0.4853698961504133,1,1,0.5188725000007253,0.9513999456738016,26,2.0,179,22,female,False,False,inspiration,expiration,True,True
1352,0.4853698961504133,0,0,0.6882899000011093,1.233613606267726,27,2.0,179,22,female,False,False,inspiration,inspiration,True,False
1353,0.4853698961504133,1,1,0.42597699999896577,0.7202214817281017,28,2.0,179,22,female,False,False,expiration,expiration,True,True
1354,0.4853698961504133,0,1,0.5597711999980675,1.2276145171304826,29,2.0,179,22,female,False,False,expiration,expiration,False,True
1355,0.4853698961504133,0,1,0.5656640999986848,1.88714137066722,30,2.0,179,22,female,False,False,expiration,expiration,False,True
1356,0.4853698961504133,0,1,0.6235481000003347,1.1755796196885444,31,2.0,179,22,female,False,False,inspiration,expiration,False,True
1357,0.4853698961504133,1,1,0.52936690000206,1.241755531206837,32,2.0,179,22,female,False,False,inspiration,peak,True,True
1358,0.4853698961504133,1,0,0.5630068999998912,0.5428870485233329,33,2.0,179,22,female,False,False,expiration,expiration,False,False
1359,0.4853698961504133,1,1,0.43877160000192816,0.8472600546716558,34,2.0,179,22,female,False,False,inspiration,expiration,True,True
1360,0.4853698961504133,0,0,0.416814099997282,0.9999478966340419,35,2.0,179,22,female,False,False,trough,inspiration,True,False
1361,0.4853698961504133,0,0,0.6128950999991503,0.8129429228253844,36,2.0,179,22,female,False,False,expiration,expiration,True,False
1362,0.4853698961504133,1,1,0.4689649000029021,1.7389813241937295,37,2.0,179,22,female,False,False,expiration,expiration,True,True
1363,0.4853698961504133,0,1,0.9743673999983002,1.8804153768603875,38,2.0,179,22,female,False,False,expiration,expiration,False,True
1364,0.4853698961504133,1,0,0.5193025000007765,0.619838102387434,39,2.0,179,22,female,False,False,inspiration,peak,False,False
1365,0.4853698961504133,1,0,0.9055393999988156,1.268016316759002,40,2.0,179,22,female,False,False,trough,inspiration,False,False
1366,0.4853698961504133,1,1,0.6530050000001211,1.3977718779699893,41,2.0,179,22,female,False,False,inspiration,peak,True,True
1367,0.4853698961504133,0,0,0.7710484000017459,0.8361619927751605,42,2.0,179,22,female,False,False,expiration,inspiration,True,False
1368,0.4853698961504133,0,0,0.5461099999993166,0.5072707972937224,43,2.0,179,22,female,False,False,peak,expiration,True,False
1369,0.4853698961504133,1,1,0.6795326999999816,1.5183232282631434,44,2.0,179,22,female,False,False,inspiration,expiration,True,True
1370,0.4853698961504133,0,0,0.5779132999996364,1.0816722731849555,45,2.0,179,22,female,False,False,inspiration,expiration,True,False
1371,0.4853698961504133,0,0,0.6171035999977903,1.1028345068307197,46,2.0,179,22,female,False,False,inspiration,inspiration,True,False
1372,0.4853698961504133,1,1,0.6272181999993336,0.4183450442961404,47,2.0,179,22,female,False,False,expiration,expiration,True,True
1373,0.4853698961504133,1,1,0.6471185000009427,1.5086332622697698,48,2.0,179,22,female,False,False,expiration,expiration,True,True
1374,0.4853698961504133,0,0,0.8025759000011021,1.762099290838621,49,2.0,179,22,female,False,False,expiration,expiration,True,False
1375,0.4853698961504133,1,0,1.107238500000676,0.6692441440060763,50,2.0,179,22,female,False,False,inspiration,expiration,False,False
1376,0.4853698961504133,0,0,0.7520838999989792,1.2658823546065774,51,2.0,179,22,female,False,False,inspiration,expiration,True,False
1377,0.4853698961504133,0,0,0.7294661000014457,1.84501144696916,52,2.0,179,22,female,False,False,inspiration,expiration,True,False
1378,0.4853698961504133,0,0,0.6065183999999135,0.8871469167214092,53,2.0,179,22,female,False,False,expiration,expiration,True,False
1379,0.4853698961504133,1,0,0.5586346999989473,1.6217679669145348,54,2.0,179,22,female,False,False,expiration,expiration,False,False
1380,0.4853698961504133,1,0,0.5817275000008522,0.474636040034328,55,2.0,179,22,female,False,False,inspiration,inspiration,False,False
1381,0.4853698961504133,0,0,0.5678819999993721,1.951163340781017,56,2.0,179,22,female,False,False,inspiration,inspiration,True,False
1382,0.4853698961504133,0,0,0.4937361999982386,0.7482835073301202,57,2.0,179,22,female,False,False,expiration,inspiration,True,False
1383,0.4853698961504133,1,1,0.6343062999985705,1.933043988820921,58,2.0,179,22,female,False,False,expiration,trough,True,True
1384,0.4853698961504133,1,1,1.17234880000251,0.5442375112422246,59,2.0,179,22,female,False,False,inspiration,expiration,True,True
1385,0.4853698961504133,1,0,0.5734150999996928,0.5968020497208534,60,2.0,179,22,female,False,False,inspiration,inspiration,False,False
1386,0.4853698961504133,1,1,0.6440779000004113,1.1944206125588757,61,2.0,179,22,female,False,False,expiration,inspiration,True,True
1387,0.4853698961504133,1,1,0.6112244999967515,0.4671002708003446,62,2.0,179,22,female,False,False,expiration,expiration,True,True
1388,0.4853698961504133,0,0,0.9696440000006988,1.5470952197008714,63,2.0,179,22,female,False,False,inspiration,expiration,True,False
1389,0.4853698961504133,0,1,0.6794025999988662,1.050306570077717,64,2.0,179,22,female,False,False,inspiration,expiration,False,True
1390,0.4853698961504133,1,0,0.5346673000021838,1.0993836645253312,65,2.0,179,22,female,False,False,inspiration,inspiration,False,False
1391,0.4853698961504133,0,0,0.6481984999991255,1.4165906344598378,66,2.0,179,22,female,False,False,expiration,inspiration,True,False
1392,0.4853698961504133,0,0,0.5539716999992379,1.2279415480368072,67,2.0,179,22,female,False,False,expiration,expiration,True,False
1393,0.4853698961504133,0,0,0.5589175000022806,1.7240717866581414,68,2.0,179,22,female,False,False,expiration,expiration,True,False
1394,0.4853698961504133,1,0,0.5705142000006163,1.9707541797767456,69,2.0,179,22,female,False,False,expiration,trough,False,False
1395,0.4853698961504133,0,0,0.4342040000010456,1.0651142373939813,70,2.0,179,22,female,False,False,expiration,expiration,True,False
1396,0.4853698961504133,0,0,0.5402778999996372,0.5164330145844457,71,2.0,179,22,female,False,False,inspiration,inspiration,True,False
1397,0.4853698961504133,0,0,0.4971712000005937,1.8410100482246488,72,2.0,179,22,female,True,True,inspiration,expiration,True,False
1398,0.4853698961504133,1,1,0.5944595000000845,1.31335008224376,73,2.0,179,22,female,True,True,peak,expiration,True,True
1399,0.4853698961504133,1,1,0.5501699000014924,0.8362847982510013,74,2.0,179,22,female,False,False,inspiration,peak,True,True
1400,0.4853698961504133,0,0,0.4880014000009396,1.320267044522401,75,2.0,179,22,female,False,False,inspiration,inspiration,True,False
1401,0.4853698961504133,1,1,0.6156042000002344,1.4549833380353965,76,2.0,179,22,female,False,False,expiration,trough,True,True
1402,0.4853698961504133,0,0,0.4167906000002404,0.9762359150961732,77,2.0,179,22,female,False,False,peak,expiration,True,False
1403,0.4853698961504133,1,1,0.5607631999992009,0.4187482768714489,78,2.0,179,22,female,False,False,expiration,inspiration,True,True
1404,0.4853698961504133,1,0,0.30071029999817256,1.6874615092495555,79,2.0,179,22,female,False,False,expiration,expiration,False,False
1485,0.4853698961504133,1,1,0.9830935999998474,0.5370148643401762,0,3.0,179,22,female,False,False,inspiration,expiration,True,True
1486,0.4853698961504133,1,1,0.7322445999998308,1.4636674333719,1,3.0,179,22,female,False,False,peak,expiration,True,True
1487,0.4853698961504133,0,0,0.8892578999984835,1.1063587658454868,2,3.0,179,22,female,False,False,inspiration,expiration,True,False
1488,0.4853698961504133,0,1,0.6369703999989724,1.5138478039545211,3,3.0,179,22,female,False,False,inspiration,expiration,False,True
1489,0.4853698961504133,1,0,0.5589364000006753,1.240195015756663,4,3.0,179,22,female,False,False,inspiration,peak,False,False
1490,0.4853698961504133,0,0,0.5269273999983852,0.3753484757728778,5,3.0,179,22,female,False,False,expiration,expiration,True,False
1491,0.4853698961504133,1,1,0.6917251000013493,1.0605583860221297,6,3.0,179,22,female,False,False,expiration,expiration,True,True
1492,0.4853698961504133,1,0,0.4320369999986724,1.2028840022555725,7,3.0,179,22,female,False,False,inspiration,peak,False,False
1493,0.4853698961504133,0,1,0.4968334000004688,1.4915375945752571,8,3.0,179,22,female,False,False,inspiration,inspiration,False,True
1494,0.4853698961504133,0,0,0.6149361000025237,1.9528740691471311,9,3.0,179,22,female,False,False,expiration,expiration,True,False
1495,0.4853698961504133,0,1,0.3837220999994315,0.799686094749718,10,3.0,179,22,female,False,False,expiration,expiration,False,True
1496,0.4853698961504133,0,0,0.633692899999005,1.9251020998532573,11,3.0,179,22,female,False,False,expiration,expiration,True,False
1497,0.4853698961504133,0,0,0.4851783999984036,0.6316413422295555,12,3.0,179,22,female,False,False,inspiration,inspiration,True,False
1498,0.4853698961504133,0,0,0.5542681999977503,1.708624173783952,13,3.0,179,22,female,False,False,expiration,inspiration,True,False
1499,0.4853698961504133,1,0,0.4512883999996121,1.1395184822012634,14,3.0,179,22,female,False,False,expiration,expiration,False,False
1500,0.4853698961504133,1,0,0.3837980999996944,0.5594469690947894,15,3.0,179,22,female,False,False,inspiration,inspiration,False,False
1501,0.4853698961504133,1,0,0.26714240000001155,0.5639081705358293,16,3.0,179,22,female,False,False,expiration,expiration,False,False
1502,0.4853698961504133,1,0,0.2838590999999724,0.44072333038132855,17,3.0,179,22,female,False,False,expiration,trough,False,False
1503,0.4853698961504133,0,0,0.5421172999995179,1.4343102702545694,18,3.0,179,22,female,False,False,expiration,expiration,True,False
1504,0.4853698961504133,1,0,0.5862234999985958,1.3040800135178068,19,3.0,179,22,female,False,False,expiration,expiration,False,False
1505,0.4853698961504133,1,1,0.4286271000019042,1.625894519177691,20,3.0,179,22,female,False,False,inspiration,expiration,True,True
1506,0.4853698961504133,0,0,0.4333736000007775,1.0388215406099126,21,3.0,179,22,female,False,False,inspiration,inspiration,True,False
1507,0.4853698961504133,1,1,0.3838608000005479,1.0313165075369108,22,3.0,179,22,female,False,False,expiration,expiration,True,True
1508,0.4853698961504133,0,0,0.43925270000181627,1.94823678646178,23,3.0,179,22,female,False,False,expiration,expiration,True,False
1509,0.4853698961504133,0,1,0.4423906000010902,1.8385856929043247,24,3.0,179,22,female,False,False,expiration,expiration,False,True
1510,0.4853698961504133,1,0,0.5250493000021379,0.8866204803275883,25,3.0,179,22,female,False,False,inspiration,expiration,False,False
1511,0.4853698961504133,1,1,0.4205965999972249,0.5178064083818504,26,3.0,179,22,female,False,False,expiration,inspiration,True,True
1512,0.4853698961504133,0,0,0.33376459999999497,0.3831265368273268,27,3.0,179,22,female,False,False,inspiration,peak,True,False
1513,0.4853698961504133,1,1,0.38382170000113547,1.092624242293609,28,3.0,179,22,female,False,False,trough,inspiration,True,True
1514,0.4853698961504133,0,0,0.2503727000002982,0.7411791453526462,29,3.0,179,22,female,False,False,expiration,expiration,True,False
1515,0.4853698961504133,0,1,0.3338277000002563,1.996784240196462,30,3.0,179,22,female,False,False,expiration,expiration,False,True
1516,0.4853698961504133,0,0,0.3005202999993344,1.2852207572548893,31,3.0,179,22,female,False,False,peak,expiration,True,False
1517,0.4853698961504133,1,1,0.3004868999996688,1.143950711554656,32,3.0,179,22,female,False,False,inspiration,inspiration,True,True
1518,0.4853698961504133,1,0,0.2340125000009721,1.540028973112218,33,3.0,179,22,female,False,False,inspiration,inspiration,False,False
1519,0.4853698961504133,1,1,0.5032886000008148,0.8340046721985834,34,3.0,179,22,female,False,False,expiration,expiration,True,True
1520,0.4853698961504133,0,0,0.3672119000002567,1.8286401775006225,35,3.0,179,22,female,False,False,expiration,expiration,True,False
1521,0.4853698961504133,0,0,0.4897893000015756,1.1654716863906411,36,3.0,179,22,female,False,False,peak,expiration,True,False
1522,0.4853698961504133,1,1,0.6203395999982604,0.4264632325344442,37,3.0,179,22,female,False,False,expiration,inspiration,True,True
1523,0.4853698961504133,0,0,0.4566647999999986,1.9431268448902959,38,3.0,179,22,female,False,False,inspiration,inspiration,True,False
1524,0.4853698961504133,1,0,0.7213661999994656,1.3204953504723491,39,3.0,179,22,female,False,False,expiration,inspiration,False,False
1525,0.4853698961504133,1,1,0.6404266999998072,1.3663512190386211,40,3.0,179,22,female,False,False,expiration,expiration,True,True
1526,0.4853698961504133,1,1,0.5422383000004629,1.8246145027529368,41,3.0,179,22,female,False,False,expiration,expiration,True,True
1527,0.4853698961504133,0,0,0.5049190999998245,0.9958782341011608,42,3.0,179,22,female,False,False,peak,expiration,True,False
1528,0.4853698961504133,0,0,1.245316600001388,1.1511094394067836,43,3.0,179,22,female,False,False,inspiration,expiration,True,False
1529,0.4853698961504133,1,1,0.7364708000022802,1.9846234719209976,44,3.0,179,22,female,False,False,expiration,expiration,True,True
1530,0.4853698961504133,0,0,0.4664157000006526,0.6941898463712604,45,3.0,179,22,female,False,False,inspiration,expiration,True,False
1531,0.4853698961504133,0,0,0.4903970999985177,0.9687877192245498,46,3.0,179,22,female,False,False,expiration,inspiration,True,False
1532,0.4853698961504133,1,1,0.4640051999995194,0.8732443256092572,47,3.0,179,22,female,False,False,expiration,expiration,True,True
1533,0.4853698961504133,1,0,0.7220489999999699,0.9673785408189816,48,3.0,179,22,female,False,False,inspiration,expiration,False,False
1534,0.4853698961504133,0,0,0.4927845999991405,1.4494813926091463,49,3.0,179,22,female,False,False,inspiration,peak,True,False
1535,0.4853698961504133,1,1,0.5671763999998802,1.9072096761117807,50,3.0,179,22,female,False,False,inspiration,expiration,True,True
1536,0.4853698961504133,0,0,0.8155377000002773,1.6202874529988809,51,3.0,179,22,female,False,False,inspiration,peak,True,False
1537,0.4853698961504133,0,0,0.6045763999973133,0.3192135327740408,52,3.0,179,22,female,False,False,expiration,expiration,True,False
1538,0.4853698961504133,0,0,0.4977801999993972,1.6050364573927915,53,3.0,179,22,female,False,False,expiration,expiration,True,False
1539,0.4853698961504133,1,0,0.4408294000022579,1.1807894005994577,54,3.0,179,22,female,False,False,inspiration,expiration,False,False
1540,0.4853698961504133,1,0,0.3671705000015209,0.3617146930714077,55,3.0,179,22,female,False,False,expiration,expiration,False,False
1541,0.4853698961504133,0,0,0.48990419999972795,1.945663021601329,56,3.0,179,22,female,False,False,expiration,expiration,True,False
1542,0.4853698961504133,0,0,0.4460910000016156,1.2135936281436872,57,3.0,179,22,female,False,False,expiration,expiration,True,False
1543,0.4853698961504133,1,1,0.5931270999972185,0.5765309816619976,58,3.0,179,22,female,False,False,expiration,inspiration,True,True
1544,0.4853698961504133,1,0,0.7141159999991942,0.5783652217266189,59,3.0,179,22,female,False,False,expiration,expiration,False,False
1545,0.4853698961504133,1,1,0.5886847000001579,1.8904379146983368,60,3.0,179,22,female,False,False,expiration,expiration,True,True
1546,0.4853698961504133,1,1,0.7117160000016156,0.4540076580173706,61,3.0,179,22,female,False,False,inspiration,inspiration,True,True
1547,0.4853698961504133,1,1,0.5994475000006787,1.899471596588346,62,3.0,179,22,female,False,False,inspiration,peak,True,True
1548,0.4853698961504133,0,0,0.5678806000032637,1.4147962775664442,63,3.0,179,22,female,False,False,inspiration,inspiration,True,False
1549,0.4853698961504133,0,0,0.7494045000021288,1.5314244788880396,64,3.0,179,22,female,False,False,trough,inspiration,True,False
1550,0.4853698961504133,1,1,0.6780356999988726,1.362860528820764,65,3.0,179,22,female,False,False,expiration,expiration,True,True
1551,0.4853698961504133,0,0,0.4937371999985771,0.3973020509846878,66,3.0,179,22,female,False,False,inspiration,inspiration,True,False
1552,0.4853698961504133,0,0,0.9336350999983551,1.1344290819894498,67,3.0,179,22,female,False,False,expiration,trough,True,False
1553,0.4853698961504133,0,0,0.5902550999999221,1.6439630868800053,68,3.0,179,22,female,False,False,expiration,expiration,True,False
1554,0.4853698961504133,1,0,0.5997946999996202,0.4090208366927455,69,3.0,179,22,female,False,False,inspiration,inspiration,False,False
1555,0.4853698961504133,0,0,0.8584088999996311,0.5899411623804196,70,3.0,179,22,female,False,False,expiration,expiration,True,False
1556,0.4853698961504133,0,1,0.5054947999997239,1.178641707275319,71,3.0,179,22,female,False,False,inspiration,expiration,False,True
1557,0.4853698961504133,0,0,0.4771656000011717,0.7099511044863589,72,3.0,179,22,female,False,False,expiration,inspiration,True,False
1558,0.4853698961504133,1,0,0.3505073000014818,0.6749894975232479,73,3.0,179,22,female,False,False,inspiration,expiration,False,False
1559,0.4853698961504133,1,1,0.5262553000029584,1.4964542934684186,74,3.0,179,22,female,False,False,inspiration,inspiration,True,True
1560,0.4853698961504133,0,0,0.4653725999996823,0.9548364258268538,75,3.0,179,22,female,False,False,expiration,expiration,True,False
1561,0.4853698961504133,1,0,0.5248324999993201,1.7300792760059238,76,3.0,179,22,female,False,False,expiration,expiration,False,False
1562,0.4853698961504133,0,0,1.3022157000013976,1.9286488502722243,77,3.0,179,22,female,False,False,expiration,inspiration,True,False
1563,0.4853698961504133,1,1,0.5617171000012604,1.7510782332388546,78,3.0,179,22,female,False,False,expiration,expiration,True,True
1564,0.4853698961504133,1,1,0.5945690000007744,1.4926412632808987,79,3.0,179,22,female,False,False,expiration,expiration,True,True
1828,0.13084434311626114,0,1,1.092609999999695,0.8453728309760269,0,0.0,1002,29,female,False,False,expiration,expiration,False,True
1829,0.13084434311626114,0,1,0.6118504000005487,1.0951611780303916,1,0.0,1002,29,female,False,False,inspiration,inspiration,False,True
1830,0.13084434311626114,0,0,0.6881113999997979,1.1700368825995604,2,0.0,1002,29,female,False,False,expiration,expiration,True,False
1831,0.13084434311626114,1,1,0.749511199999688,1.9125363394855484,3,0.0,1002,29,female,False,False,expiration,expiration,True,True
1832,0.13084434311626114,1,1,0.6219492999998693,1.5421480316920495,4,0.0,1002,29,female,False,False,inspiration,inspiration,True,True
1833,0.13084434311626114,1,1,0.7933624999996027,1.0316402988064766,5,0.0,1002,29,female,False,False,expiration,expiration,True,True
1834,0.13084434311626114,1,1,0.6221138000000792,1.488547000314537,6,0.0,1002,29,female,False,False,inspiration,expiration,True,True
1835,0.13084434311626114,1,1,0.6332282000003033,1.7197215604409375,7,0.0,1002,29,female,False,False,inspiration,inspiration,True,True
1836,0.13084434311626114,0,0,0.7042738999998619,1.8993288230748973,8,0.0,1002,29,female,False,False,inspiration,inspiration,True,False
1837,0.13084434311626114,0,1,0.5750893999993423,1.7734320022536358,9,0.0,1002,29,female,False,False,expiration,expiration,False,True
1838,0.13084434311626114,1,1,0.6974408000005496,1.330054573811408,10,0.0,1002,29,female,False,False,inspiration,expiration,True,True
1839,0.13084434311626114,0,1,0.4391255999998975,0.5893058639372841,11,0.0,1002,29,female,False,False,expiration,expiration,False,True
1840,0.13084434311626114,0,1,0.684306099999958,1.248343049576952,12,0.0,1002,29,female,False,False,inspiration,inspiration,False,True
1841,0.13084434311626114,1,1,0.9110854999998992,1.7407007717644796,13,0.0,1002,29,female,False,False,expiration,expiration,True,True
1842,0.13084434311626114,0,0,0.7501693000003797,1.547199840670377,14,0.0,1002,29,female,False,False,expiration,expiration,True,False
1843,0.13084434311626114,0,0,0.6652413000001616,0.4659991143003184,15,0.0,1002,29,female,False,False,expiration,expiration,True,False
1844,0.13084434311626114,1,1,0.6559958999996525,1.6586170968205638,16,0.0,1002,29,female,False,False,expiration,expiration,True,True
1845,0.13084434311626114,1,1,1.288387600000533,1.30591600304178,17,0.0,1002,29,female,False,False,inspiration,inspiration,True,True
1846,0.13084434311626114,0,1,0.9510824000008142,0.9963353581727404,18,0.0,1002,29,female,False,False,expiration,expiration,False,True
1847,0.13084434311626114,1,1,0.7615980000000491,1.4588102532433724,19,0.0,1002,29,female,False,False,inspiration,expiration,True,True
1848,0.13084434311626114,0,0,0.6713153999999122,0.9032489262506428,20,0.0,1002,29,female,False,False,expiration,expiration,True,False
1849,0.13084434311626114,0,0,0.6724182999996628,0.5638572622073078,21,0.0,1002,29,female,False,False,inspiration,inspiration,True,False
1850,0.13084434311626114,1,1,0.6394880000007106,1.5073825796153733,22,0.0,1002,29,female,False,False,expiration,expiration,True,True
1851,0.13084434311626114,0,0,0.9625719000005122,1.0072049460541683,23,0.0,1002,29,female,False,False,inspiration,expiration,True,False
1852,0.13084434311626114,1,1,0.9016688000001524,0.6207834428083583,24,0.0,1002,29,female,False,False,expiration,expiration,True,True
1853,0.13084434311626114,1,1,0.7476824000004854,0.9943148594622228,25,0.0,1002,29,female,False,False,inspiration,peak,True,True
1854,0.13084434311626114,0,0,0.798820799999703,1.0928161187813776,26,0.0,1002,29,female,False,False,expiration,expiration,True,False
1855,0.13084434311626114,1,1,0.7311970000000656,0.7124647161781781,27,0.0,1002,29,female,False,False,inspiration,inspiration,True,True
1856,0.13084434311626114,0,0,0.6394996999997602,0.8823531626105519,28,0.0,1002,29,female,False,False,expiration,expiration,True,False
1857,0.13084434311626114,1,1,0.6530086999991909,1.569901644786424,29,0.0,1002,29,female,False,False,inspiration,expiration,True,True
1858,0.13084434311626114,1,1,0.5911030999996001,1.13633319438305,30,0.0,1002,29,female,False,False,expiration,inspiration,True,True
1859,0.13084434311626114,0,0,0.6864998000000924,1.562063354172442,31,0.0,1002,29,female,False,False,expiration,expiration,True,False
1860,0.13084434311626114,0,0,1.139883899999404,0.7261690212356902,32,0.0,1002,29,female,False,False,inspiration,inspiration,True,False
1861,0.13084434311626114,0,0,0.6739497999997184,0.8927368075901052,33,0.0,1002,29,female,False,False,expiration,expiration,True,False
1862,0.13084434311626114,0,0,0.7020546999992803,0.5241664778965088,34,0.0,1002,29,female,False,False,inspiration,inspiration,True,False
1863,0.13084434311626114,1,1,0.8857714000005217,1.6550004571521628,35,0.0,1002,29,female,False,False,expiration,trough,True,True
1864,0.13084434311626114,1,1,0.6591666999993322,1.957284240311176,36,0.0,1002,29,female,False,False,expiration,expiration,True,True
1865,0.13084434311626114,1,1,0.6459657999994306,1.3605752751723956,37,0.0,1002,29,female,False,False,inspiration,expiration,True,True
1866,0.13084434311626114,0,0,0.7020122999992964,0.5316189824865176,38,0.0,1002,29,female,False,False,expiration,expiration,True,False
1867,0.13084434311626114,1,0,1.0567352999996729,1.2305687302506227,39,0.0,1002,29,female,False,False,inspiration,expiration,False,False
1868,0.13084434311626114,0,0,0.6011646999995719,0.7507958001117617,40,0.0,1002,29,female,False,False,expiration,inspiration,True,False
1870,0.13084434311626114,1,1,0.8396468999999342,0.8831950858954514,42,0.0,1002,29,female,False,False,inspiration,expiration,True,True
1871,0.13084434311626114,0,0,0.6387295000004087,0.999159466495222,43,0.0,1002,29,female,False,False,expiration,trough,True,False
1872,0.13084434311626114,1,1,0.894833600000311,0.8364746475186837,44,0.0,1002,29,female,False,False,inspiration,expiration,True,True
1873,0.13084434311626114,1,0,0.8789829999996073,1.5435341749955866,45,0.0,1002,29,female,False,False,inspiration,inspiration,False,False
1874,0.13084434311626114,1,1,0.6907639000000927,0.7923569492157545,46,0.0,1002,29,female,False,False,expiration,expiration,True,True
1875,0.13084434311626114,1,1,0.7310508999999001,1.3668429157316462,47,0.0,1002,29,female,False,False,inspiration,inspiration,True,True
1876,0.13084434311626114,0,0,0.7661674000000858,1.799180518872986,48,0.0,1002,29,female,False,False,expiration,inspiration,True,False
1877,0.13084434311626114,0,0,0.7089363000004596,0.8516050572185581,49,0.0,1002,29,female,False,False,expiration,expiration,True,False
1878,0.13084434311626114,0,0,0.8403794999994716,1.251211521300722,50,0.0,1002,29,female,False,False,inspiration,expiration,True,False
1879,0.13084434311626114,0,0,0.6964736999998422,0.7845701246783274,51,0.0,1002,29,female,False,False,expiration,expiration,True,False
1880,0.13084434311626114,1,0,0.5185084999993705,1.0255060467515615,52,0.0,1002,29,female,False,False,inspiration,expiration,False,False
1881,0.13084434311626114,1,1,0.5938421000000744,1.5413628573813123,53,0.0,1002,29,female,False,False,expiration,inspiration,True,True
1882,0.13084434311626114,1,0,0.7029723000005106,0.790767912593016,54,0.0,1002,29,female,False,False,inspiration,inspiration,False,False
1883,0.13084434311626114,1,0,0.7213940000001458,1.1506086715910238,55,0.0,1002,29,female,False,False,expiration,expiration,False,False
1884,0.13084434311626114,0,0,0.522123400000055,0.7582409229929098,56,0.0,1002,29,female,False,False,expiration,expiration,True,False
1885,0.13084434311626114,0,0,0.8861933999996836,1.1603520439682151,57,0.0,1002,29,female,False,False,inspiration,expiration,True,False
1886,0.13084434311626114,0,0,0.6992332999998325,0.8436829576527178,58,0.0,1002,29,female,False,False,expiration,expiration,True,False
1887,0.13084434311626114,1,1,0.6996674000001804,0.8464016423454219,59,0.0,1002,29,female,False,False,inspiration,inspiration,True,True
1888,0.13084434311626114,1,0,0.8534236000004967,1.9307121962467044,60,0.0,1002,29,female,False,False,expiration,trough,False,False
1889,0.13084434311626114,0,1,1.0315546000001632,1.7339411465384231,61,0.0,1002,29,female,False,False,expiration,expiration,False,True
1890,0.13084434311626114,1,0,0.8913042000003771,1.6518878390317704,62,0.0,1002,29,female,False,False,expiration,expiration,False,False
1891,0.13084434311626114,0,0,0.5587747999998101,1.8568101014569127,63,0.0,1002,29,female,False,False,inspiration,expiration,True,False
1892,0.13084434311626114,1,1,1.0492107000000033,0.8959803874581835,64,0.0,1002,29,female,False,False,expiration,inspiration,True,True
1893,0.13084434311626114,1,1,1.2965111000003162,0.3125463061879355,65,0.0,1002,29,female,False,False,inspiration,expiration,True,True
1894,0.13084434311626114,0,0,0.6763006000001042,1.517257012515138,66,0.0,1002,29,female,False,False,inspiration,expiration,True,False
1895,0.13084434311626114,1,0,0.6427561000000424,1.631254079925759,67,0.0,1002,29,female,False,False,inspiration,inspiration,False,False
1896,0.13084434311626114,0,0,0.6765101999999388,1.525737049847779,68,0.0,1002,29,female,False,False,expiration,expiration,True,False
1897,0.13084434311626114,0,0,0.5422614999997677,1.084521648843977,69,0.0,1002,29,female,False,False,inspiration,expiration,True,False
1898,0.13084434311626114,0,0,0.5859843000007459,1.9815202163530288,70,0.0,1002,29,female,False,False,inspiration,inspiration,True,False
1899,0.13084434311626114,0,0,0.6514170000000377,1.1663151190402925,71,0.0,1002,29,female,False,False,expiration,expiration,True,False
1900,0.13084434311626114,1,1,0.7228454999994938,1.7934337047805295,72,0.0,1002,29,female,False,False,inspiration,expiration,True,True
1901,0.13084434311626114,0,0,0.5839562000001024,1.5083147708587534,73,0.0,1002,29,female,False,False,expiration,expiration,True,False
1902,0.13084434311626114,0,0,1.5246782000003805,1.065183409522249,74,0.0,1002,29,female,False,False,inspiration,expiration,True,False
1903,0.13084434311626114,0,0,0.7271663999999873,1.6303585940614735,75,0.0,1002,29,female,False,False,inspiration,expiration,True,False
1904,0.13084434311626114,1,1,0.7337257999997746,1.0805784855424074,76,0.0,1002,29,female,False,False,expiration,expiration,True,True
1905,0.13084434311626114,1,0,0.7259876999996777,1.8178902663333296,77,0.0,1002,29,female,False,False,expiration,expiration,False,False
1906,0.13084434311626114,1,1,0.5711731999999756,1.9103718206679918,78,0.0,1002,29,female,False,False,inspiration,expiration,True,True
1907,0.13084434311626114,1,0,0.7008154000004652,0.4642555297286779,79,0.0,1002,29,female,False,False,expiration,expiration,False,False
1988,0.13084434311626114,1,1,0.8163701999992554,0.35657119468750714,0,1.0,1002,29,female,True,True,inspiration,expiration,True,True
1989,0.13084434311626114,1,1,0.8580740000006699,0.7324480865915298,1,1.0,1002,29,female,False,False,inspiration,peak,True,True
1990,0.13084434311626114,0,0,0.5951618999997663,0.37236268768449976,2,1.0,1002,29,female,False,False,expiration,expiration,True,False
1991,0.13084434311626114,0,0,0.9078837999995812,0.37484462835271737,3,1.0,1002,29,female,False,False,expiration,expiration,True,False
1992,0.13084434311626114,1,0,0.7279673000002731,1.6806770471508388,4,1.0,1002,29,female,False,False,inspiration,expiration,False,False
1993,0.13084434311626114,0,0,0.6303840999999011,1.6276166397689218,5,1.0,1002,29,female,False,False,expiration,expiration,True,False
1994,0.13084434311626114,1,1,0.6344496000001527,0.7088234624852012,6,1.0,1002,29,female,False,False,inspiration,inspiration,True,True
1995,0.13084434311626114,1,1,0.7061653999999179,0.6401457990600437,7,1.0,1002,29,female,False,False,expiration,expiration,True,True
1996,0.13084434311626114,0,0,0.7308655000006183,0.5056705047295632,8,1.0,1002,29,female,False,False,trough,inspiration,True,False
1997,0.13084434311626114,0,1,0.7403001000002405,1.8348990809819925,9,1.0,1002,29,female,False,False,expiration,expiration,False,True
1998,0.13084434311626114,0,1,1.0837507000005644,1.5694473167416425,10,1.0,1002,29,female,False,False,inspiration,expiration,False,True
1999,0.13084434311626114,0,0,0.5891761000002589,0.9183856145588276,11,1.0,1002,29,female,False,False,expiration,expiration,True,False
2000,0.13084434311626114,0,0,0.7265659000004234,1.5018418023976337,12,1.0,1002,29,female,False,False,inspiration,expiration,True,False
2001,0.13084434311626114,0,0,0.6513580000000729,1.8340191624789848,13,1.0,1002,29,female,False,False,expiration,inspiration,True,False
2002,0.13084434311626114,1,1,0.9655672999997478,0.5979212142696483,14,1.0,1002,29,female,False,False,inspiration,expiration,True,True
2003,0.13084434311626114,1,1,0.6958267999998498,0.3937944267511328,15,1.0,1002,29,female,False,False,expiration,expiration,True,True
2004,0.13084434311626114,1,1,0.6169188999992912,1.5263207993556231,16,1.0,1002,29,female,False,False,inspiration,inspiration,True,True
2005,0.13084434311626114,1,1,0.6379764000002979,1.0632027567802005,17,1.0,1002,29,female,False,False,expiration,expiration,True,True
2006,0.13084434311626114,0,1,0.5357230999998137,1.7763080832442688,18,1.0,1002,29,female,False,False,inspiration,inspiration,False,True
2007,0.13084434311626114,1,1,0.7483794999998281,0.6178864106095956,19,1.0,1002,29,female,False,False,inspiration,expiration,True,True
2008,0.13084434311626114,1,1,0.8645262000000002,0.7651452759265369,20,1.0,1002,29,female,False,False,expiration,expiration,True,True
2009,0.13084434311626114,0,1,0.6646513000005143,1.6028465358174742,21,1.0,1002,29,female,False,False,expiration,expiration,False,True
2010,0.13084434311626114,1,1,0.6933554999995977,1.0604332027431012,22,1.0,1002,29,female,False,False,inspiration,inspiration,True,True
2011,0.13084434311626114,0,0,0.7934869000000617,0.8800271825063826,23,1.0,1002,29,female,False,False,inspiration,inspiration,True,False
2012,0.13084434311626114,0,0,1.0208514999994804,1.3099842860211015,24,1.0,1002,29,female,False,False,inspiration,inspiration,True,False
2013,0.13084434311626114,1,1,0.6845899999998437,0.7401962542437561,25,1.0,1002,29,female,False,False,inspiration,inspiration,True,True
2014,0.13084434311626114,1,1,0.6226855999993859,1.7947804082839045,26,1.0,1002,29,female,False,False,expiration,expiration,True,True
2015,0.13084434311626114,0,0,0.6184774000003017,0.3461840146871187,27,1.0,1002,29,female,False,False,expiration,expiration,True,False
2016,0.13084434311626114,1,1,0.6294652999995378,0.523801976130353,28,1.0,1002,29,female,False,False,expiration,trough,True,True
2017,0.13084434311626114,0,0,0.5955549000000246,1.3090140877180405,29,1.0,1002,29,female,False,False,expiration,expiration,True,False
2018,0.13084434311626114,0,1,0.6459865999995601,1.2552326002287264,30,1.0,1002,29,female,False,False,expiration,expiration,False,True
2019,0.13084434311626114,0,0,0.6309874000007767,0.39689562323655375,31,1.0,1002,29,female,False,False,inspiration,inspiration,True,False
2020,0.13084434311626114,1,1,0.6347955000001093,0.5901753255781981,32,1.0,1002,29,female,False,False,expiration,expiration,True,True
2021,0.13084434311626114,1,1,0.6374864000008529,1.7806739907794629,33,1.0,1002,29,female,False,False,inspiration,inspiration,True,True
2022,0.13084434311626114,1,1,0.6482101999999941,0.9390896997082878,34,1.0,1002,29,female,False,False,expiration,expiration,True,True
2023,0.13084434311626114,0,0,0.5723264000007475,0.9429326445514884,35,1.0,1002,29,female,False,False,inspiration,inspiration,True,False
2024,0.13084434311626114,0,1,0.9750316999998176,0.9918197188831503,36,1.0,1002,29,female,False,False,expiration,expiration,False,True
2025,0.13084434311626114,1,0,0.7537243999995553,1.3420658908834089,37,1.0,1002,29,female,False,False,inspiration,expiration,False,False
2026,0.13084434311626114,0,0,0.8205251999997927,1.2651349827900047,38,1.0,1002,29,female,False,False,expiration,expiration,True,False
2027,0.13084434311626114,1,1,0.7646173000002818,0.8700669127957124,39,1.0,1002,29,female,False,False,inspiration,expiration,True,True
2028,0.13084434311626114,1,1,0.692061100000501,1.6854119358580388,40,1.0,1002,29,female,False,False,expiration,expiration,True,True
2029,0.13084434311626114,1,1,0.6521080000002257,1.3923151239287168,41,1.0,1002,29,female,False,False,expiration,expiration,True,True
2030,0.13084434311626114,0,0,0.6018884000004618,1.018421366874865,42,1.0,1002,29,female,False,False,expiration,expiration,True,False
2031,0.13084434311626114,0,1,0.7126207000001159,1.5735218857873805,43,1.0,1002,29,female,False,False,expiration,trough,False,True
2032,0.13084434311626114,1,1,0.6763897999999244,0.4648463222064085,44,1.0,1002,29,female,False,False,inspiration,inspiration,True,True
2033,0.13084434311626114,0,1,0.6424100000003818,0.8250377096212045,45,1.0,1002,29,female,False,False,expiration,expiration,False,True
