,stimLvl,stimTime,rand,response,rt,precedingITI,trialNumber,trialType,stimuli,block,estIntens,estThres,estSlope,trialStart,subject,age,gender,headRest,onset,responsI,manBadOnset,manBadRespons,onset_phase,respons_phase
0,150.0,100,F,,,0.9382687218570352,,introTrial,emotion,,,,,116.1067550999578,19,24,female,True,1160,0,False,False,expiration,0
1,0.9,100,down,,,1.236907986874852,,introTrial,cRDM,,,,,121.27314980002122,19,24,female,True,1212,0,False,False,expiration,0
2,0.9,25,up,up,0.6752486999612302,1.9237567748388056,,tutorial,cRDM,,,,,165.22178289992738,19,24,female,True,1651,1658,False,False,inspiration,inspiration
3,0.9,25,down,down,0.4790018000639975,1.0503151738944725,,tutorial,cRDM,,,,,167.20504599995908,19,24,female,True,1671,1676,False,False,expiration,expiration
4,0.9,25,down,down,0.5420129999984056,0.7579450842817651,,tutorial,cRDM,,,,,168.7050106000388,19,24,female,True,1686,1691,False,False,inspiration,expiration
5,0.9,25,down,down,0.4935159999877214,1.3065262481470885,,tutorial,cRDM,,,,,170.821576599963,19,24,female,True,1707,1712,False,False,expiration,inspiration
6,0.9,25,up,up,0.4002240999834612,0.6185930690907537,,tutorial,cRDM,,,,,172.2048818999901,19,24,female,True,1721,1725,False,False,peak,expiration
7,0.9,25,down,down,0.38381440006196504,1.8424225673105428,,tutorial,cRDM,,,,,174.75476619997062,19,24,female,True,1746,1750,False,False,inspiration,expiration
8,0.9,25,up,up,0.4756860000779852,0.5710262189278482,,tutorial,cRDM,,,,,176.02138299995568,19,24,female,True,1759,1764,False,False,expiration,expiration
9,0.9,25,up,up,0.6113679999252781,0.5961329234767939,,tutorial,cRDM,,,,,177.3546711000381,19,24,female,True,1772,1778,False,False,inspiration,expiration
10,0.9,25,up,up,0.5274474000325426,1.51429275506509,,tutorial,cRDM,,,,,179.75458219996653,19,24,female,True,1796,1801,False,False,expiration,inspiration
11,0.9,25,down,down,0.4168289001099765,1.5301397495871918,,tutorial,cRDM,,,,,182.08785779995375,19,24,female,True,1820,1824,False,False,expiration,expiration
12,200.0,25,M,up,0.5162087999051437,0.7559251282819546,,tutorial,emotion,,,,,188.67090389993973,19,24,female,True,1885,1890,False,False,expiration,expiration
13,200.0,25,M,up,0.4834839999675751,1.2496854091348206,,tutorial,emotion,,,,,190.7375128000276,19,24,female,True,1906,1911,False,False,inspiration,expiration
14,200.0,25,F,up,0.5019259999971837,0.8418579292907944,,tutorial,emotion,,,,,192.3541196000297,19,24,female,True,1922,1927,False,False,expiration,expiration
15,0.0,25,F,down,0.350204800022766,0.7991826204533232,,tutorial,emotion,,,,,193.95405569998547,19,24,female,True,1938,1942,False,False,inspiration,expiration
16,0.0,25,M,down,0.488060100004077,0.4022170496503764,,tutorial,emotion,,,,,195.05400460003875,19,24,female,True,1949,1954,False,False,expiration,expiration
17,200.0,25,F,up,0.5314407000550999,1.087688896623605,,tutorial,emotion,,,,,196.92061539995484,19,24,female,True,1968,1973,False,False,inspiration,expiration
18,0.0,25,M,down,0.41691230004653335,0.32061455321846816,,tutorial,emotion,,,,,198.07049449998885,19,24,female,True,1980,1984,False,False,expiration,expiration
19,200.0,25,M,down,0.8468793000793085,0.7958295075613913,,tutorial,emotion,,,,,199.5871886999812,19,24,female,True,1995,2003,False,False,inspiration,expiration
20,0.0,25,F,down,0.6222736000781879,0.3425077252738085,,tutorial,emotion,,,,,201.0537839999888,19,24,female,True,2009,2015,False,False,expiration,expiration
21,0.0,25,F,down,0.6742582999868318,0.33458525107264114,,tutorial,emotion,,,,,202.30375449999698,19,24,female,True,2022,2029,False,False,inspiration,peak
22,0.29,25,up,up,0.5996128000551835,0.9310289743455312,,psi_staircase_training,cRDM,,0.25,0.25693124029946324,0.10500000000000002,210.90344969998117,19,24,female,True,2108,2114,False,False,expiration,expiration
23,0.25,25,up,up,0.5129961000056937,1.8481842957704742,,psi_staircase_training,cRDM,,0.21910266653183127,0.2260132002683493,0.10468632033873933,213.62000510003415,19,24,female,True,2135,2140,False,False,expiration,expiration
24,0.21,25,down,down,0.43681910005398095,1.8497772601614089,,psi_staircase_training,cRDM,,0.1900540959403307,0.19684979615540016,0.10294672984249993,216.25321929994968,19,24,female,True,2161,2165,False,False,peak,expiration
25,0.18,25,down,down,0.5379197999136522,1.8883063442741088,,psi_staircase_training,cRDM,,0.1635257589279754,0.1701521334256793,0.100381647756865,218.85312700003848,19,24,female,True,2187,2192,False,False,inspiration,expiration
26,0.15,25,up,up,0.5193036999553442,0.3691710102122852,,psi_staircase_training,cRDM,,0.14018955742449365,0.14660133511875031,0.0971307628663642,220.01976970001127,19,24,female,True,2199,2204,False,False,expiration,expiration
27,0.13,25,down,down,0.4002576000057161,1.8098338715146152,,psi_staircase_training,cRDM,,0.11987606021454796,0.12605547676183335,0.09361076941961036,222.61967139993797,19,24,female,True,2225,2229,False,False,expiration,expiration
28,0.11,25,up,up,0.5477708999533206,1.471505592188646,,psi_staircase_training,cRDM,,0.10257735236965487,0.10849103445698656,0.08958521019937955,224.7862875999417,19,24,female,True,2247,2252,False,False,inspiration,expiration
29,0.09,25,down,down,0.5534993000328541,1.690296267569566,,psi_staircase_training,cRDM,,0.08784432595859408,0.09348182153209693,0.08540131486476357,227.31949689995963,19,24,female,True,2272,2278,False,False,inspiration,peak
30,0.08,25,down,up,0.4002662999555469,1.8866551261493667,,psi_staircase_training,cRDM,,0.07518520921180863,0.0805556301471181,0.08135545354720439,230.03607030003326,19,24,female,True,2299,2303,False,False,inspiration,peak
31,0.13,25,up,up,0.8013977999798954,1.2674297847909504,,psi_staircase_training,cRDM,,0.1145374077699418,0.12103712105675656,0.09846288191283688,232.00265879998918,19,24,female,True,2319,2327,False,False,expiration,inspiration
32,0.13,25,down,down,0.7423849999904633,0.5135136198846577,,psi_staircase_training,cRDM,,0.1023941484636294,0.10857748278643099,0.09367011903258447,233.60262579994745,19,24,female,True,2335,2342,False,False,expiration,expiration
33,0.12,25,down,down,0.7741737000178546,0.6273626095548985,,psi_staircase_training,cRDM,,0.093157405715179,0.09896538803474302,0.08798398514641666,235.23586979997344,19,24,female,True,2351,2359,False,False,inspiration,expiration
34,0.11,25,down,up,0.6126214000396429,0.47252732573040396,,psi_staircase_training,cRDM,,0.0859226620933624,0.09137013233424036,0.0825226583669993,236.75247049995232,19,24,female,True,2366,2372,False,False,expiration,expiration
35,0.15,25,up,up,0.5748825999908149,0.5328725020696641,,psi_staircase_training,cRDM,,0.11419341671076727,0.12106373495359647,0.1040771037115722,238.16912690002937,19,24,female,True,2381,2387,False,False,inspiration,inspiration
36,0.15,25,up,up,0.5946306000696495,0.9968405798932116,,psi_staircase_training,cRDM,,0.1056649708055436,0.11216038512742556,0.09839775773614737,240.0023825999815,19,24,female,True,2399,2405,False,False,expiration,expiration
37,0.14,25,down,down,0.5137617000145838,1.5929220572785052,,psi_staircase_training,cRDM,,0.09948865423118264,0.10558516019316408,0.09235477322256737,242.45225430000573,19,24,female,True,2423,2428,False,False,expiration,expiration
38,0.14,25,down,down,0.6164934999542311,1.6882518620078562,,psi_staircase_training,cRDM,,0.09486542367317824,0.10057187615155468,0.0864459294934451,244.93551430001392,19,24,female,True,2448,2454,False,False,peak,expiration
39,0.1,25,up,up,0.4578884000657126,0.8127751915711092,,psi_staircase_training,cRDM,,0.09168295572891418,0.09700035705554784,0.08055226989313438,246.65210399997886,19,24,female,True,2465,2470,False,False,trough,inspiration
40,0.1,25,up,down,0.469660000060685,1.9848944456703217,,psi_staircase_training,cRDM,,0.0847774424416532,0.0904758612145288,0.08632422846431577,249.38537729997188,19,24,female,True,2493,2498,False,False,expiration,expiration
41,0.14,25,up,up,0.5431236999575049,1.8735108695792808,,psi_staircase_training,cRDM,,0.1026549570571436,0.10761550682315416,0.07514639558398256,252.0019250999904,19,24,female,True,2519,2524,False,False,expiration,expiration
42,0.14,25,up,up,0.4618427000241354,1.773665647193015,,psi_staircase_training,cRDM,,0.10026228893946776,0.1048145591645116,0.06896144888622842,254.58518970001026,19,24,female,True,2545,2550,False,False,expiration,expiration
43,0.12,25,down,down,0.6766314998967573,1.230545570054339,,psi_staircase_training,cRDM,,0.09879027028853804,0.10295867311574199,0.06314631695719862,256.55174459994305,19,24,female,True,2564,2571,False,False,inspiration,inspiration
44,0.11,25,down,down,0.5926924999803305,1.2132593691071218,,psi_staircase_training,cRDM,,0.09598950794104337,0.1000506512077823,0.061521462910556726,258.71835580002517,19,24,female,True,2586,2592,False,False,expiration,inspiration
45,0.09,25,down,down,0.7015409000450745,1.2789897659084688,,psi_staircase_training,cRDM,,0.09193257773990797,0.09615939620198233,0.06403124395386668,260.86852989997715,19,24,female,True,2608,2615,False,False,expiration,expiration
46,0.09,25,up,up,0.5047829999821261,1.0653781333054542,,psi_staircase_training,cRDM,,0.08542335639758561,0.09036560302890724,0.07486912498603686,262.9182102000341,19,24,female,True,2628,2633,False,False,inspiration,expiration
47,0.09,25,up,up,0.4846239000326023,1.7947042622546008,,psi_staircase_training,cRDM,,0.0785767583282905,0.0841962461781089,0.08512851939019099,265.50143189996015,19,24,female,True,2654,2659,False,False,inspiration,inspiration
48,0.08,25,down,down,0.4833317999728024,0.8234772631550731,,psi_staircase_training,cRDM,,0.07184023955618139,0.07804733304806839,0.09403004202561044,267.08476060000254,19,24,female,True,2670,2675,False,False,expiration,expiration
49,0.08,25,down,down,0.5847297000000253,1.2182970648282103,,psi_staircase_training,cRDM,,0.06504217105988908,0.07183976654393953,0.10297544090060873,269.0682657000143,19,24,female,True,2690,2696,False,False,inspiration,expiration
50,0.08,25,up,up,0.4364972000475973,1.3830955049374376,,psi_staircase_training,cRDM,,0.05888234541804405,0.06612727259110447,0.10975198093049117,271.33455969998613,19,24,female,True,2712,2716,False,False,inspiration,inspiration
51,0.08,25,up,down,0.6064632999477908,0.3528383737758273,,psi_staircase_training,cRDM,,0.05352757084941362,0.06107755053904795,0.11437316167973473,272.3845441000303,19,24,female,True,2723,2729,False,False,expiration,expiration
52,100.0,25,M,down,0.6648362000705674,1.9937505539120368,,psi_staircase_training,emotion,,100.0,100.0,25.00050000000001,280.53419889998617,19,24,female,True,2804,2811,False,False,expiration,inspiration
53,145.0,25,M,up,1.1532339000841605,0.8910204903081553,,psi_staircase_training,emotion,,145.25719053245996,145.25719053245996,25.000500000000283,282.4507985999808,19,24,female,True,2823,2835,False,False,expiration,expiration
54,121.0,25,F,up,0.5709658999694511,1.0228422034112552,,psi_staircase_training,emotion,,120.36392901436103,120.36392901436103,25.71326925488699,284.98404709994793,19,24,female,True,2849,2855,False,False,inspiration,expiration
55,97.0,25,F,down,0.6904763000784442,1.953852697288288,,psi_staircase_training,emotion,,102.38876106084959,102.38876106084959,26.14633372628729,287.86753789999057,19,24,female,True,2878,2885,False,False,inspiration,expiration
56,113.0,25,M,up,0.7185958999907598,1.651960607931554,,psi_staircase_training,emotion,,114.01123255420406,114.01123255420406,23.003056417783352,290.567457200028,19,24,female,True,2905,2912,False,False,inspiration,expiration
57,105.0,25,F,up,0.9242036999203264,0.5966316455439606,,psi_staircase_training,emotion,,104.94359593877377,104.94359593877377,22.15060322358215,292.2337715999456,19,24,female,True,2921,2930,False,False,expiration,inspiration
58,92.0,25,M,up,0.6956792999990284,1.289230025561632,,psi_staircase_training,emotion,,97.32104229908207,97.32104229908207,23.933073614490553,294.80035569996113,19,24,female,True,2947,2954,False,False,expiration,expiration
59,74.0,25,F,down,0.6311127000954002,0.8587620875084714,,psi_staircase_training,emotion,,86.47781129474322,86.47781129474322,31.61110671766409,296.7169576999732,19,24,female,True,2966,2972,False,False,inspiration,expiration
60,78.0,25,F,down,0.6794172000372782,0.4917086851707221,,psi_staircase_training,emotion,,92.62262149239127,92.62262149239127,29.238995941631327,298.18357079999987,19,24,female,True,2981,2988,False,False,expiration,expiration
61,80.0,25,M,down,1.1112079999875275,0.7088406606566949,,psi_staircase_training,emotion,,96.60043925312799,96.60043925312799,27.102653483725163,299.9168335000286,19,24,female,True,2998,3009,False,False,inspiration,expiration
62,115.0,25,F,up,0.7246622999664396,1.0645634663104484,,psi_staircase_training,emotion,,99.31700566148264,99.31700566148264,25.224425752927285,302.43340670003084,19,24,female,True,3023,3030,False,False,inspiration,inspiration
63,81.0,25,F,up,0.5906365000410005,0.4721508164804989,,psi_staircase_training,emotion,,97.09203600605318,97.09203600605318,23.381374914837732,303.98336219997145,19,24,female,True,3039,3045,False,False,expiration,expiration
64,69.0,25,F,down,0.6357466999907047,1.9506083452548928,,psi_staircase_training,emotion,,90.82289761999789,90.82289761999789,29.67906932052525,306.8832541999873,19,24,female,True,3068,3074,False,False,expiration,expiration
65,71.0,25,M,down,0.5618570999940857,1.4033877762206082,,psi_staircase_training,emotion,,92.89794236169143,92.89794236169143,28.164021407894047,309.2831685999408,19,24,female,True,3092,3098,False,False,inspiration,expiration
66,115.0,25,M,up,0.8262564999749884,1.0242531514920352,,psi_staircase_training,emotion,,94.53200824805464,94.53200824805464,26.77439902365521,311.199740299955,19,24,female,True,3111,3119,False,False,expiration,inspiration
67,72.0,25,F,down,0.9114296999759972,0.7878369809123547,,psi_staircase_training,emotion,,93.0206665076142,93.0206665076142,25.36545242338425,313.14969939994626,19,24,female,True,3130,3139,False,False,expiration,expiration
68,114.0,25,F,up,0.7094081999966875,0.9545236648957314,,psi_staircase_training,emotion,,94.28163060845458,94.28163060845458,23.998771166319187,315.3665477000177,19,24,female,True,3153,3160,False,False,inspiration,expiration
69,73.0,25,M,down,0.7924869999988005,1.9677937417491032,,psi_staircase_training,emotion,,93.1042148683568,93.1042148683568,22.644427427657877,318.3995031999657,19,24,female,True,3183,3191,False,False,inspiration,expiration
70,112.0,25,M,down,1.2012772000161929,1.4872471611491644,,psi_staircase_training,emotion,,94.0854472985873,94.0854472985873,21.376588858598886,321.0327209000243,19,24,female,True,3209,3221,False,False,inspiration,expiration
71,122.0,25,M,up,0.5551321000093594,0.7857806072191502,,psi_staircase_training,emotion,,98.10728158441557,98.10728158441557,26.520678930927684,323.36588409997063,19,24,female,True,3233,3239,False,False,expiration,inspiration
72,121.0,25,M,up,0.6187874999595806,0.4942674771795688,,psi_staircase_training,emotion,,97.09933631301529,97.09933631301529,25.346373526662287,324.7492391000269,19,24,female,True,3246,3252,False,False,inspiration,expiration
73,74.0,25,F,down,0.7864500000141561,0.6664699863406642,,psi_staircase_training,emotion,,96.27063260849752,96.27063260849752,24.273927496781052,326.38254919997416,19,24,female,True,3263,3271,False,False,expiration,inspiration
74,119.0,25,F,up,0.5909211999969557,1.1241517384632356,,psi_staircase_training,emotion,,97.11600150070204,97.11600150070204,23.188960777949518,328.6490985000273,19,24,female,True,3285,3291,False,False,expiration,expiration
75,76.0,25,F,down,0.7069456001045182,1.3227998034680593,,psi_staircase_training,emotion,,96.39480888127548,96.39480888127548,22.19132470450644,330.89905829995405,19,24,female,True,3308,3315,False,False,expiration,expiration
76,118.0,25,M,up,0.6008287000004202,0.7147000696772977,,psi_staircase_training,emotion,,97.13766258532118,97.13766258532118,21.201636932499326,332.66619949997397,19,24,female,True,3326,3332,False,False,inspiration,inspiration
77,78.0,25,M,down,0.7551776999607682,1.9714017003397064,,psi_staircase_training,emotion,,96.52996433570948,96.52996433570948,20.31436966908717,335.59885920002125,19,24,female,True,3355,3363,False,False,inspiration,peak
78,79.0,25,F,,,0.9673020371318664,,psi_staircase_training,emotion,,97.19903020748322,97.19903020748322,19.437211138092906,337.68211389996577,19,24,female,True,3376,0,False,False,expiration,0
79,79.0,25,F,down,1.5019885000074282,0.9673020371318664,,psi_staircase_training,emotion,,97.19903020748322,97.19903020748322,19.437211138092906,341.33198859996634,19,24,female,True,3412,3427,False,False,expiration,expiration
80,116.0,25,F,up,0.7491330000339076,0.8050664671474497,,psi_staircase_training,emotion,,97.78223382448203,97.78223382448203,18.657683862519907,343.9818837000057,19,24,female,True,3439,3446,False,False,expiration,inspiration
81,82.0,25,M,down,1.269657399971038,1.7837672980028283,,psi_staircase_training,emotion,,97.22881663916858,97.22881663916858,17.901075183315328,346.86537479993416,19,24,female,True,3468,3481,False,False,expiration,peak
82,114.0,25,M,up,0.8121376999188215,1.894648289649712,,psi_staircase_training,emotion,,97.82632232007549,97.82632232007549,17.220642450710212,350.36488509993075,19,24,female,True,3503,3511,False,False,inspiration,expiration
83,0.29,25,up,up,0.5837238999083638,1.9098449719936053,,psi_staircase,cRDM,,0.25,0.25693124029946324,0.10500000000000002,366.56426719995216,19,24,female,True,3665,3671,False,False,inspiration,inspiration
84,0.25,25,up,up,0.5433878999901935,1.7035649549167986,,psi_staircase,cRDM,,0.21910266653183127,0.2260132002683493,0.10468632033873933,369.097617899999,19,24,female,True,3690,3695,False,False,expiration,expiration
85,0.21,25,down,down,0.4254218999994919,1.147532961030167,,psi_staircase,cRDM,,0.1900540959403307,0.19684979615540016,0.10294672984249993,371.0475781999994,19,24,female,True,3709,3713,False,False,inspiration,expiration
86,0.18,25,down,down,0.5751838000724092,0.802114534180608,,psi_staircase,cRDM,,0.1635257589279754,0.1701521334256793,0.100381647756865,372.5308326999657,19,24,female,True,3724,3730,False,False,expiration,expiration
87,0.15,25,up,up,0.5612412999616936,0.40903491283896026,,psi_staircase,cRDM,,0.14018955742449365,0.14660133511875031,0.0971307628663642,373.7807901999913,19,24,female,True,3737,3743,False,False,inspiration,inspiration
88,0.13,25,down,down,0.6466220000293106,1.6976584327052842,,psi_staircase,cRDM,,0.11987606021454796,0.12605547676183335,0.09361076941961036,376.29736379999673,19,24,female,True,3762,3768,False,False,expiration,trough
89,0.11,25,up,up,0.5823710999684408,1.715970322350189,,psi_staircase,cRDM,,0.10257735236965487,0.10849103445698656,0.08958521019937955,378.93059739994345,19,24,female,True,3788,3794,False,False,expiration,expiration
90,0.09,25,up,down,1.210800000000745,0.9493438625711216,,psi_staircase,cRDM,,0.08784432595859408,0.09348182153209693,0.08540131486476357,380.74718960002076,19,24,female,True,3806,3818,False,False,inspiration,expiration
91,0.15,25,down,down,0.7012140000006184,0.7807271649988069,,psi_staircase,cRDM,,0.13155912473180306,0.1381188895520143,0.0993725908154588,383.01378369994933,19,24,female,True,3829,3836,False,False,expiration,inspiration
92,0.14,25,down,down,0.9979299999540672,1.7129502219602948,,psi_staircase,cRDM,,0.11766356181723595,0.12390200059915553,0.09450488567713924,385.6970627999399,19,24,female,True,3856,3866,False,False,expiration,expiration
93,0.13,25,down,down,0.6210649000713602,1.0831861985293465,,psi_staircase,cRDM,,0.10674922597039307,0.1126411889911647,0.08925619231942186,388.04691419994924,19,24,female,True,3879,3885,False,False,inspiration,expiration
94,0.12,25,down,down,0.5995274999877438,0.9327856165508629,,psi_staircase,cRDM,,0.09811428985799032,0.10367787741672026,0.08428169684318693,389.86341410002206,19,24,female,True,3898,3904,False,False,expiration,inspiration
95,0.12,25,down,down,0.7782364999875426,0.4693472481445426,,psi_staircase,cRDM,,0.09096221507811762,0.0962626731048912,0.08029559916633151,391.19681649992714,19,24,female,True,3911,3919,False,False,expiration,expiration
96,0.09,25,down,up,0.5500584999099374,1.097291790919265,,psi_staircase,cRDM,,0.08555328036869046,0.09055096870482823,0.07570900049953558,393.33007389993867,19,24,female,True,3932,3938,False,False,inspiration,inspiration
97,0.13,25,up,up,0.6390069999033585,1.9929954140153612,,psi_staircase,cRDM,,0.10413487803335836,0.10842448320167976,0.06498238745360273,396.1299755999353,19,24,female,True,3960,3966,False,False,inspiration,expiration
98,0.13,25,up,down,0.6661248999880627,0.8002573268859143,,psi_staircase,cRDM,,0.10009796959763456,0.10398807489932664,0.05893044232058985,397.82989940000704,19,24,female,True,3977,3984,False,False,expiration,expiration
99,0.15,25,up,up,0.7088539999676868,0.5957800035242083,,psi_staircase,cRDM,,0.1213236617475365,0.12818642297498445,0.10396262396757974,399.36319930001633,19,24,female,True,3993,4000,False,False,inspiration,expiration
100,0.15,25,up,down,0.9098693999694659,0.7897565643343731,,psi_staircase,cRDM,,0.11344553090091306,0.11991152014463735,0.0979520029977358,401.1131142999511,19,24,female,True,4010,4019,False,False,expiration,inspiration
101,0.19,25,down,down,0.7496398999355733,1.362839289911944,,psi_staircase,cRDM,,0.1455543752539801,0.15434553838961115,0.13317560629267786,403.64634999993723,19,24,female,True,4035,4042,False,False,expiration,expiration
102,0.18,25,up,up,0.6776065999874845,0.4227483014800129,,psi_staircase,cRDM,,0.13458333506050518,0.14319129758854315,0.13040033621601269,405.0796270000282,19,24,female,True,4050,4057,False,False,inspiration,inspiration
103,0.17,25,up,up,0.7527971999952571,1.8243977128471789,,psi_staircase,cRDM,,0.12554252782642697,0.13393499110746254,0.1271357803850737,407.8461855000351,19,24,female,True,4077,4085,False,False,inspiration,expiration
104,0.17,25,down,down,0.662090600002557,0.4998084610415542,,psi_staircase,cRDM,,0.1180120498245583,0.12617347187963324,0.1236357821628586,409.362857799977,19,24,female,True,4093,4100,False,False,expiration,expiration
105,0.14,25,up,up,0.4875886000227183,1.9371920809084362,,psi_staircase,cRDM,,0.11200771527335804,0.11990501348117097,0.1196346217984348,412.229396199924,19,24,female,True,4121,4126,False,False,expiration,expiration
106,0.14,25,down,down,0.6273008999414742,0.5379152707487252,,psi_staircase,cRDM,,0.10557481993088692,0.11339720695349817,0.11849980694476675,413.5126604000106,19,24,female,True,4134,4140,False,False,expiration,inspiration
107,0.14,25,down,down,0.4927308999467641,0.7191936794546145,,psi_staircase,cRDM,,0.10019070753836194,0.10787253176774116,0.11637044875608762,415.12925709993584,19,24,female,True,4150,4155,False,False,expiration,expiration
108,0.15,25,up,up,0.6830403000349179,0.3622083158397144,,psi_staircase,cRDM,,0.0957677483682136,0.10325734038257314,0.11345836062971988,416.2459184000037,19,24,female,True,4161,4168,False,False,expiration,inspiration
109,0.12,25,up,up,0.7447625999338925,0.845661496292976,,psi_staircase,cRDM,,0.09274852124682403,0.0999490487712245,0.10907937936022703,418.0291734000202,19,24,female,True,4179,4186,False,False,expiration,expiration
110,0.13,25,down,up,0.6357039000140503,1.918182396419154,,psi_staircase,cRDM,,0.08801024458093452,0.09524781335796433,0.10964051003208994,420.9623734999914,19,24,female,True,4209,4215,False,False,expiration,expiration
111,0.16,25,up,up,0.5666804000502452,1.559148851983515,,psi_staircase,cRDM,,0.10229570289520712,0.11040809126535674,0.12289298048599913,423.41229959996423,19,24,female,True,4233,4239,False,False,inspiration,peak
112,0.11,25,down,down,0.515813700039871,1.8818961671568373,,psi_staircase,cRDM,,0.0992166863369565,0.1070651409661484,0.11889470000469662,426.1122025999939,19,24,female,True,4260,4265,False,False,inspiration,inspiration
113,0.11,25,down,down,0.6606843000045046,0.3637348293735472,,psi_staircase,cRDM,,0.09298333640168074,0.1012227502546259,0.1248172646136992,427.262330199941,19,24,female,True,4272,4279,False,False,expiration,expiration
114,0.11,25,down,down,0.7565607000142336,0.8708770303027584,,psi_staircase,cRDM,,0.08727464145905779,0.09579354048182692,0.1290511306410807,429.0454198999796,19,24,female,True,4289,4297,False,False,inspiration,expiration
115,0.11,25,up,up,0.5916472000535578,1.1751648916900048,,psi_staircase,cRDM,,0.0821440212188482,0.09084683097547762,0.13183715828130374,431.2453339999775,19,24,female,True,4311,4317,False,False,inspiration,inspiration
116,0.12,25,up,up,0.5714011999079958,1.1404920637734162,,psi_staircase,cRDM,,0.07758137052009591,0.08639065924140532,0.13345018723548185,433.2286182999378,19,24,female,True,4331,4337,False,False,expiration,expiration
117,0.12,25,up,down,0.8911560999695212,1.8542404535425008,,psi_staircase,cRDM,,0.07394983014301601,0.08273613140228131,0.13310195468108316,435.9118325000163,19,24,female,True,4358,4367,False,False,expiration,expiration
118,0.11,25,down,down,0.7381348999915645,0.5757042091372764,,psi_staircase,cRDM,,0.08699601179079597,0.09602920666776192,0.13684209767692945,437.6448850999586,19,24,female,True,4376,4383,False,False,inspiration,expiration
119,0.1,25,down,up,0.9806217999430372,0.9355853188825748,,psi_staircase,cRDM,,0.08235665626028722,0.09153790382976552,0.13908491888095,439.57840599992784,19,24,female,True,4395,4405,False,False,expiration,expiration
120,0.16,25,up,up,0.7737623000284657,1.9171941646303168,,psi_staircase,cRDM,,0.09562879831254943,0.1044055447520972,0.13295721059099308,442.7282537999563,19,24,female,True,4426,4434,False,False,expiration,expiration
121,0.1,25,down,down,0.849422900006175,1.0468159375455883,,psi_staircase,cRDM,,0.0930977583739482,0.10167703339223014,0.12996575475667194,444.81151070003403,19,24,female,True,4447,4455,False,False,expiration,inspiration
122,0.1,25,up,up,0.7042187999468297,0.5164737500667236,,psi_staircase,cRDM,,0.0881247029623775,0.09700541521209467,0.13453216826034925,446.44476280000526,19,24,female,True,4463,4470,False,False,expiration,expiration
123,0.1,25,up,down,0.9388758999994024,1.1218488575952972,,psi_staircase,cRDM,,0.08354889415717967,0.09264850198493864,0.13784817444414388,448.52805379999336,19,24,female,True,4484,4493,False,False,inspiration,expiration
124,0.16,25,up,up,0.7766744999680668,0.872949833811669,,psi_staircase,cRDM,,0.09597227504905842,0.10461730179863292,0.1309618148393464,450.6113253999502,19,24,female,True,4505,4513,False,False,expiration,trough
125,0.1,25,down,down,0.738131400081329,1.5171925729297733,,psi_staircase,cRDM,,0.09380326592489843,0.10224084213388104,0.1278191872833753,453.17789339995943,19,24,female,True,4531,4538,False,False,expiration,expiration
126,0.1,25,down,down,0.7295587999979034,1.6129961317967791,,psi_staircase,cRDM,,0.08906944750088086,0.09783071653076313,0.1327227463472697,455.7944358999375,19,24,female,True,4557,4564,False,False,expiration,expiration
127,0.1,25,up,up,0.6363202000502497,1.4355856721505582,,psi_staircase,cRDM,,0.08470528270769034,0.09370550407617197,0.13634258846338784,458.22770309995394,19,24,female,True,4581,4587,False,False,inspiration,expiration
128,0.09,25,down,down,0.608759600087069,1.1563571583268302,,psi_staircase,cRDM,,0.08070722518834196,0.08987831250701868,0.13893100323409993,460.2942570999729,19,24,female,True,4602,4608,False,False,expiration,inspiration
129,0.17,25,down,down,0.6378350000595674,1.570351431396842,,psi_staircase,cRDM,,0.07691038750592938,0.08623262930925946,0.1412208128789673,462.744174499996,19,24,female,True,4626,4632,False,False,expiration,expiration
130,0.09,25,up,up,0.5678645999869332,0.9024059914955675,,psi_staircase,cRDM,,0.07516401586760539,0.08436389651980801,0.13936718779697735,464.5441071999958,19,24,female,True,4644,4650,False,False,inspiration,expiration
131,0.17,25,up,up,0.8289680000161752,0.6698605599665202,,psi_staircase,cRDM,,0.07170734498416549,0.08102505261534859,0.1411521255943163,466.04404900001833,19,24,female,True,4659,4667,False,False,expiration,expiration
132,0.09,25,down,down,0.6127073999959975,1.5884691026013458,,psi_staircase,cRDM,,0.07015978104113105,0.07936393649246112,0.13943194589062166,468.727297800011,19,24,female,True,4686,4692,False,False,expiration,expiration
133,100.0,25,M,up,0.8420780000742525,1.949957953491657,,psi_staircase,emotion,,100.0,100.0,25.00050000000001,479.67690169997513,19,24,female,True,4796,4804,False,False,expiration,expiration
134,55.0,25,M,down,0.6671990000177175,1.023737333282284,,psi_staircase,emotion,,54.742809467541896,54.742809467541896,25.00050000000011,481.87682100001257,19,24,female,True,4818,4825,False,False,inspiration,expiration
135,79.0,25,F,down,1.3575577998999506,0.8943235636752573,,psi_staircase,emotion,,79.636070985635,79.636070985635,25.71326925488641,483.7934431999456,19,24,female,True,4837,4851,False,False,expiration,peak
136,103.0,25,F,up,0.43196930002886796,0.7016279376389118,,psi_staircase,emotion,,97.61123893914808,97.61123893914808,26.1463337262867,486.20998709998094,19,24,female,True,4861,4865,False,False,expiration,expiration
137,87.0,25,M,down,0.9243734000483528,0.8745100781324793,,psi_staircase,emotion,,85.98876744579668,85.98876744579668,23.003056417783494,487.8766064000083,19,24,female,True,4878,4887,False,False,inspiration,expiration
138,95.0,25,F,up,0.7735217000590637,1.7347450615334572,,psi_staircase,emotion,,95.05640406123078,95.05640406123078,22.150603223582724,490.87649249995593,19,24,female,True,4908,4916,False,False,peak,expiration
139,84.0,25,M,down,1.4855224000057206,0.7807602478298844,,psi_staircase,emotion,,88.41622646561945,88.41622646561945,20.597853251064073,492.77645230002236,19,24,female,True,4927,4942,False,False,expiration,peak
140,92.0,25,F,up,0.6454357000766322,1.7557288721844193,,psi_staircase,emotion,,92.48012886422012,92.48012886422012,17.547034846052448,496.3595413999865,19,24,female,True,4963,4969,False,False,inspiration,inspiration
141,84.0,25,F,up,0.986148600000888,1.6682312588216588,,psi_staircase,emotion,,88.47501306238607,88.47501306238607,16.344870876655484,498.99286170001136,19,24,female,True,4989,4999,False,False,expiration,expiration
142,71.0,25,M,up,0.7352441999828443,1.8814445979115395,,psi_staircase,emotion,,83.1053338170673,83.1053338170673,23.85893214584573,502.19273060001433,19,24,female,True,5021,5028,False,False,expiration,expiration
143,57.0,25,F,up,0.5632927999831736,0.6227199632804876,,psi_staircase,emotion,,75.78496656206578,75.78496656206578,31.228802366190468,503.8926782000344,19,24,female,True,5038,5044,False,False,inspiration,inspiration
144,47.0,25,F,down,0.5457076999591663,1.0737157276423257,,psi_staircase,emotion,,67.7258640881999,67.7258640881999,36.082414765125435,505.8592846000101,19,24,female,True,5058,5063,False,False,expiration,expiration
145,49.0,25,F,up,0.7700661999406293,1.10874960252785,,psi_staircase,emotion,,70.86854104026828,70.86854104026828,34.89813424079888,507.8758918000385,19,24,female,True,5078,5086,False,False,inspiration,expiration
146,42.0,25,M,down,0.8979139999719337,1.3854455298405983,,psi_staircase,emotion,,63.92184488422365,63.92184488422365,37.96949466466688,510.4090823000297,19,24,female,True,5103,5112,False,False,inspiration,expiration
147,43.0,25,M,down,0.9083191000390798,1.9479845550800616,,psi_staircase,emotion,,66.60344985090366,66.60344985090366,37.12867499377583,513.6256741000107,19,24,female,True,5135,5144,False,False,inspiration,expiration
148,44.0,25,F,down,1.3681682999012992,1.836020690324088,,psi_staircase,emotion,,68.84673508158563,68.84673508158563,36.32208738795147,516.7088814999443,19,24,female,True,5166,5180,False,False,inspiration,expiration
149,45.0,25,F,up,1.1815922999521715,1.678138492287356,,psi_staircase,emotion,,70.75514591963622,70.75514591963622,35.548170912438756,520.1254511999432,19,24,female,True,5200,5212,False,False,inspiration,expiration
150,40.0,25,M,down,0.26683310000225896,1.7175879147496742,,psi_staircase,emotion,,65.56732720855999,65.56732720855999,37.88766663345069,523.4086344999961,19,24,female,True,5233,5236,False,False,inspiration,inspiration
151,93.0,25,M,up,0.5757062000920996,0.6039715709578617,,psi_staircase,emotion,,67.3041353370926,67.3041353370926,37.272361878087146,524.7752539999783,19,24,female,True,5247,5253,False,False,expiration,expiration
152,38.0,25,M,down,0.8424919999670237,0.9854805940811784,,psi_staircase,emotion,,65.72162463065064,65.72162463065064,36.659638634777004,526.7084989999421,19,24,female,True,5266,5274,False,False,inspiration,expiration
153,95.0,25,M,up,0.7615294998977333,0.5537461798044228,,psi_staircase,emotion,,67.13780269942451,67.13780269942451,35.989416119215505,528.4584392999532,19,24,female,True,5284,5292,False,False,expiration,inspiration
154,37.0,25,F,down,0.6993154999800026,0.6604666533256703,,psi_staircase,emotion,,65.85016551738136,65.85016551738136,35.32289703594081,530.2416849000148,19,24,female,True,5301,5308,False,False,inspiration,expiration
155,96.0,25,F,up,0.8434203000506386,1.3845448264888218,,psi_staircase,emotion,,67.03811966782372,67.03811966782372,34.61136970356213,532.6585877999896,19,24,female,True,5326,5334,False,False,inspiration,peak
156,37.0,25,F,down,0.7037956999847665,0.4771430863633446,,psi_staircase,emotion,,65.95912431004174,65.95912431004174,33.90771244309172,534.3082342999987,19,24,female,True,5342,5349,False,False,expiration,expiration
157,96.0,25,M,up,0.8085401999996975,1.7971685216389834,,psi_staircase,emotion,,66.98627166718566,66.98627166718566,33.16706564972018,537.1414590999483,19,24,female,True,5370,5378,False,False,expiration,expiration
158,37.0,25,M,down,0.7310813000658527,0.5715883433263207,,psi_staircase,emotion,,66.0525117342654,66.0525117342654,32.4396844933752,538.8578865999589,19,24,female,True,5388,5395,False,False,inspiration,inspiration
159,96.0,25,F,up,0.6507271999726072,0.6381113911808387,,psi_staircase,emotion,,66.9405047185341,66.9405047185341,31.68710500995332,540.5582566999366,19,24,female,True,5405,5412,False,False,expiration,expiration
160,37.0,25,F,down,0.7093939000042155,1.7868472055674098,,psi_staircase,emotion,,66.13218265365182,66.13218265365182,30.95415793951457,543.3245535999304,19,24,female,True,5432,5439,False,False,expiration,expiration
161,96.0,25,M,down,1.1034557999810204,1.109290728870052,,psi_staircase,emotion,,66.89981069612436,66.89981069612436,30.208675893439842,545.4745027000316,19,24,female,True,5454,5465,False,False,inspiration,expiration
162,101.0,25,M,up,0.7479506999952719,0.8169249197478732,,psi_staircase,emotion,,70.23619013673911,70.23619013673911,33.63673720302702,547.7410393999891,19,24,female,True,5476,5483,False,False,expiration,inspiration
163,38.0,25,F,down,0.7206952000269666,1.4411259620824552,,psi_staircase,emotion,,69.46653754453894,69.46653754453894,32.98469935493984,550.2743120000232,19,24,female,True,5502,5509,False,False,expiration,expiration
164,101.0,25,M,up,0.6567370999837294,1.500778973166925,,psi_staircase,emotion,,70.16551767138418,70.16551767138418,32.34473100420093,552.8242180999368,19,24,female,True,5527,5534,False,False,expiration,expiration
165,39.0,25,F,down,0.7368413000367582,0.4865321416935943,,psi_staircase,emotion,,69.48605889178478,69.48605889178478,31.69400016691026,554.3241627999814,19,24,female,True,5542,5549,False,False,expiration,inspiration
166,101.0,25,M,up,0.692881099996157,1.6765064643666727,,psi_staircase,emotion,,70.1278648874168,70.1278648874168,31.05328158341841,557.0740483999251,19,24,female,True,5570,5577,False,False,expiration,expiration
167,40.0,25,F,down,0.6760353000136092,1.5907885847654568,,psi_staircase,emotion,,69.5278136199024,69.5278136199024,30.416474995895786,559.7239685000386,19,24,female,True,5596,5603,False,False,expiration,expiration
168,100.0,25,M,up,0.7597151999361813,0.9535253307881042,,psi_staircase,emotion,,70.1187974420049,70.1187974420049,29.787017459575853,561.7072138999356,19,24,female,True,5616,5624,False,False,inspiration,inspiration
169,40.0,25,F,down,0.6215627000201494,1.5397536455533498,,psi_staircase,emotion,,69.56691854510531,69.56691854510531,29.167864491478728,564.3573886000087,19,24,female,True,5643,5649,False,False,trough,inspiration
170,99.0,25,M,up,0.7016596000175923,1.8090825194843658,,psi_staircase,emotion,,70.09164084966207,70.09164084966207,28.566521085380007,567.1403356000083,19,24,female,True,5670,5677,False,False,expiration,expiration
171,41.0,25,M,down,0.6497048999881372,1.943227147459932,,psi_staircase,emotion,,69.58193667554278,69.58193667554278,27.974676105975927,570.1402318000328,19,24,female,True,5700,5706,False,False,inspiration,inspiration
172,98.0,25,F,up,0.6946126000257209,1.0188560788815857,,psi_staircase,emotion,,70.06981840446605,70.06981840446605,27.402317424993324,572.1573543000268,19,24,female,True,5721,5728,False,False,expiration,expiration
173,42.0,25,F,down,0.6425723999273032,0.7321343901905588,,psi_staircase,emotion,,69.59638888077305,69.59638888077305,26.84431929225103,573.923426699941,19,24,female,True,5738,5744,False,False,expiration,expiration
174,97.0,25,F,down,1.5269512999802828,0.375249624764418,,psi_staircase,emotion,,70.05288718442921,70.05288718442921,26.30626875825431,575.2900458000368,19,24,female,True,5752,5767,False,False,expiration,expiration
175,103.0,25,M,up,0.6260112000163645,0.6257447092587824,,psi_staircase,emotion,,72.39150527754694,72.39150527754694,29.05432457466937,577.7899680000264,19,24,female,True,5777,5783,False,False,inspiration,expiration
176,43.0,25,M,down,0.7087250000331551,0.4580125751822438,,psi_staircase,emotion,,71.95973915948072,71.95973915948072,28.51902567022623,579.2232461000094,19,24,female,True,5791,5798,False,False,expiration,expiration
177,102.0,25,F,up,0.5577792000258341,0.8401338619346517,,psi_staircase,emotion,,72.40015214996251,72.40015214996251,27.994675211761646,581.1231826000147,19,24,female,True,5810,5816,False,False,expiration,expiration
178,44.0,25,F,down,0.6577165999915451,1.43538842014579,,psi_staircase,emotion,,71.99568807729062,71.99568807729062,27.488690772513362,583.4561941999708,19,24,female,True,5834,5841,False,False,peak,expiration
179,101.0,25,F,down,0.8976155000273138,1.39009708515797,,psi_staircase,emotion,,72.41364541898967,72.41364541898967,26.99243320610187,585.856358799967,19,24,female,True,5858,5867,False,False,expiration,expiration
180,106.0,25,M,up,0.5443755000596866,1.5917255433809951,,psi_staircase,emotion,,74.54577798494985,74.54577798494985,29.643144416843352,588.6895747999662,19,24,female,True,5886,5891,False,False,peak,expiration
181,44.0,25,M,down,0.6908057999098673,0.530143380930058,,psi_staircase,emotion,,74.15610340405752,74.15610340405752,29.146288196283265,590.1061723999446,19,24,female,True,5900,5907,False,False,expiration,expiration
182,106.0,25,M,up,0.6315750000067055,1.2019905664292945,,psi_staircase,emotion,,74.54606403006552,74.54606403006552,28.664657146618623,592.3394068999913,19,24,female,True,5923,5929,False,False,inspiration,expiration
183,0.06702727266208934,25,down,up,1.052737000049092,0.3827908962064012,,experiment,cRDM,0.0,,,,617.9051660000114,19,24,female,True,6178,6189,False,False,expiration,expiration
184,0.06702727266208934,25,up,up,0.919594099977985,1.2556713572598672,,experiment,cRDM,0.0,,,,620.4883889999472,19,24,female,True,6204,6213,False,False,inspiration,expiration
185,0.06702727266208934,25,down,down,0.7733510000398383,1.3559816680336103,,experiment,cRDM,0.0,,,,623.0216373000294,19,24,female,True,6229,6237,False,False,expiration,inspiration
186,0.06702727266208934,25,up,up,0.7567503000609577,0.33512742820858593,,experiment,cRDM,0.0,,,,624.3882403000025,19,24,female,True,6243,6251,False,False,inspiration,expiration
187,0.06702727266208934,25,down,up,0.8244603000348434,1.8697248256954262,,experiment,cRDM,0.0,,,,627.2714610999683,19,24,female,True,6272,6280,False,False,expiration,expiration
188,0.06702727266208934,25,down,down,0.6419963000807911,1.6848124848803954,,experiment,cRDM,0.0,,,,630.0550226999912,19,24,female,True,6300,6306,False,False,expiration,expiration
189,0.06702727266208934,25,up,up,0.676363299950026,1.5311068739147975,,experiment,cRDM,0.0,,,,632.5046184000092,19,24,female,True,6324,6331,False,False,inspiration,expiration
190,0.06702727266208934,25,down,up,0.5960931000299752,1.2831786681703965,,experiment,cRDM,0.0,,,,634.7378412999677,19,24,female,True,6346,6352,False,False,expiration,expiration
191,0.06702727266208934,25,up,down,0.665469600004144,0.3079840115287156,,experiment,cRDM,0.0,,,,635.9045161999528,19,24,female,True,6358,6365,False,False,inspiration,peak
192,0.06702727266208934,25,up,up,0.5765206000069156,0.8634759738245588,,experiment,cRDM,0.0,,,,637.7044155999321,19,24,female,True,6376,6382,False,False,expiration,expiration
193,0.06702727266208934,25,down,down,0.5123643000843003,1.4032354154548181,,experiment,cRDM,0.0,,,,639.9376808999805,19,24,female,True,6398,6403,False,False,inspiration,inspiration
194,0.06702727266208934,25,up,up,0.4833481999812648,1.1820474822017095,,experiment,cRDM,0.0,,,,641.8876011000248,19,24,female,True,6418,6423,False,False,inspiration,expiration
195,0.06702727266208934,25,up,down,0.4587852999102324,1.7281581054861241,,experiment,cRDM,0.0,,,,644.3541081999429,19,24,female,True,6443,6448,False,False,inspiration,inspiration
196,0.06702727266208934,25,up,up,0.477213800069876,1.4565874744493068,,experiment,cRDM,0.0,,,,646.5207886999706,19,24,female,True,6464,6469,False,False,expiration,expiration
197,0.06702727266208934,25,down,down,0.9076045999536292,1.1844783517460595,,experiment,cRDM,0.0,,,,648.4373646000167,19,24,female,True,6483,6492,False,False,inspiration,peak
198,0.06702727266208934,25,down,down,0.5288273000624031,1.2487740592779617,,experiment,cRDM,0.0,,,,650.8542073999997,19,24,female,True,6508,6513,False,False,inspiration,inspiration
199,0.06702727266208934,25,up,up,0.478715299977921,0.6878452483670778,,experiment,cRDM,0.0,,,,652.3372096000239,19,24,female,True,6522,6527,False,False,inspiration,expiration
200,0.06702727266208934,25,up,down,0.7738441999536008,1.9705057374909007,,experiment,cRDM,0.0,,,,655.0371241000247,19,24,female,True,6550,6558,False,False,expiration,expiration
201,0.06702727266208934,25,down,down,0.8762412000214681,1.5303785320304155,,experiment,cRDM,0.0,,,,657.6037002999801,19,24,female,True,6575,6584,False,False,expiration,expiration
202,0.06702727266208934,25,down,up,0.7707526000449434,1.5114673175894635,,experiment,cRDM,0.0,,,,660.270259700017,19,24,female,True,6602,6610,False,False,inspiration,expiration
203,0.06702727266208934,25,up,up,0.7434264000039548,0.9542766994424688,,experiment,cRDM,0.0,,,,662.2535483000103,19,24,female,True,6622,6629,False,False,expiration,expiration
204,0.06702727266208934,25,down,down,1.1168824000051245,1.24607761040582,,experiment,cRDM,0.0,,,,664.5200938000344,19,24,female,True,6644,6655,False,False,inspiration,peak
205,0.06702727266208934,25,up,up,0.8329371999716386,0.9768600241449568,,experiment,cRDM,0.0,,,,666.8700461999979,19,24,female,True,6668,6676,False,False,expiration,expiration
206,0.06702727266208934,25,down,down,1.0190434999531135,1.3056629226300394,,experiment,cRDM,0.0,,,,669.2699397000251,19,24,female,True,6692,6702,False,False,inspiration,expiration
207,0.06702727266208934,25,down,up,1.1291802000487223,0.7641749778265003,,experiment,cRDM,0.0,,,,671.3198195999721,19,24,female,True,6712,6723,False,False,expiration,expiration
208,0.06702727266208934,25,up,up,0.7352337000193074,1.2695224305644723,,experiment,cRDM,0.0,,,,673.9697490999242,19,24,female,True,6739,6746,False,False,expiration,expiration
209,0.06702727266208934,25,up,down,0.762302799965255,1.012505574933379,,experiment,cRDM,0.0,,,,675.9696832000045,19,24,female,True,6759,6767,False,False,inspiration,inspiration
210,0.06702727266208934,25,down,down,1.0413324000546709,0.3747538289937087,,experiment,cRDM,0.0,,,,677.3696161999832,19,24,female,True,6773,6783,False,False,expiration,expiration
211,0.06702727266208934,25,up,up,0.8183659000787884,1.091022869932589,,experiment,cRDM,0.0,,,,679.769548399956,19,24,female,True,6797,6805,False,False,inspiration,inspiration
212,0.06702727266208934,25,down,down,0.8735265000723302,1.7054991460084157,,experiment,cRDM,0.0,,,,682.5694527999732,19,24,female,True,6825,6834,False,False,expiration,expiration
213,0.06702727266208934,25,up,up,0.8009137000190094,0.8282670526517262,,experiment,cRDM,0.0,,,,684.5360242000315,19,24,female,True,6845,6853,False,False,inspiration,expiration
214,0.06702727266208934,25,down,up,1.0859720999142155,0.3843688104209104,,experiment,cRDM,0.0,,,,685.9859711999306,19,24,female,True,6859,6870,False,False,expiration,expiration
215,0.06702727266208934,25,up,down,0.8344017000636086,0.559493306493285,,experiment,cRDM,0.0,,,,687.902581900009,19,24,female,True,6878,6886,False,False,inspiration,inspiration
216,0.06702727266208934,25,down,up,0.5158087000017986,1.1567321785324889,,experiment,cRDM,0.0,,,,690.169191099936,19,24,female,True,6901,6906,False,False,expiration,expiration
217,0.06702727266208934,25,up,down,0.7195247000781819,0.5711004836666501,,experiment,cRDM,0.0,,,,691.5024555999553,19,24,female,True,6914,6921,False,False,inspiration,inspiration
218,0.06702727266208934,25,down,up,0.6246819000225514,0.6580247785930835,,experiment,cRDM,0.0,,,,693.152285399963,19,24,female,True,6931,6937,False,False,expiration,expiration
219,0.06702727266208934,25,up,down,0.7226274000713602,1.5522976910769632,,experiment,cRDM,0.0,,,,695.6023378999672,19,24,female,True,6955,6962,False,False,inspiration,inspiration
220,0.06702727266208934,25,down,up,0.872812099987641,0.8580881806688081,,experiment,cRDM,0.0,,,,697.4521681999322,19,24,female,True,6974,6983,False,False,expiration,expiration
221,0.06702727266208934,25,up,up,0.9031463999999688,1.53598023857212,,experiment,cRDM,0.0,,,,700.118814999936,19,24,female,True,7000,7009,False,False,inspiration,expiration
222,0.06702727266208934,25,down,down,0.9575884999940172,1.0034390560198059,,experiment,cRDM,0.0,,,,702.2853840999305,19,24,female,True,7022,7032,False,False,expiration,expiration
223,0.06702727266208934,25,down,down,0.5129634999902919,0.5099293087219994,,experiment,cRDM,0.0,,,,704.0020045000128,19,24,female,True,7039,7044,False,False,inspiration,inspiration
224,0.06702727266208934,25,up,up,0.953788800048642,1.6819277515213662,,experiment,cRDM,0.0,,,,706.4521736999741,19,24,female,True,7064,7074,False,False,expiration,expiration
225,0.06702727266208934,25,down,down,0.7441795999184251,0.387091595181676,,experiment,cRDM,0.0,,,,708.0517451999476,19,24,female,True,7080,7087,False,False,inspiration,inspiration
226,0.06702727266208934,25,up,up,0.946870099985972,1.2767722867180784,,experiment,cRDM,0.0,,,,710.3350679000142,19,24,female,True,7102,7111,False,False,expiration,expiration
227,0.06702727266208934,25,up,down,0.9063073999714106,1.1512564646872174,,experiment,cRDM,0.0,,,,712.7016707999866,19,24,female,True,7126,7135,False,False,inspiration,expiration
228,0.06702727266208934,25,down,up,0.7953077999409288,0.732449941674487,,experiment,cRDM,0.0,,,,714.6016300999327,19,24,female,True,7145,7153,False,False,expiration,expiration
229,0.06702727266208934,25,down,down,0.5354414000175893,1.4288019411001234,,experiment,cRDM,0.0,,,,717.1015030000127,19,24,female,True,7170,7175,False,False,peak,expiration
230,0.06702727266208934,25,up,down,0.9672095000278204,1.0189857646562768,,experiment,cRDM,0.0,,,,718.9347449999768,19,24,female,True,7188,7198,False,False,expiration,expiration
231,0.06702727266208934,25,down,down,1.0576372999930754,1.7923967096704705,,experiment,cRDM,0.0,,,,721.9513219000073,19,24,female,True,7219,7230,False,False,expiration,expiration
232,0.06702727266208934,25,up,up,0.5456881000427529,0.7266804288043902,,experiment,cRDM,0.0,,,,724.0012521999887,19,24,female,True,7239,7244,False,False,inspiration,inspiration
233,0.06702727266208934,25,up,up,0.6697691000299528,1.1044314583212351,,experiment,cRDM,0.0,,,,725.9011917000171,19,24,female,True,7258,7265,False,False,expiration,expiration
234,0.06702727266208934,25,up,down,0.9024810000555591,0.5050201115216002,,experiment,cRDM,0.0,,,,727.3344522999832,19,24,female,True,7272,7281,False,False,inspiration,inspiration
235,0.06702727266208934,25,up,up,0.7718506000237539,0.9638256016378736,,experiment,cRDM,0.0,,,,729.4510598999913,19,24,female,True,7294,7302,False,False,expiration,expiration
236,0.06702727266208934,25,up,down,0.6316586999455467,1.5430130201898145,,experiment,cRDM,0.0,,,,732.034278600011,19,24,female,True,7319,7325,False,False,expiration,inspiration
237,0.06702727266208934,25,down,down,0.6126823000377044,0.3965217579729178,,experiment,cRDM,0.0,,,,733.3342516999692,19,24,female,True,7332,7338,False,False,inspiration,expiration
238,0.06702727266208934,25,down,down,0.7490627000806853,0.4869045324158991,,experiment,cRDM,0.0,,,,734.7008740999736,19,24,female,True,7346,7353,False,False,expiration,expiration
239,0.06702727266208934,25,down,down,0.5361230000853539,0.5933955364188234,,experiment,cRDM,0.0,,,,736.3008439999539,19,24,female,True,7362,7367,False,False,inspiration,inspiration
240,0.06702727266208934,25,up,down,0.9852511999197304,1.6047620804594414,,experiment,cRDM,0.0,,,,738.7007135000313,19,24,female,True,7386,7396,False,False,expiration,expiration
241,0.06702727266208934,25,down,up,0.4167153000598773,0.5852312433082787,,experiment,cRDM,0.0,,,,740.533970199991,19,24,female,True,7404,7408,False,False,trough,inspiration
242,0.06702727266208934,25,down,down,0.9797303000232204,1.5618424039260288,,experiment,cRDM,0.0,,,,742.7672351000365,19,24,female,True,7427,7437,False,False,expiration,expiration
243,0.06702727266208934,25,down,up,0.4167577000334859,1.7696459614701168,,experiment,cRDM,0.0,,,,745.767149799969,19,24,female,True,7457,7461,False,False,expiration,expiration
244,0.06702727266208934,25,up,down,0.5303515000268817,1.9996959014818627,,experiment,cRDM,0.0,,,,748.4506172999972,19,24,female,True,7484,7489,False,False,expiration,expiration
245,0.06702727266208934,25,down,up,1.0306374999927357,1.4220873561244096,,experiment,cRDM,0.0,,,,750.6503001999807,19,24,female,True,7506,7516,False,False,inspiration,expiration
246,0.06702727266208934,25,up,up,1.3911096000811085,1.8164481459241741,,experiment,cRDM,0.0,,,,753.7668269999557,19,24,female,True,7537,7551,False,False,inspiration,expiration
247,0.06702727266208934,25,up,down,0.7061924000736326,0.8508741641949344,,experiment,cRDM,0.0,,,,756.2667385999812,19,24,female,True,7562,7569,False,False,expiration,expiration
248,0.06702727266208934,25,down,down,1.5299353000009432,1.4683074776770926,,experiment,cRDM,0.0,,,,758.6999772000128,19,24,female,True,7586,7601,False,False,expiration,expiration
249,0.06702727266208934,25,up,up,0.5663888999260962,1.0625681836747976,,experiment,cRDM,0.0,,,,761.5665411000373,19,24,female,True,7615,7621,False,False,inspiration,inspiration
250,0.06702727266208934,25,down,down,0.3171209000283852,0.7141894531878183,,experiment,cRDM,0.0,,,,763.0998159999726,19,24,female,True,7630,7633,False,False,inspiration,peak
251,0.06702727266208934,25,up,down,1.2275402999948708,1.1931513450893259,,experiment,cRDM,0.0,,,,764.9664206999588,19,24,female,True,7649,7661,False,False,expiration,expiration
252,0.06702727266208934,25,down,up,1.0093026000540704,1.1417165079849605,,experiment,cRDM,0.0,,,,767.5996475999708,19,24,female,True,7675,7685,False,False,inspiration,expiration
253,0.06702727266208934,25,up,down,0.6730523000005633,1.1974307306760337,,experiment,cRDM,0.0,,,,770.0829016999343,19,24,female,True,7700,7707,False,False,expiration,inspiration
254,0.06702727266208934,25,down,down,0.835370899992995,0.5326127946974171,,experiment,cRDM,0.0,,,,771.5495373000157,19,24,female,True,7715,7723,False,False,expiration,expiration
255,0.06702727266208934,25,down,up,0.3338401999790221,0.8583471307920496,,experiment,cRDM,0.0,,,,773.5161008000142,19,24,female,True,7734,7737,False,False,inspiration,inspiration
256,0.06702727266208934,25,down,down,0.7983639999292791,1.1250611427246586,,experiment,cRDM,0.0,,,,775.3325635000365,19,24,female,True,7753,7761,False,False,expiration,expiration
257,0.06702727266208934,25,down,up,0.8400181999895722,1.8204700918129668,,experiment,cRDM,0.0,,,,778.2159225000069,19,24,female,True,7781,7789,False,False,expiration,expiration
258,0.06702727266208934,25,down,down,0.7786948999855667,0.3340287385146349,,experiment,cRDM,0.0,,,,779.6492368000328,19,24,female,True,7796,7804,False,False,expiration,inspiration
259,0.06702727266208934,25,up,up,1.3215486000990495,1.9997194831933007,,experiment,cRDM,0.0,,,,782.682417999953,19,24,female,True,7826,7839,False,False,expiration,expiration
260,0.06702727266208934,25,up,down,0.4952947999117896,1.7885293185594215,,experiment,cRDM,0.0,,,,786.0656700999243,19,24,female,True,7860,7865,False,False,expiration,expiration
261,0.06702727266208934,25,up,up,0.865414600004442,1.2052202653058215,,experiment,cRDM,0.0,,,,788.015548299998,19,24,female,True,7879,7888,False,False,expiration,inspiration
262,0.06702727266208934,25,up,down,0.7621058000950143,1.1693845694908778,,experiment,cRDM,0.0,,,,790.2987964999629,19,24,female,True,7902,7910,False,False,expiration,expiration
263,85.0,25,M,down,1.1887561000185087,0.6332400366499424,,experiment,emotion,0.0,,,,816.6311709999572,19,24,female,True,8166,8178,False,False,trough,expiration
264,63.0,25,M,down,0.9655334999551995,1.163864374261449,,experiment,emotion,0.0,,,,819.2644239999353,19,24,female,True,8192,8202,False,False,expiration,expiration
265,77.0,25,F,up,0.7476243000710383,1.2971458687071102,,experiment,emotion,0.0,,,,821.8143465999748,19,24,female,True,8217,8224,False,False,expiration,expiration
266,85.0,25,F,up,0.8200733000412583,1.8971322991410569,,experiment,emotion,0.0,,,,824.7308873999864,19,24,female,True,8246,8254,False,False,inspiration,expiration
267,77.0,25,M,up,0.8160733999684453,1.09680025416855,,experiment,emotion,0.0,,,,826.9308089999249,19,24,female,True,8268,8276,False,False,expiration,inspiration
268,70.0,25,F,down,0.7069022000068799,1.3694426383478084,,experiment,emotion,0.0,,,,829.4140471999998,19,24,female,True,8293,8300,False,False,expiration,expiration
269,63.0,25,M,down,0.7053568999981508,1.929916554483713,,experiment,emotion,0.0,,,,832.3306008999934,19,24,female,True,8322,8329,False,False,expiration,expiration
270,70.0,25,M,up,0.7953780000098051,1.3791806046983506,,experiment,emotion,0.0,,,,834.6805424999911,19,24,female,True,8346,8354,False,False,inspiration,expiration
271,85.0,25,F,up,0.6158513999544084,1.6606284510302958,,experiment,emotion,0.0,,,,837.3971290999326,19,24,female,True,8373,8379,False,False,inspiration,inspiration
272,70.0,25,F,down,0.8029012000188231,1.0159368982963892,,experiment,emotion,0.0,,,,839.2970160000259,19,24,female,True,8392,8400,False,False,expiration,expiration
273,77.0,25,F,up,1.0799633000278843,1.318739090448286,,experiment,emotion,0.0,,,,841.6969319999916,19,24,female,True,8416,8427,False,False,inspiration,expiration
274,85.0,25,F,down,0.8141189999878407,1.9499673666015145,,experiment,emotion,0.0,,,,844.9968032999897,19,24,female,True,8449,8457,False,False,expiration,inspiration
275,77.0,25,F,down,0.7903702000621706,0.7736173310224617,,experiment,emotion,0.0,,,,846.8465627999975,19,24,female,True,8468,8476,False,False,expiration,expiration
276,63.0,25,F,down,0.6499041999923065,0.5645150921697741,,experiment,emotion,0.0,,,,848.4800161999882,19,24,female,True,8484,8490,False,False,inspiration,peak
277,70.0,25,M,up,0.7150070999050513,1.3776946891039803,,experiment,emotion,0.0,,,,850.7799286999507,19,24,female,True,8507,8514,False,False,inspiration,expiration
278,63.0,25,M,down,1.0204617000417784,0.4831236396091589,,experiment,emotion,0.0,,,,852.2464947999687,19,24,female,True,8522,8532,False,False,inspiration,expiration
279,85.0,25,M,up,0.7431227000197396,1.7436205597737244,,experiment,emotion,0.0,,,,855.2797914999537,19,24,female,True,8552,8559,False,False,expiration,expiration
280,63.0,25,M,up,0.7832408000249416,1.446551496282841,,experiment,emotion,0.0,,,,857.7296783999773,19,24,female,True,8576,8584,False,False,expiration,expiration
281,77.0,25,F,down,0.5456722999224439,1.561834008621264,,experiment,emotion,0.0,,,,860.3462629999268,19,24,female,True,8603,8608,False,False,expiration,expiration
282,77.0,25,M,down,0.8921254000160843,1.3924174417353132,,experiment,emotion,0.0,,,,862.562810100033,19,24,female,True,8625,8634,False,False,inspiration,expiration
283,70.0,25,M,up,0.8701639000792056,1.6785958699060108,,experiment,emotion,0.0,,,,865.4127117999598,19,24,female,True,8653,8662,False,False,expiration,expiration
284,70.0,25,F,,,0.33741361157931754,,experiment,emotion,0.0,,,,866.8793473999249,19,24,female,True,8668,0,False,False,expiration,0
285,63.0,25,M,,,1.1106972378421454,,experiment,emotion,0.0,,,,870.69586420001,19,24,female,True,8706,0,False,False,expiration,0
286,85.0,25,F,down,1.0111835000570863,1.148635371730124,,experiment,emotion,0.0,,,,874.5457270999906,19,24,female,True,8745,8755,False,False,expiration,expiration
287,77.0,25,F,up,0.8350260000443086,1.4888017220754015,,experiment,emotion,0.0,,,,877.3289190999932,19,24,female,True,8773,8781,False,False,inspiration,expiration
288,63.0,25,M,down,1.581123000010848,1.400065592101455,,experiment,emotion,0.0,,,,879.8287966999924,19,24,female,True,8798,8814,False,False,inspiration,expiration
289,85.0,25,M,up,0.5978468999965116,1.7344244142102183,,experiment,emotion,0.0,,,,883.4120615000137,19,24,female,True,8833,8839,False,False,inspiration,expiration
290,85.0,25,F,up,0.6719169000862166,1.3829308180605628,,experiment,emotion,0.0,,,,885.6619955999777,19,24,female,True,8856,8863,False,False,expiration,inspiration
291,70.0,25,M,up,0.6450229999609292,1.5318779875322834,,experiment,emotion,0.0,,,,888.1618937000168,19,24,female,True,8881,8887,False,False,expiration,expiration
292,63.0,25,F,up,0.7867501999717206,0.3125802536780605,,experiment,emotion,0.0,,,,889.3951708000386,19,24,female,True,8893,8901,False,False,inspiration,inspiration
293,70.0,25,F,down,1.099262899952009,1.3218252473502157,,experiment,emotion,0.0,,,,891.7616563999327,19,24,female,True,8917,8928,False,False,expiration,expiration
294,77.0,25,F,down,0.8796693000476807,0.8753901154055292,,experiment,emotion,0.0,,,,894.0283157000085,19,24,female,True,8940,8949,False,False,inspiration,expiration
295,63.0,25,M,up,0.6417477000504732,1.2974830647622912,,experiment,emotion,0.0,,,,896.4782733999891,19,24,female,True,8964,8970,False,False,expiration,inspiration
296,85.0,25,M,down,0.6900447000516579,0.4480473402226709,,experiment,emotion,0.0,,,,897.8448662000011,19,24,female,True,8978,8985,False,False,peak,expiration
297,77.0,25,M,,,1.7534875302649588,,experiment,emotion,0.0,,,,900.5614498000358,19,24,female,True,9005,0,False,False,inspiration,0
298,85.0,25,F,down,0.4166880999691784,1.552976534088054,,experiment,emotion,0.0,,,,904.8112604999916,19,24,female,True,9047,9051,False,False,expiration,inspiration
299,63.0,25,F,up,0.4204101000213996,1.1901942232364455,,experiment,emotion,0.0,,,,906.6945486000039,19,24,female,True,9066,9070,False,False,inspiration,expiration
300,77.0,25,M,up,0.6251471999567002,0.6420572997082106,,experiment,emotion,0.0,,,,908.0277558999367,19,24,female,True,9080,9086,False,False,expiration,expiration
301,70.0,25,F,up,1.0228857999900356,0.5093061539827693,,experiment,emotion,0.0,,,,909.4280285999413,19,24,female,True,9094,9104,False,False,inspiration,inspiration
302,70.0,25,M,down,0.8435291999485344,0.967192383860982,,experiment,emotion,0.0,,,,911.6943430999527,19,24,female,True,9116,9124,False,False,expiration,expiration
303,77.0,25,M,up,0.7355682000052184,1.0860319747805716,,experiment,emotion,0.0,,,,913.8943048999645,19,24,female,True,9138,9145,False,False,inspiration,expiration
304,85.0,25,M,up,0.6691018999554217,1.4148329260605812,,experiment,emotion,0.0,,,,916.3108368000247,19,24,female,True,9162,9169,False,False,expiration,inspiration
305,70.0,25,F,up,0.6104409000836313,0.4293506494625592,,experiment,emotion,0.0,,,,917.677497799974,19,24,female,True,9176,9182,False,False,inspiration,inspiration
306,63.0,25,F,down,0.9731265000300482,0.4382757883821548,,experiment,emotion,0.0,,,,919.0107531999237,19,24,female,True,9189,9199,False,False,expiration,expiration
307,63.0,25,M,down,0.7456825999543071,0.5766366929759479,,experiment,emotion,0.0,,,,920.8272408000194,19,24,female,True,9208,9215,False,False,expiration,inspiration
308,70.0,25,F,down,0.6020098000299186,1.5724064876045227,,experiment,emotion,0.0,,,,923.3939253999852,19,24,female,True,9233,9239,False,False,expiration,expiration
309,85.0,25,F,down,0.4433716000057757,0.4863759862509474,,experiment,emotion,0.0,,,,924.7605597999644,19,24,female,True,9247,9251,False,False,inspiration,inspiration
310,77.0,25,M,down,0.8084509000182152,1.3746876565456778,,experiment,emotion,0.0,,,,926.8604708999628,19,24,female,True,9268,9276,False,False,expiration,expiration
311,63.0,25,M,up,0.7938964000204578,1.0756656190934717,,experiment,emotion,0.0,,,,929.0269960999723,19,24,female,True,9290,9298,False,False,inspiration,expiration
312,85.0,25,F,down,0.9188531000399962,0.6008918948080975,,experiment,emotion,0.0,,,,930.6770101999864,19,24,female,True,9306,9315,False,False,expiration,expiration
313,77.0,25,M,down,0.6969917000969872,1.8125337404682715,,experiment,emotion,0.0,,,,933.6769150999608,19,24,female,True,9336,9343,False,False,expiration,expiration
314,77.0,25,F,down,0.8355589999118821,1.4951040095049015,,experiment,emotion,0.0,,,,936.1433681999333,19,24,female,True,9361,9369,False,False,inspiration,expiration
315,63.0,25,F,up,0.835881800041534,0.7304369977799419,,experiment,emotion,0.0,,,,937.960061299964,19,24,female,True,9379,9387,False,False,expiration,expiration
316,70.0,25,F,down,0.983975899987854,1.7711413194652903,,experiment,emotion,0.0,,,,940.8599542999872,19,24,female,True,9408,9418,False,False,expiration,expiration
317,85.0,25,M,down,0.6534526000032201,0.8127297965615983,,experiment,emotion,0.0,,,,942.926442499971,19,24,female,True,9429,9436,False,False,expiration,expiration
318,70.0,25,M,down,0.4385131999151781,0.4834966175740282,,experiment,emotion,0.0,,,,944.3264803999336,19,24,female,True,9443,9447,False,False,inspiration,inspiration
319,70.0,25,F,down,0.5937687000259757,0.34734579508603913,,experiment,emotion,0.0,,,,945.3931208000287,19,24,female,True,9453,9459,False,False,inspiration,expiration
320,70.0,25,F,down,0.9418361999560148,0.3482505847398673,,experiment,emotion,0.0,,,,946.5930838999337,19,24,female,True,9465,9474,False,False,expiration,expiration
321,85.0,25,M,down,0.8336046999320388,0.9221442105769776,,experiment,emotion,0.0,,,,948.7263212000252,19,24,female,True,9487,9495,False,False,inspiration,expiration
322,77.0,25,M,down,0.8083018000470474,0.3340046779950103,,experiment,emotion,0.0,,,,950.1596283999969,19,24,female,True,9501,9509,False,False,expiration,expiration
323,63.0,25,M,down,1.1911686999956146,1.9957623627282424,,experiment,emotion,0.0,,,,953.2428279999876,19,24,female,True,9532,9544,False,False,expiration,expiration
324,63.0,25,M,down,1.3998705999692902,1.48424504883027,,experiment,emotion,0.0,,,,956.1760645000032,19,24,female,True,9561,9575,False,False,expiration,expiration
325,77.0,25,M,up,0.6589681999757886,0.5814492277911538,,experiment,emotion,0.0,,,,958.4259703999852,19,24,female,True,9583,9590,False,False,inspiration,inspiration
326,85.0,25,F,up,0.4846323999809101,0.8475281710484779,,experiment,emotion,0.0,,,,960.209253399982,19,24,female,True,9601,9606,False,False,expiration,expiration
327,85.0,25,F,down,0.6660317000932992,1.4262276726289131,,experiment,emotion,0.0,,,,962.3758356999606,19,24,female,True,9623,9630,False,False,expiration,expiration
328,63.0,25,M,down,0.6885207000887021,1.2202745229307723,,experiment,emotion,0.0,,,,964.5423763999717,19,24,female,True,9645,9652,False,False,inspiration,peak
329,85.0,25,F,up,0.7942388999508694,1.6247757362682498,,experiment,emotion,0.0,,,,967.1256612000287,19,24,female,True,9670,9678,False,False,trough,inspiration
330,70.0,25,F,down,0.8627403000136837,0.6416079488683073,,experiment,emotion,0.0,,,,968.8421602000017,19,24,female,True,9688,9697,False,False,expiration,expiration
331,77.0,25,F,down,1.0007475999882445,1.772570153821717,,experiment,emotion,0.0,,,,971.7421467999228,19,24,female,True,9717,9727,False,False,expiration,expiration
332,70.0,25,M,up,0.6048005000920966,0.541888230929658,,experiment,emotion,0.0,,,,973.5420543999644,19,24,female,True,9735,9741,False,False,inspiration,inspiration
333,63.0,25,F,up,0.720944199943915,0.9159328876059988,,experiment,emotion,0.0,,,,975.3419536999428,19,24,female,True,9753,9760,False,False,expiration,expiration
334,77.0,25,F,up,0.6080726999789476,1.9082501886065348,,experiment,emotion,0.0,,,,978.2418376000132,19,24,female,True,9782,9788,False,False,expiration,expiration
335,70.0,25,F,up,0.7650882999878377,0.8731753807378992,,experiment,emotion,0.0,,,,979.9918728999327,19,24,female,True,9799,9807,False,False,inspiration,peak
336,77.0,25,M,down,0.7558013999368995,1.1865378019132136,,experiment,emotion,0.0,,,,982.2250854999292,19,24,female,True,9821,9829,False,False,expiration,expiration
337,63.0,25,M,up,0.6565568000078201,1.702179756099626,,experiment,emotion,0.0,,,,984.9583560000174,19,24,female,True,9849,9856,False,False,inspiration,expiration
338,85.0,25,F,up,0.7059764999430627,1.58533361555552,,experiment,emotion,0.0,,,,987.4749196999472,19,24,female,True,9874,9881,False,False,expiration,expiration
339,77.0,25,M,down,0.7811028000432998,1.81870132701488,,experiment,emotion,0.0,,,,990.2747970999916,19,24,female,True,9902,9910,False,False,inspiration,inspiration
340,85.0,25,F,up,0.7805099999532104,1.0674185125077624,,experiment,emotion,0.0,,,,992.3913895000003,19,24,female,True,9923,9931,False,False,inspiration,inspiration
341,63.0,25,M,down,0.5786085000727326,1.8491970884839104,,experiment,emotion,0.0,,,,995.2912907999707,19,24,female,True,9952,9958,False,False,expiration,expiration
342,70.0,25,M,down,0.7643665000796318,1.6150026246262232,,experiment,emotion,0.0,,,,997.774549499969,19,24,female,True,9977,9985,False,False,expiration,expiration
343,0.06702727266208934,25,up,up,0.5849623000249267,1.680342905334576,,experiment,cRDM,1.0,,,,1012.5239816999527,19,24,female,True,10125,10131,False,False,inspiration,inspiration
344,0.06702727266208934,25,up,up,0.6426539999665692,1.0287507738939643,,experiment,cRDM,1.0,,,,1014.4072367999471,19,24,female,True,10143,10149,False,False,expiration,expiration
345,0.06702727266208934,25,down,down,0.5287919000256807,1.8382067195336194,,experiment,cRDM,1.0,,,,1017.1571504999883,19,24,female,True,10171,10176,False,False,expiration,expiration
346,0.06702727266208934,25,down,down,0.63342470000498,0.5009269612078179,,experiment,cRDM,1.0,,,,1018.4404729999367,19,24,female,True,10184,10190,False,False,expiration,expiration
347,0.06702727266208934,25,up,up,0.5673350000288337,1.679522385512087,,experiment,cRDM,1.0,,,,1021.023559299996,19,24,female,True,10210,10216,False,False,expiration,expiration
348,0.06702727266208934,25,down,up,0.5569375000195578,0.7075058229855085,,experiment,cRDM,1.0,,,,1022.5569546000335,19,24,female,True,10225,10231,False,False,inspiration,inspiration
349,0.06702727266208934,25,up,down,0.5629894000012428,0.8817977837198041,,experiment,cRDM,1.0,,,,1024.256899500033,19,24,female,True,10242,10248,False,False,expiration,expiration
350,0.06702727266208934,25,up,up,0.4431066999677569,1.1311543773395951,,experiment,cRDM,1.0,,,,1026.2067975000243,19,24,female,True,10261,10265,False,False,inspiration,expiration
351,0.06702727266208934,25,down,up,0.6191279999911785,1.503689405633104,,experiment,cRDM,1.0,,,,1028.4067209999776,19,24,female,True,10283,10289,True,True,inspiration,peak
352,0.06702727266208934,25,down,up,0.5032943999394774,1.0198676260278088,,experiment,cRDM,1.0,,,,1030.3066465000156,19,24,female,True,10302,10307,True,True,inspiration,expiration
353,0.06702727266208934,25,down,down,0.5529341000365093,0.5017732795736152,,experiment,cRDM,1.0,,,,1031.589939799975,19,24,female,True,10315,10321,True,True,inspiration,inspiration
354,0.06702727266208934,25,down,up,0.3671836999710649,1.6555893877961905,,experiment,cRDM,1.0,,,,1034.0731923999263,19,24,female,True,10340,10344,True,True,inspiration,inspiration
355,0.06702727266208934,25,down,up,0.5107393000507727,0.9160082907761432,,experiment,cRDM,1.0,,,,1035.6731389999622,19,24,female,True,10356,10361,True,True,inspiration,expiration
356,0.06702727266208934,25,down,down,0.5016398000298068,1.6816619177293342,,experiment,cRDM,1.0,,,,1038.123316799989,19,24,female,True,10381,10386,True,True,expiration,expiration
357,0.06702727266208934,25,up,up,0.5742922000354156,1.5575621010233576,,experiment,cRDM,1.0,,,,1040.4396391999908,19,24,female,True,10404,10410,True,True,expiration,expiration
358,0.06702727266208934,25,up,down,0.5420176000334322,0.7460098221947566,,experiment,cRDM,1.0,,,,1042.0228774999268,19,24,female,True,10420,10425,True,False,expiration,inspiration
359,0.06702727266208934,25,up,up,0.485741600045003,1.384674761822212,,experiment,cRDM,1.0,,,,1044.2061511999927,19,24,female,True,10441,10446,False,False,expiration,expiration
360,0.06702727266208934,25,up,up,0.5404882999137044,1.6439642971135136,,experiment,cRDM,1.0,,,,1046.5893981999252,19,24,female,True,10465,10470,False,False,inspiration,inspiration
361,0.06702727266208934,25,down,down,0.5828933999873698,0.4187570907238756,,experiment,cRDM,1.0,,,,1047.806006800034,19,24,female,True,10477,10483,False,False,expiration,expiration
362,0.06702727266208934,25,up,down,0.7402714999625459,0.9197289768367134,,experiment,cRDM,1.0,,,,1049.5726230000146,19,24,female,True,10495,10502,False,False,inspiration,inspiration
363,0.06702727266208934,25,up,up,0.6230069999583066,1.5222746770742086,,experiment,cRDM,1.0,,,,1052.105851499946,19,24,female,True,10520,10526,False,False,expiration,expiration
364,0.06702727266208934,25,down,down,0.7760906000621617,0.5684863309848576,,experiment,cRDM,1.0,,,,1053.555832299986,19,24,female,True,10535,10543,False,False,inspiration,expiration
365,0.06702727266208934,25,up,up,0.5328092999989167,1.006940778906836,,experiment,cRDM,1.0,,,,1055.5890762000342,19,24,female,True,10555,10560,False,False,expiration,expiration
366,0.06702727266208934,25,down,up,0.7012791000306606,0.5144629181409047,,experiment,cRDM,1.0,,,,1056.9056715000188,19,24,female,True,10568,10575,False,False,expiration,inspiration
367,0.06702727266208934,25,down,down,0.4808976999484002,1.015912907556889,,experiment,cRDM,1.0,,,,1058.8889947999266,19,24,female,True,10588,10593,False,False,expiration,expiration
368,0.06702727266208934,25,up,up,0.5256997999968007,1.1382675017204926,,experiment,cRDM,1.0,,,,1060.7722111999756,19,24,female,True,10607,10612,False,False,inspiration,inspiration
369,0.06702727266208934,25,up,down,0.6263941000215709,0.4445359738834733,,experiment,cRDM,1.0,,,,1062.0055057000136,19,24,female,True,10619,10625,False,False,expiration,expiration
370,0.06702727266208934,25,down,down,0.7044838999863714,1.6066077386050146,,experiment,cRDM,1.0,,,,1064.5054044999415,19,24,female,True,10644,10651,False,False,expiration,expiration
371,0.06702727266208934,25,up,down,0.7415428999811411,0.7840872887800596,,experiment,cRDM,1.0,,,,1066.2553440999473,19,24,female,True,10662,10669,False,False,trough,inspiration
372,0.06702727266208934,25,down,down,0.7421036000596359,1.0520227608799515,,experiment,cRDM,1.0,,,,1068.3218533999752,19,24,female,True,10683,10690,False,False,expiration,expiration
373,0.06702727266208934,25,down,down,0.5540552000747994,1.6479659786829162,,experiment,cRDM,1.0,,,,1070.9718322999545,19,24,female,True,10709,10715,True,True,inspiration,expiration
374,0.06702727266208934,25,down,down,0.6520966000389308,1.367661983356519,,experiment,cRDM,1.0,,,,1073.1717503999826,19,24,female,True,10731,10738,True,True,expiration,inspiration
375,0.06702727266208934,25,up,down,0.985839999979362,0.7658328494944328,,experiment,cRDM,1.0,,,,1074.8550497000106,19,24,female,True,10748,10758,True,True,expiration,expiration
376,0.06702727266208934,25,up,down,0.8611981999129057,0.7110160545621735,,experiment,cRDM,1.0,,,,1076.8216178999282,19,24,female,True,10768,10777,True,True,expiration,expiration
377,0.06702727266208934,25,up,down,0.5754269999451935,1.6717387751067825,,experiment,cRDM,1.0,,,,1079.6214536000043,19,24,female,True,10796,10802,True,False,trough,inspiration
378,0.06702727266208934,25,down,down,0.4780591999879107,0.4973178425062525,,experiment,cRDM,1.0,,,,1080.954825700028,19,24,female,True,10809,10814,False,False,expiration,expiration
379,0.06702727266208934,25,down,up,0.6094759999541566,0.7749458281674106,,experiment,cRDM,1.0,,,,1082.4714119000128,19,24,female,True,10824,10830,False,False,expiration,inspiration
380,0.06702727266208934,25,up,up,1.1371946000726894,1.106795427318786,,experiment,cRDM,1.0,,,,1084.4547085999513,19,24,female,True,10844,10855,False,False,expiration,expiration
381,0.06702727266208934,25,down,down,0.5333252000855282,0.3462515904647829,,experiment,cRDM,1.0,,,,1086.2046174999562,19,24,female,True,10861,10866,False,False,trough,inspiration
382,0.06702727266208934,25,up,down,0.6246989000355825,1.5700792523520606,,experiment,cRDM,1.0,,,,1088.5711849000072,19,24,female,True,10885,10891,False,False,expiration,expiration
383,0.06702727266208934,25,up,down,0.6514215000206605,1.0999764427540362,,experiment,cRDM,1.0,,,,1090.5544554999794,19,24,female,True,10905,10912,False,False,inspiration,expiration
384,0.06702727266208934,25,up,up,0.702530900016427,1.7749873472464706,,experiment,cRDM,1.0,,,,1093.2543721999973,19,24,female,True,10932,10939,False,False,expiration,expiration
385,0.06702727266208934,25,down,down,0.50728010002058,0.7158704607128188,,experiment,cRDM,1.0,,,,1094.93760309997,19,24,female,True,10949,10954,False,False,inspiration,inspiration
386,0.06702727266208934,25,down,down,0.6696285000070931,1.5460799474554636,,experiment,cRDM,1.0,,,,1097.2542372000169,19,24,female,True,10972,10979,False,False,expiration,expiration
387,0.06702727266208934,25,up,up,0.8080938000930473,0.721898964558594,,experiment,cRDM,1.0,,,,1098.9207988999553,19,24,female,True,10989,10997,False,False,trough,inspiration
388,0.06702727266208934,25,down,up,0.8994724999647588,1.3978993371635997,,experiment,cRDM,1.0,,,,1101.3874039000366,19,24,female,True,11013,11022,False,False,expiration,expiration
389,0.06702727266208934,25,down,down,0.8677007000660524,1.8753372100489003,,experiment,cRDM,1.0,,,,1104.4371823000256,19,24,female,True,11044,11053,False,False,expiration,expiration
390,0.06702727266208934,25,up,down,0.9876944000134243,0.6600415473500558,,experiment,cRDM,1.0,,,,1106.2371832999634,19,24,female,True,11062,11072,False,False,trough,inspiration
391,0.06702727266208934,25,up,down,0.7751066000200808,1.4695638741150645,,experiment,cRDM,1.0,,,,1108.9537770999596,19,24,female,True,11089,11097,False,False,expiration,expiration
392,0.06702727266208934,25,down,down,0.7291642000200227,0.8127493916167257,,experiment,cRDM,1.0,,,,1110.803712300025,19,24,female,True,11107,11114,False,False,inspiration,expiration
393,0.06702727266208934,25,up,up,0.5409120999975129,1.1001589001802132,,experiment,cRDM,1.0,,,,1112.8869674999733,19,24,female,True,11128,11133,False,False,expiration,trough
394,0.06702727266208934,25,down,down,0.6820566999958828,1.3387126301555423,,experiment,cRDM,1.0,,,,1115.0368175000183,19,24,female,True,11150,11157,False,False,inspiration,expiration
395,0.06702727266208934,25,down,down,0.8427005000412464,0.4943751152628341,,experiment,cRDM,1.0,,,,1116.4702008999884,19,24,female,True,11164,11172,False,False,expiration,inspiration
396,0.06702727266208934,25,down,down,0.6021527999546379,1.0496040218922558,,experiment,cRDM,1.0,,,,1118.6367286000168,19,24,female,True,11186,11192,False,False,inspiration,peak
397,0.06702727266208934,25,up,up,0.5155373999150471,1.7405153206702502,,experiment,cRDM,1.0,,,,1121.253340999945,19,24,female,True,11212,11217,False,False,trough,inspiration
398,0.06702727266208934,25,up,up,0.4699796999339014,1.0528731302717818,,experiment,cRDM,1.0,,,,1123.0699247999582,19,24,female,True,11230,11235,False,False,inspiration,inspiration
399,0.06702727266208934,25,down,up,0.5976911999750882,1.4909821926412612,,experiment,cRDM,1.0,,,,1125.3031869999832,19,24,female,True,11252,11258,False,False,expiration,trough
400,0.06702727266208934,25,down,down,0.7754009999334812,0.4273754023653745,,experiment,cRDM,1.0,,,,1126.5864599000195,19,24,female,True,11265,11273,False,False,inspiration,inspiration
401,0.06702727266208934,25,up,down,1.0844628000631928,0.9619397087843032,,experiment,cRDM,1.0,,,,1128.5863952999935,19,24,female,True,11285,11296,False,False,expiration,expiration
402,0.06702727266208934,25,up,up,0.6033127999398857,1.843845402370736,,experiment,cRDM,1.0,,,,1131.7696044000334,19,24,female,True,11317,11323,False,False,expiration,expiration
403,0.06702727266208934,25,up,down,0.7816548000555485,0.5049507608896804,,experiment,cRDM,1.0,,,,1133.1362482999687,19,24,female,True,11331,11339,False,False,expiration,expiration
404,0.06702727266208934,25,up,down,0.8147495000157505,1.948136946135336,,experiment,cRDM,1.0,,,,1136.1361279999835,19,24,female,True,11361,11369,False,False,expiration,expiration
405,0.06702727266208934,25,up,up,0.6339115001028404,1.7835937625482363,,experiment,cRDM,1.0,,,,1138.9860192999474,19,24,female,True,11389,11395,False,False,inspiration,expiration
406,0.06702727266208934,25,down,up,0.7272472999757156,1.4107527390413532,,experiment,cRDM,1.0,,,,1141.3025688999332,19,24,female,True,11412,11419,False,False,expiration,expiration
407,0.06702727266208934,25,down,down,0.5566227000672371,0.3869269562255381,,experiment,cRDM,1.0,,,,1142.6692095999604,19,24,female,True,11426,11432,False,False,expiration,expiration
408,0.06702727266208934,25,up,up,0.7324461999814957,0.8561643857729686,,experiment,cRDM,1.0,,,,1144.3524802000031,19,24,female,True,11443,11450,False,False,inspiration,expiration
409,0.06702727266208934,25,down,down,0.900480900076218,0.7943693856952984,,experiment,cRDM,1.0,,,,1146.1524108999874,19,24,female,True,11461,11470,False,False,expiration,expiration
410,0.06702727266208934,25,down,down,0.7392273000441492,1.4716994318959662,,experiment,cRDM,1.0,,,,1148.7856480999615,19,24,female,True,11487,11494,False,False,inspiration,peak
411,0.06702727266208934,25,down,up,0.5063061000546439,1.7946558331740683,,experiment,cRDM,1.0,,,,1151.5855640999507,19,24,female,True,11515,11520,False,False,inspiration,inspiration
412,0.06702727266208934,25,up,down,0.4884333999361843,1.9328619336377084,,experiment,cRDM,1.0,,,,1154.285441600019,19,24,female,True,11542,11547,False,False,expiration,expiration
413,0.06702727266208934,25,down,up,0.4558578000869602,1.9294599380743505,,experiment,cRDM,1.0,,,,1156.9520173999479,19,24,female,True,11569,11574,False,False,inspiration,expiration
414,0.06702727266208934,25,down,down,0.4167603000532836,1.5591674459291225,,experiment,cRDM,1.0,,,,1159.2352853999473,19,24,female,True,11592,11596,False,False,expiration,expiration
415,0.06702727266208934,25,down,up,0.28381030005402863,1.751096475255952,,experiment,cRDM,1.0,,,,1161.6851712999633,19,24,female,True,11616,11619,False,False,expiration,expiration
416,0.06702727266208934,25,up,up,0.5280905000399798,0.8027871485799631,,experiment,cRDM,1.0,,,,1163.1517840999875,19,24,female,True,11631,11636,False,False,expiration,expiration
417,0.06702727266208934,25,up,down,0.8561840000329539,1.4732695776898093,,experiment,cRDM,1.0,,,,1165.4016888999613,19,24,female,True,11653,11662,False,False,peak,expiration
418,0.06702727266208934,25,down,up,0.6449480999726802,1.7679186137912737,,experiment,cRDM,1.0,,,,1168.2849248999264,19,24,female,True,11682,11688,False,False,expiration,expiration
419,0.06702727266208934,25,up,up,0.5610070000402629,0.8910090857427673,,experiment,cRDM,1.0,,,,1170.0848670999985,19,24,female,True,11700,11706,False,False,inspiration,inspiration
420,0.06702727266208934,25,down,down,0.6814146999968216,1.4311287790216078,,experiment,cRDM,1.0,,,,1172.3514556000011,19,24,female,True,11723,11730,False,False,expiration,expiration
421,0.06702727266208934,25,up,up,0.3670689000282437,1.6387745285423132,,experiment,cRDM,1.0,,,,1174.934706500033,19,24,female,True,11749,11753,False,False,peak,expiration
422,0.06702727266208934,25,up,up,0.6072637999895961,1.3757395639903889,,experiment,cRDM,1.0,,,,1176.9846122999445,19,24,female,True,11769,11775,False,False,trough,inspiration
423,85.0,25,M,up,1.0126121999928728,0.8666419366117704,,experiment,emotion,1.0,,,,1196.7672479000175,19,24,female,True,11967,11977,True,True,inspiration,inspiration
424,63.0,25,M,up,1.0117622000398114,1.5445860165604302,,experiment,emotion,1.0,,,,1199.6171056999592,19,24,female,True,11996,12006,True,True,inspiration,expiration
425,77.0,25,F,up,1.4511416000314057,1.1230173219767168,,experiment,emotion,1.0,,,,1202.0337015999248,19,24,female,True,12020,12035,True,True,expiration,expiration
426,85.0,25,F,up,0.6722812000662088,1.1769798940576568,,experiment,emotion,1.0,,,,1204.9335850999926,19,24,female,True,12049,12056,False,False,peak,expiration
427,77.0,25,M,down,0.6070281999418512,1.3780048013318282,,experiment,emotion,1.0,,,,1207.266840599943,19,24,female,True,12072,12078,False,False,expiration,expiration
428,70.0,25,F,up,0.6601015999913216,1.6134504989097638,,experiment,emotion,1.0,,,,1209.7667389999842,19,24,female,True,12097,12104,False,False,inspiration,expiration
429,63.0,25,M,down,0.8574923999840394,0.5393346526309991,,experiment,emotion,1.0,,,,1211.2333790999835,19,24,female,True,12112,12121,False,False,expiration,expiration
430,70.0,25,M,down,0.6415736000053585,0.33120937485489604,,experiment,emotion,1.0,,,,1212.6832951999968,19,24,female,True,12126,12132,False,False,expiration,expiration
431,85.0,25,F,down,0.5285855000838637,0.8379093932789567,,experiment,emotion,1.0,,,,1214.4332605999664,19,24,female,True,12144,12149,False,False,inspiration,expiration
432,70.0,25,F,up,0.7343467000173405,1.0375898873187108,,experiment,emotion,1.0,,,,1216.266515300027,19,24,female,True,12162,12169,False,False,expiration,expiration
433,77.0,25,F,up,0.4830697999568656,0.4696510439681724,,experiment,emotion,1.0,,,,1217.7497885000191,19,24,female,True,12177,12182,False,False,inspiration,inspiration
434,85.0,25,F,up,0.6585182999260724,1.7486359849395297,,experiment,emotion,1.0,,,,1220.2663473000284,19,24,female,True,12202,12209,False,False,expiration,expiration
435,77.0,25,F,down,0.9592686999822037,1.9992845571787248,,experiment,emotion,1.0,,,,1223.1995965000242,19,24,female,True,12231,12241,False,False,expiration,expiration
436,63.0,25,F,up,0.6494208999210969,0.8438120450646929,,experiment,emotion,1.0,,,,1225.29948279995,19,24,female,True,12252,12258,False,False,inspiration,expiration
437,70.0,25,M,down,0.7980957999825478,1.1606670913342965,,experiment,emotion,1.0,,,,1227.3827636999777,19,24,female,True,12273,12281,True,True,inspiration,inspiration
438,63.0,25,M,up,0.8185431000310928,1.3930969671930633,,experiment,emotion,1.0,,,,1229.8493289999894,19,24,female,True,12298,12306,True,True,expiration,expiration
439,85.0,25,M,up,0.6835800999542698,1.2223152487300215,,experiment,emotion,1.0,,,,1232.14927179995,19,24,female,True,12321,12328,False,False,inspiration,inspiration
440,63.0,25,M,down,1.213344599935226,0.8280679613207806,,experiment,emotion,1.0,,,,1233.9325401999522,19,24,female,True,12339,12351,False,False,expiration,expiration
441,77.0,25,F,up,0.9527858999790624,1.4534303233890848,,experiment,emotion,1.0,,,,1236.899082500022,19,24,female,True,12368,12378,False,False,expiration,expiration
442,77.0,25,M,up,0.7048836000030859,1.095491868138558,,experiment,emotion,1.0,,,,1239.1989757999545,19,24,female,True,12391,12398,False,False,inspiration,expiration
443,70.0,25,M,down,0.7229995999950916,1.5097249241842623,,experiment,emotion,1.0,,,,1241.6988857999675,19,24,female,True,12416,12423,False,False,expiration,expiration
444,70.0,25,F,up,0.7080750000895932,1.5077589268147669,,experiment,emotion,1.0,,,,1244.1988240999635,19,24,female,True,12441,12448,False,False,expiration,expiration
445,63.0,25,M,down,0.7784626999637112,1.0650887920919092,,experiment,emotion,1.0,,,,1246.2654028999384,19,24,female,True,12462,12470,False,False,inspiration,expiration
446,85.0,25,F,up,0.6702096000080928,0.8100108116957778,,experiment,emotion,1.0,,,,1248.1486618999625,19,24,female,True,12481,12488,False,False,trough,inspiration
447,77.0,25,F,down,0.8736326000653207,1.8692868807258707,,experiment,emotion,1.0,,,,1250.965231899987,19,24,female,True,12509,12518,False,False,expiration,expiration
448,63.0,25,M,down,0.8286703999619931,0.3543572496804536,,experiment,emotion,1.0,,,,1252.4651738000102,19,24,female,True,12524,12532,False,False,trough,inspiration
449,85.0,25,M,down,0.7988450999837369,0.8603413416505066,,experiment,emotion,1.0,,,,1254.4149885999507,19,24,female,True,12544,12552,False,False,inspiration,expiration
450,85.0,25,F,up,0.6718576999846846,0.9386374742656756,,experiment,emotion,1.0,,,,1256.415012500016,19,24,female,True,12564,12571,False,False,expiration,expiration
451,70.0,25,M,down,0.6178748999955133,1.2023838084704783,,experiment,emotion,1.0,,,,1258.5649852999484,19,24,female,True,12585,12591,False,False,inspiration,expiration
452,63.0,25,F,down,0.9327248000772671,0.9908780253083898,,experiment,emotion,1.0,,,,1260.4482159999898,19,24,female,True,12604,12613,False,False,expiration,expiration
453,70.0,25,F,down,0.7945010999683291,1.628231983292527,,experiment,emotion,1.0,,,,1263.2814385000383,19,24,female,True,12632,12640,False,False,expiration,expiration
454,77.0,25,F,down,0.9736151000251994,1.0887205017087975,,experiment,emotion,1.0,,,,1265.4312475000042,19,24,female,True,12654,12664,False,False,expiration,expiration
455,63.0,25,M,up,0.6945612999843433,0.6088679933475301,,experiment,emotion,1.0,,,,1267.2813098999904,19,24,female,True,12672,12679,False,False,expiration,expiration
456,85.0,25,M,up,0.8953094999305904,1.0997411974137985,,experiment,emotion,1.0,,,,1269.3645482999273,19,24,female,True,12693,12702,False,False,inspiration,expiration
457,77.0,25,M,up,0.35015389998443425,1.2122753417386172,,experiment,emotion,1.0,,,,1271.747797899996,19,24,female,True,12717,12721,False,False,expiration,expiration
458,85.0,25,F,up,0.8622181999962777,1.0813259443720025,,experiment,emotion,1.0,,,,1273.5146637000146,19,24,female,True,12735,12744,False,False,inspiration,expiration
459,63.0,25,F,down,0.5815188999986276,0.4136413748338112,,experiment,emotion,1.0,,,,1275.0643342999977,19,24,female,True,12750,12756,False,False,expiration,expiration
460,77.0,25,M,down,0.728984700050205,0.6070578781433129,,experiment,emotion,1.0,,,,1276.5308698000156,19,24,female,True,12765,12772,False,False,inspiration,inspiration
461,70.0,25,F,up,1.1319796000607312,1.5065224276479467,,experiment,emotion,1.0,,,,1279.0308803999797,19,24,female,True,12790,12801,False,False,inspiration,expiration
462,70.0,25,M,up,0.5234759000595659,1.4712274744678366,,experiment,emotion,1.0,,,,1281.8974114999876,19,24,female,True,12818,12823,False,False,expiration,expiration
463,77.0,25,M,up,0.9262355000246316,0.4253635566218893,,experiment,emotion,1.0,,,,1283.1306365999624,19,24,female,True,12831,12840,False,False,expiration,inspiration
464,85.0,25,M,up,1.1933150000404569,1.1187335535236478,,experiment,emotion,1.0,,,,1285.430525999982,19,24,female,True,12854,12866,False,False,expiration,expiration
465,70.0,25,F,down,0.3501747000264004,1.6954211317966033,,experiment,emotion,1.0,,,,1288.5805084999886,19,24,female,True,12885,12889,False,False,inspiration,inspiration
466,63.0,25,F,down,0.6010659000603482,0.5835483039998361,,experiment,emotion,1.0,,,,1289.8637901999755,19,24,female,True,12898,12904,False,False,inspiration,inspiration
467,63.0,25,M,down,0.6177892999257892,0.7943949060972642,,experiment,emotion,1.0,,,,1291.5470803999342,19,24,female,True,12915,12921,False,False,peak,expiration
468,70.0,25,F,up,0.7595748000312597,1.7322871039309988,,experiment,emotion,1.0,,,,1294.1802868000232,19,24,female,True,12941,12949,False,False,expiration,inspiration
469,85.0,25,F,up,0.6342552999267355,1.2676730973259591,,experiment,emotion,1.0,,,,1296.4635735999327,19,24,female,True,12964,12970,False,False,expiration,expiration
470,77.0,25,M,up,0.832037000101991,1.1575871177644057,,experiment,emotion,1.0,,,,1298.5468240999614,19,24,female,True,12985,12993,False,False,inspiration,expiration
471,63.0,25,M,up,0.6708128999453038,0.6747427595651371,,experiment,emotion,1.0,,,,1300.3300401000306,19,24,female,True,13003,13010,False,False,expiration,expiration
472,85.0,25,F,down,0.8331718000117689,0.5379294514825237,,experiment,emotion,1.0,,,,1301.7966878999725,19,24,female,True,13017,13025,False,False,expiration,inspiration
473,77.0,25,M,down,0.7042454000329599,1.044453917573943,,experiment,emotion,1.0,,,,1303.9466063999569,19,24,female,True,13039,13046,False,False,expiration,expiration
474,77.0,25,F,down,0.5589741000439972,0.8182112179715764,,experiment,emotion,1.0,,,,1305.7298784999875,19,24,female,True,13057,13063,False,False,inspiration,inspiration
475,63.0,25,F,down,0.9343142999568954,0.6373212476023504,,experiment,emotion,1.0,,,,1307.196522800019,19,24,female,True,13072,13081,False,False,expiration,expiration
476,70.0,25,F,down,1.0691716000437737,1.6608885300514844,,experiment,emotion,1.0,,,,1310.079727399978,19,24,female,True,13100,13111,False,False,peak,expiration
477,85.0,25,M,up,0.6052641000133008,1.554539557069734,,experiment,emotion,1.0,,,,1312.9796097000362,19,24,female,True,13129,13135,False,False,inspiration,peak
478,70.0,25,M,down,0.4876326000085101,1.4029712973179749,,experiment,emotion,1.0,,,,1315.2462080999976,19,24,female,True,13152,13157,False,False,expiration,inspiration
479,70.0,25,F,up,0.8944505000254139,1.374366111212165,,experiment,emotion,1.0,,,,1317.379463099991,19,24,female,True,13173,13182,False,False,expiration,expiration
480,70.0,25,F,up,0.6744523000670597,0.7270678829724757,,experiment,emotion,1.0,,,,1319.2793823999816,19,24,female,True,13192,13199,False,False,inspiration,inspiration
481,85.0,25,M,up,0.919521400006488,0.36312151526379294,,experiment,emotion,1.0,,,,1320.5793678000337,19,24,female,True,13205,13214,False,False,expiration,expiration
482,77.0,25,M,up,0.7559008999960497,0.3669165430478266,,experiment,emotion,1.0,,,,1322.1459438999882,19,24,female,True,13221,13229,False,False,expiration,inspiration
483,63.0,25,M,up,0.3502124999649823,0.8891065935406217,,experiment,emotion,1.0,,,,1324.06254850002,19,24,female,True,13240,13244,False,False,expiration,expiration
484,63.0,25,M,down,2.324701700010337,0.5740589805879657,,experiment,emotion,1.0,,,,1325.3291479999898,19,24,female,True,13253,13276,False,False,inspiration,inspiration
485,77.0,25,M,up,0.8238193999277428,1.953072904108055,,experiment,emotion,1.0,,,,1329.8790127999382,19,24,female,True,13298,13306,False,False,expiration,inspiration
486,85.0,25,F,up,0.7497387999901548,1.8368450991479612,,experiment,emotion,1.0,,,,1332.8121143999742,19,24,female,True,13328,13335,False,False,expiration,expiration
487,85.0,25,F,down,0.7198303999612108,1.8778401075100484,,experiment,emotion,1.0,,,,1335.712015899946,19,24,female,True,13357,13364,False,False,expiration,expiration
488,63.0,25,M,down,0.9641965000191705,1.975615600056403,,experiment,emotion,1.0,,,,1338.6786740999667,19,24,female,True,13386,13396,True,True,expiration,expiration
489,85.0,25,F,up,0.7196235998999327,0.6721814305565459,,experiment,emotion,1.0,,,,1340.5952570999507,19,24,female,True,13405,13412,True,True,expiration,expiration
490,70.0,25,F,up,0.8866362000117078,0.851182884936259,,experiment,emotion,1.0,,,,1342.4452123999365,19,24,female,True,13424,13433,True,True,inspiration,expiration
491,77.0,25,F,down,0.6924049999797717,1.716835123886744,,experiment,emotion,1.0,,,,1345.3284337000225,19,24,female,True,13453,13460,True,True,expiration,expiration
492,70.0,25,M,down,0.7835373000707477,1.522845267417732,,experiment,emotion,1.0,,,,1347.8283347999675,19,24,female,True,13478,13486,True,True,expiration,expiration
493,63.0,25,F,down,0.9744089000159876,1.8385565888242323,,experiment,emotion,1.0,,,,1350.7114541999765,19,24,female,True,13507,13517,True,True,expiration,peak
494,77.0,25,F,down,0.7387078000465408,0.9075658317283182,,experiment,emotion,1.0,,,,1352.8781365000175,19,24,female,True,13528,13535,True,True,expiration,expiration
495,70.0,25,F,down,0.6097312000347301,0.5548673928638881,,experiment,emotion,1.0,,,,1354.4281131000025,19,24,female,True,13544,13550,True,True,inspiration,inspiration
496,77.0,25,M,up,0.6698670999612659,1.0232968509088658,,experiment,emotion,1.0,,,,1356.3280016999925,19,24,female,True,13563,13570,True,True,expiration,expiration
497,63.0,25,M,down,0.7472431999631226,1.3780131621971168,,experiment,emotion,1.0,,,,1358.644606799935,19,24,female,True,13586,13593,True,True,expiration,expiration
498,85.0,25,F,up,0.6603245000587776,1.770770309936922,,experiment,emotion,1.0,,,,1361.4444990999766,19,24,female,True,13614,13621,True,True,inspiration,inspiration
499,77.0,25,M,down,0.8218039000639692,1.425444650917693,,experiment,emotion,1.0,,,,1363.811105699977,19,24,female,True,13638,13646,True,True,expiration,expiration
500,85.0,25,F,up,0.6608061000006273,1.2578165426496797,,experiment,emotion,1.0,,,,1366.1610022999812,19,24,female,True,13661,13668,True,True,inspiration,inspiration
501,63.0,25,M,down,0.9699191000545396,1.4748415633309868,,experiment,emotion,1.0,,,,1368.5609238999896,19,24,female,True,13685,13695,True,True,expiration,expiration
502,70.0,25,M,up,0.6463446000125259,1.1070642109720468,,experiment,emotion,1.0,,,,1370.9274996999886,19,24,female,True,13709,13715,True,True,expiration,expiration
503,0.06702727266208934,25,up,up,0.6244199000066146,0.5162610781842354,,experiment,cRDM,2.0,,,,1381.8604219999395,19,24,female,True,13818,13824,True,True,expiration,expiration
504,0.06702727266208934,25,up,up,0.8052097000181675,1.7524936372978792,,experiment,cRDM,2.0,,,,1384.4936215999771,19,24,female,True,13844,13852,True,True,expiration,inspiration
505,0.06702727266208934,25,down,down,0.5749101999681443,0.6707625833398496,,experiment,cRDM,2.0,,,,1386.2269431999885,19,24,female,True,13862,13868,True,True,expiration,expiration
506,0.06702727266208934,25,down,up,0.5153652000008151,1.3300524276550494,,experiment,cRDM,2.0,,,,1388.3934935999566,19,24,female,True,13883,13888,True,True,expiration,expiration
507,0.06702727266208934,25,up,down,0.59005190001335,1.5019439405010004,,experiment,cRDM,2.0,,,,1390.6767690000124,19,24,female,True,13906,13912,True,True,expiration,expiration
508,0.06702727266208934,25,down,down,0.6401628999738023,1.4973778785522869,,experiment,cRDM,2.0,,,,1393.0267143000385,19,24,female,True,13930,13936,True,True,inspiration,expiration
509,0.06702727266208934,25,up,up,0.7099066999508068,0.8833532932399155,,experiment,cRDM,2.0,,,,1394.8099373999287,19,24,female,True,13948,13955,True,True,inspiration,expiration
510,0.06702727266208934,25,up,down,0.5636298999888822,1.4507655369618149,,experiment,cRDM,2.0,,,,1397.243197600008,19,24,female,True,13972,13978,True,True,expiration,expiration
511,0.06702727266208934,25,down,down,0.6973117000889033,1.9500954592936157,,experiment,cRDM,2.0,,,,1400.026491199969,19,24,female,True,14000,14007,True,True,expiration,expiration
512,0.06702727266208934,25,down,down,0.8192712999880314,1.4121028276172367,,experiment,cRDM,2.0,,,,1402.4095637999708,19,24,female,True,14024,14032,True,True,expiration,expiration
513,0.06702727266208934,25,down,down,0.6042513999855146,1.1771911798823242,,experiment,cRDM,2.0,,,,1404.659573999932,19,24,female,True,14046,14052,True,True,inspiration,inspiration
514,0.06702727266208934,25,down,down,0.5220147999934852,1.4603096141001106,,experiment,cRDM,2.0,,,,1406.992824099958,19,24,female,True,14069,14074,True,True,inspiration,expiration
515,0.06702727266208934,25,down,down,0.501080600079149,0.9211737663934942,,experiment,cRDM,2.0,,,,1408.6927570999833,19,24,female,True,14086,14091,True,True,expiration,expiration
516,0.06702727266208934,25,down,down,0.601648100069724,1.654244107103738,,experiment,cRDM,2.0,,,,1411.1092017999615,19,24,female,True,14111,14117,True,True,expiration,expiration
517,0.06702727266208934,25,up,up,0.8023112999508157,0.6261245339934517,,experiment,cRDM,2.0,,,,1412.5926078000339,19,24,female,True,14125,14133,True,False,expiration,inspiration
518,0.06702727266208934,25,up,down,0.5569782999809831,1.608062864060409,,experiment,cRDM,2.0,,,,1415.2758574000327,19,24,female,True,14152,14158,False,False,expiration,expiration
519,0.06702727266208934,25,up,down,0.7881152000045404,1.3769018161492017,,experiment,cRDM,2.0,,,,1417.4757712000285,19,24,female,True,14174,14182,False,False,inspiration,expiration
520,0.06702727266208934,25,up,up,0.8688160999445245,1.1821301087368032,,experiment,cRDM,2.0,,,,1419.7090341999426,19,24,female,True,14197,14206,False,False,expiration,expiration
521,0.06702727266208934,25,down,down,0.6462267999304458,1.6321414030367682,,experiment,cRDM,2.0,,,,1422.475607899949,19,24,female,True,14224,14230,False,False,expiration,expiration
522,0.06702727266208934,25,up,down,1.1143237999640403,1.9371230769399197,,experiment,cRDM,2.0,,,,1425.325514300028,19,24,female,True,14253,14264,False,False,inspiration,expiration
523,0.06702727266208934,25,up,down,0.8334758999990299,1.7302036040977766,,experiment,cRDM,2.0,,,,1428.4254063999979,19,24,female,True,14284,14292,False,False,trough,inspiration
524,0.06702727266208934,25,down,up,1.4095220000017434,1.2873051383768377,,experiment,cRDM,2.0,,,,1430.825311099994,19,24,female,True,14308,14322,False,False,expiration,expiration
525,0.06702727266208934,25,up,down,0.7880430999211967,0.3949390488588019,,experiment,cRDM,2.0,,,,1432.8918526000346,19,24,female,True,14328,14336,False,False,inspiration,inspiration
526,0.06702727266208934,25,down,down,0.7016804000595585,0.8883094399221556,,experiment,cRDM,2.0,,,,1434.8251739999978,19,24,female,True,14348,14355,False,False,expiration,expiration
527,0.06702727266208934,25,down,up,1.2188461000332609,0.32437652029015723,,experiment,cRDM,2.0,,,,1436.125062200008,19,24,female,True,14361,14373,False,False,inspiration,peak
528,0.06702727266208934,25,up,down,0.8081784999230877,1.0313932307804263,,experiment,cRDM,2.0,,,,1438.6416420999449,19,24,female,True,14386,14394,False,False,expiration,inspiration
529,0.06702727266208934,25,up,down,0.6614032000070438,1.88574632038434,,experiment,cRDM,2.0,,,,1441.5914741000158,19,24,female,True,14416,14423,False,False,expiration,expiration
530,0.06702727266208934,25,down,down,0.8926466999109834,0.5892507103295141,,experiment,cRDM,2.0,,,,1443.1081582999325,19,24,female,True,14431,14440,False,False,inspiration,inspiration
531,0.06702727266208934,25,up,down,1.0450240999925882,0.4129681934372561,,experiment,cRDM,2.0,,,,1444.6747948999982,19,24,female,True,14446,14456,False,False,inspiration,expiration
532,0.06702727266208934,25,down,down,0.7340792000759393,0.5528120967512693,,experiment,cRDM,2.0,,,,1446.5247321999634,19,24,female,True,14465,14472,False,False,expiration,expiration
533,0.06702727266208934,25,down,down,0.9052255999995396,0.9540027061779284,,experiment,cRDM,2.0,,,,1448.4746340999845,19,24,female,True,14484,14493,False,False,inspiration,peak
534,0.06702727266208934,25,down,down,0.7729864000575617,1.7173660456301219,,experiment,cRDM,2.0,,,,1451.35787409998,19,24,female,True,14513,14521,False,False,expiration,inspiration
535,0.06702727266208934,25,up,down,0.7383748999563977,0.3713913545216703,,experiment,cRDM,2.0,,,,1452.7744610999946,19,24,female,True,14527,14534,False,False,inspiration,inspiration
536,0.06702727266208934,25,up,down,0.8414344000630081,0.3409611942679979,,experiment,cRDM,2.0,,,,1454.1244338999966,19,24,female,True,14541,14549,False,False,expiration,expiration
537,0.06702727266208934,25,up,up,0.7611599999945611,1.9699947940848053,,experiment,cRDM,2.0,,,,1457.2076635999838,19,24,female,True,14572,14580,False,False,peak,expiration
538,0.06702727266208934,25,down,down,0.7862967998953536,1.5384813694091846,,experiment,cRDM,2.0,,,,1459.7575757999439,19,24,female,True,14597,14605,False,False,expiration,expiration
