,stimLvl,stimTime,rand,response,rt,precedingITI,trialNumber,trialType,stimuli,block,estIntens,estThres,estSlope,trialStart,subject,age,gender,headRest,onset,responsI,manBadOnset,manBadRespons,onset_phase,respons_phase
0,150.0,100,F,,,1.8794348098554916,,introTrial,emotion,,,,,218.92511819999984,27,27,female,True,2188,0,False,False,expiration,0
1,0.9,100,down,,,1.1359743494252443,,introTrial,cRDM,,,,,224.0083359,27,27,female,True,2239,0,False,False,inspiration,0
2,0.9,25,down,down,1.1227523000002293,1.7094704105749945,,tutorial,cRDM,,,,,260.20683120000007,27,27,female,True,2601,2612,False,False,expiration,expiration
3,0.9,25,down,down,0.7291485999999168,1.370312366854215,,tutorial,cRDM,,,,,262.97345450000006,27,27,female,True,2629,2636,False,False,expiration,expiration
4,0.9,25,up,up,0.6458999000001313,0.6672603617723482,,tutorial,cRDM,,,,,264.6566591999999,27,27,female,True,2646,2652,False,False,trough,inspiration
5,0.9,25,up,up,0.5975945000000138,1.7207561730898893,,tutorial,cRDM,,,,,267.2899468999999,27,27,female,True,2672,2678,False,False,expiration,inspiration
6,0.9,25,down,up,0.31712019999986296,1.6233390622050634,,tutorial,cRDM,,,,,269.8064789,27,27,female,True,2697,2700,False,False,expiration,expiration
7,0.9,25,down,down,0.4398615999998583,1.5425540287023691,,tutorial,cRDM,,,,,272.0397339000001,27,27,female,True,2719,2723,False,False,peak,expiration
8,0.9,25,up,up,0.4352356000003965,1.054913633134934,,tutorial,cRDM,,,,,273.80633579999994,27,27,female,True,2737,2741,False,False,inspiration,inspiration
9,0.9,25,up,up,0.4002432999996017,1.4667223021373381,,tutorial,cRDM,,,,,275.9896265000002,27,27,female,True,2759,2763,False,False,expiration,expiration
10,0.9,25,down,down,0.4617478000000119,0.9321896649800144,,tutorial,cRDM,,,,,277.62285759999986,27,27,female,True,2775,2780,False,False,peak,expiration
11,0.9,25,up,up,0.3838436999999431,1.706515503980091,,tutorial,cRDM,,,,,280.03941080000004,27,27,female,True,2799,2803,False,False,peak,expiration
12,200.0,25,M,up,0.8931519999996453,1.7919402103447364,,tutorial,emotion,,,,,290.6724024999998,27,27,female,True,2906,2915,False,False,expiration,trough
13,200.0,25,M,up,0.7409241999998812,1.822337539713623,,tutorial,emotion,,,,,293.65563079999987,27,27,female,True,2936,2943,False,False,expiration,expiration
14,200.0,25,F,up,0.5123392000000422,0.9299249458725848,,tutorial,emotion,,,,,295.62223040000026,27,27,female,True,2955,2960,False,False,inspiration,expiration
15,0.0,25,F,down,0.4939471000002413,0.8342229342926293,,tutorial,emotion,,,,,297.27263230000017,27,27,female,True,2972,2977,False,False,expiration,inspiration
16,0.0,25,M,down,0.5737398000001122,0.4398799978259606,,tutorial,emotion,,,,,298.48881630000005,27,27,female,True,2984,2990,False,False,inspiration,expiration
17,200.0,25,F,down,0.4169831000003797,0.7744841205134858,,tutorial,emotion,,,,,300.1220804999998,27,27,female,True,3000,3004,False,False,expiration,inspiration
18,0.0,25,M,up,0.4002538000004279,0.9797497284709056,,tutorial,emotion,,,,,301.8219954000001,27,27,female,True,3017,3021,False,False,expiration,expiration
19,200.0,25,M,up,0.7202594999998837,0.33512181058725377,,tutorial,emotion,,,,,302.8552924999999,27,27,female,True,3027,3034,False,False,expiration,inspiration
20,0.0,25,F,down,0.4853640999999698,1.435229162358988,,tutorial,emotion,,,,,305.30521830000004,27,27,female,True,3052,3057,False,False,expiration,expiration
21,0.0,25,F,down,0.557689400000072,0.5550939231579475,,tutorial,emotion,,,,,306.62186530000014,27,27,female,True,3065,3071,False,False,inspiration,expiration
22,0.29,25,up,down,0.4753780999999435,1.0994090118987438,,psi_staircase_training,cRDM,,0.25,0.25693124029946324,0.10500000000000002,322.6711659000003,27,27,female,True,3226,3231,False,False,expiration,expiration
23,0.39,25,up,down,0.4701258000000053,0.7822347118768654,,psi_staircase_training,cRDM,,0.3546095744690497,0.36161092129536426,0.10606203002656786,324.20443890000024,27,27,female,True,3241,3246,False,False,inspiration,inspiration
24,0.45,25,down,down,0.797812199999953,0.8932040413856019,,psi_staircase_training,cRDM,,0.4150689485921841,0.4216473382772667,0.09965473524084284,325.8377048000002,27,27,female,True,3257,3265,False,False,expiration,expiration
25,0.44,25,down,down,0.5373406999997314,1.2459423290979306,,psi_staircase_training,cRDM,,0.4054457120615717,0.4121127131824852,0.10099709250451644,328.1542703,27,27,female,True,3280,3285,False,False,inspiration,expiration
26,0.43,25,up,down,0.36716800000021976,1.6847144953465951,,psi_staircase_training,cRDM,,0.3958107273700079,0.4025120380008885,0.10151684054251513,330.65417389999993,27,27,female,True,3305,3309,False,False,inspiration,expiration
27,0.46,25,down,down,0.5220749999998588,1.8196515708845669,,psi_staircase_training,cRDM,,0.4310053600809398,0.43764659464030736,0.10060675991677713,333.1874739999998,27,27,female,True,3331,3336,False,False,inspiration,expiration
28,0.46,25,up,down,0.4238897000000179,1.4838790743604575,,psi_staircase_training,cRDM,,0.4248918249680527,0.4315096766594727,0.1002525374358909,335.4706728999999,27,27,female,True,3354,3358,False,False,inspiration,inspiration
29,0.47,25,down,down,0.5572320999999647,0.8647433413798131,,psi_staircase_training,cRDM,,0.44720397302053455,0.4544159107843657,0.10925223083968254,337.0372668999998,27,27,female,True,3369,3375,False,False,expiration,expiration
30,0.48,25,down,down,0.4229758000001311,1.7545121461748887,,psi_staircase_training,cRDM,,0.4419596468083377,0.449353214373789,0.11200370508471752,339.6205264,27,27,female,True,3395,3399,False,False,expiration,expiration
31,0.48,25,up,down,0.41687780000029306,0.5322128533046628,,psi_staircase_training,cRDM,,0.4380742118707556,0.4453811956284696,0.1106920639613927,340.8538020000001,27,27,female,True,3407,3411,False,False,expiration,inspiration
32,0.46,25,down,up,0.4823913999998695,0.528896135296366,,psi_staircase_training,cRDM,,0.4533926867516517,0.4614185276666846,0.12158189006139522,342.08714850000024,27,27,female,True,3420,3425,False,False,expiration,expiration
33,0.52,25,down,down,0.4879275999996935,1.918585199482565,,psi_staircase_training,cRDM,,0.4661559023808055,0.4730657886435618,0.10467651188569917,344.77087799999987,27,27,female,True,3447,3452,False,False,inspiration,expiration
34,0.52,25,down,down,0.4165395999998509,1.045917776764699,,psi_staircase_training,cRDM,,0.4660842495739834,0.4726080855570926,0.09882831190826227,346.57082100000025,27,27,female,True,3465,3469,False,False,inspiration,inspiration
35,0.52,25,up,down,0.3338854000003266,1.1810639594334111,,psi_staircase_training,cRDM,,0.4661563524811432,0.4722855866245032,0.09285056602389484,348.45350199999984,27,27,female,True,3483,3486,False,False,expiration,expiration
36,0.52,25,up,up,0.5551347000000533,1.6573915915862976,,psi_staircase_training,cRDM,,0.4645869956041616,0.4736573305288258,0.13740472497591694,350.80343010000024,27,27,female,True,3507,3513,False,False,expiration,expiration
37,0.52,25,down,down,0.5305560000001606,0.5404336569478301,,psi_staircase_training,cRDM,,0.4636317774059408,0.4725107204528762,0.13450536695436985,352.17001810000016,27,27,female,True,3521,3526,False,False,trough,inspiration
38,0.52,25,down,down,0.4415236999998342,1.0540834307959328,,psi_staircase_training,cRDM,,0.4627384794092066,0.471406192241019,0.13130548185016405,354.01998039999984,27,27,female,True,3539,3543,False,False,expiration,expiration
39,0.52,25,up,up,0.5616007999997237,0.8393918231526485,,psi_staircase_training,cRDM,,0.46192475153337004,0.4703607426532774,0.12779517507982996,355.56990159999987,27,27,female,True,3555,3561,False,False,inspiration,expiration
40,0.52,25,up,up,0.4649593000003733,0.4900253203842211,,psi_staircase_training,cRDM,,0.4612085047112967,0.46939211495670297,0.12397190670682715,356.88655359999984,27,27,female,True,3568,3573,False,False,expiration,trough
41,0.52,25,up,up,0.44472289999976056,0.5370534320644694,,psi_staircase_training,cRDM,,0.4606070752895613,0.4685180637571242,0.11984201285856808,358.1698099,27,27,female,True,3581,3585,False,False,inspiration,peak
42,0.46,25,up,up,0.41922349999958897,0.8483474516790734,,psi_staircase_training,cRDM,,0.460136265390807,0.4677554715392085,0.11542185972748795,359.73643420000013,27,27,female,True,3596,3600,False,False,expiration,inspiration
43,0.46,25,down,down,0.2832317000002149,1.3354660287384599,,psi_staircase_training,cRDM,,0.4556034258054858,0.4637735861528812,0.12376815683953983,361.77024740000013,27,27,female,True,3617,3620,False,False,expiration,expiration
44,0.46,25,down,down,0.5668893000001844,1.2491595552885786,,psi_staircase_training,cRDM,,0.4511845997257778,0.4597960367801192,0.13045297113358764,363.7196371,27,27,female,True,3636,3642,False,False,inspiration,expiration
45,0.46,25,down,down,0.3171708999998373,1.5463515775082035,,psi_staircase_training,cRDM,,0.4469000614347616,0.455853734493401,0.13563743724625088,366.11952190000017,27,27,female,True,3660,3663,False,False,inspiration,expiration
46,0.45,25,up,down,0.31722620000027746,0.6926618116566359,,psi_staircase_training,cRDM,,0.4427393026395283,0.4519520275656746,0.13956176318403973,367.51947509999985,27,27,female,True,3674,3677,False,False,expiration,inspiration
47,0.52,25,up,up,0.5518200999999863,1.8423855073001152,,psi_staircase_training,cRDM,,0.4542783631015968,0.4628581167619176,0.1299730056110516,370.0526998,27,27,female,True,3699,3705,False,False,expiration,inspiration
48,0.46,25,down,down,0.4585860000001958,1.61220300618281,,psi_staircase_training,cRDM,,0.4533207695592322,0.4616878454967198,0.12675119249641684,372.48594790000016,27,27,female,True,3724,3729,False,False,expiration,expiration
49,0.45,25,down,down,0.4003220999998121,0.43330978450991664,,psi_staircase_training,cRDM,,0.4493886845236999,0.4580981372941488,0.13193779199488392,373.6525603,27,27,female,True,3735,3739,False,False,inspiration,inspiration
50,0.45,25,up,down,0.5126957999996193,1.8884019636582,,psi_staircase_training,cRDM,,0.4453983656043114,0.4544268518792259,0.13677076798786472,376.23582029999983,27,27,female,True,3761,3766,False,False,inspiration,inspiration
51,0.52,25,up,down,0.5811376000001474,1.9194061022426292,,psi_staircase_training,cRDM,,0.4557636582358146,0.4641345700953159,0.1268093021267347,378.95238190000015,27,27,female,True,3788,3794,False,False,inspiration,inspiration
52,100.0,25,M,down,0.5411424000003535,0.6919307884455816,,psi_staircase_training,emotion,,100.0,100.0,25.00050000000001,384.06938440000016,27,27,female,True,3840,3845,False,False,inspiration,expiration
53,145.0,25,M,down,0.4759856000000582,0.7545322676736876,,psi_staircase_training,emotion,,145.25719053245996,145.25719053245996,25.000500000000283,385.7355241,27,27,female,True,3856,3861,False,False,expiration,expiration
54,168.0,25,F,up,0.5277049000001169,1.1780992739882372,,psi_staircase_training,emotion,,168.03875363226317,168.03875363226317,24.34819504815532,387.76878510000006,27,27,female,True,3877,3882,False,False,expiration,expiration
55,155.0,25,F,down,0.4611350999998649,0.7591234767136044,,psi_staircase_training,emotion,,155.004436652377,155.004436652377,25.558429500416704,389.43537550000013,27,27,female,True,3893,3898,False,False,inspiration,expiration
56,170.0,25,M,up,0.7435426000001826,1.7789258850646872,,psi_staircase_training,emotion,,165.44574296022685,165.44574296022685,24.967885397748628,392.0519408,27,27,female,True,3919,3926,False,False,inspiration,expiration
57,160.0,25,F,up,0.8299694999996063,1.7237445770657784,,psi_staircase_training,emotion,,159.52669485581492,159.52669485581492,22.495191219702527,394.9185161,27,27,female,True,3948,3956,False,False,expiration,expiration
58,147.0,25,M,up,0.5774271999998746,1.854093507494235,,psi_staircase_training,emotion,,153.1208070803471,153.1208070803471,23.19092239554965,397.98508799999985,27,27,female,True,3979,3985,False,False,expiration,expiration
59,131.0,25,F,up,0.5832015999999385,0.9441800613199628,,psi_staircase_training,emotion,,144.11172588590583,144.11172588590583,29.605855662144407,399.8682706,27,27,female,True,3998,4004,False,False,inspiration,expiration
60,118.0,25,F,up,0.4975823999998283,1.7995422097536582,,psi_staircase_training,emotion,,133.8520861314293,133.8520861314293,34.35131506104172,402.6348960999998,27,27,female,True,4025,4030,False,False,inspiration,inspiration
61,108.0,25,M,up,0.5514331999997921,1.1686625154550183,,psi_staircase_training,emotion,,123.68937544939743,123.68937544939743,37.32430622361097,404.66807560000007,27,27,female,True,4046,4052,False,False,expiration,inspiration
62,98.0,25,F,down,0.6343886999998176,0.4123314965304641,,psi_staircase_training,emotion,,113.984414828374,113.984414828374,39.261055216710155,406.01811630000014,27,27,female,True,4059,4065,False,False,expiration,expiration
63,109.0,25,F,up,0.8134703000000627,1.8921007575332855,,psi_staircase_training,emotion,,119.1130947395261,119.1130947395261,38.4805487006011,408.9179828000002,27,27,female,True,4088,4096,False,False,expiration,expiration
64,109.0,25,F,up,0.6458939999997709,0.8186554842859775,,psi_staircase_training,emotion,,112.17003267275624,112.17003267275624,39.32913436776651,410.8845437999999,27,27,female,True,4108,4114,False,False,inspiration,inspiration
65,91.0,25,M,down,0.6483919000002061,1.5397863619366339,,psi_staircase_training,emotion,,106.33466948103752,106.33466948103752,39.61642455383885,413.4511238,27,27,female,True,4133,4139,False,False,expiration,expiration
66,111.0,25,M,down,0.5670224000000417,0.7025031197747831,,psi_staircase_training,emotion,,110.20118081991859,110.20118081991859,38.71558901581608,415.1844308999998,27,27,female,True,4151,4157,False,False,inspiration,expiration
67,94.0,25,F,down,0.595123600000079,1.044467374889109,,psi_staircase_training,emotion,,114.89842181221243,114.89842181221243,39.19389581197979,417.1843586,27,27,female,True,4171,4177,False,False,inspiration,inspiration
68,118.0,25,F,down,0.4762435999996342,0.5122485785895882,,psi_staircase_training,emotion,,117.44966426699213,117.44966426699213,38.57472198903681,418.634274,27,27,female,True,4185,4190,False,False,expiration,expiration
69,138.0,25,M,up,0.5682825000003504,0.3148657807815301,,psi_staircase_training,emotion,,121.15520352095876,121.15520352095876,38.63978456570206,419.78420929999993,27,27,female,True,4197,4203,False,False,expiration,inspiration
70,94.0,25,M,down,0.6952661000000262,1.3995827370531064,,psi_staircase_training,emotion,,118.8697651396379,118.8697651396379,38.196785460126115,422.08422909999985,27,27,female,True,4220,4227,False,False,expiration,expiration
71,143.0,25,M,up,0.7094129000001885,1.8366029872765277,,psi_staircase_training,emotion,,120.65627646114108,120.65627646114108,37.58904370203593,424.98404750000014,27,27,female,True,4249,4256,False,False,expiration,expiration
72,91.0,25,M,down,0.7251277000000301,0.32024226008943685,,psi_staircase_training,emotion,,118.92304591369043,118.92304591369043,37.023310956993186,426.36734590000015,27,27,female,True,4263,4270,False,False,inspiration,expiration
73,145.0,25,F,up,0.5881254000000808,0.3145920724145319,,psi_staircase_training,emotion,,120.34619285044435,120.34619285044435,36.35600655358136,427.76728920000005,27,27,female,True,4277,4283,False,False,expiration,expiration
74,90.0,25,F,down,0.6786402000002454,1.9635073587622869,,psi_staircase_training,emotion,,118.91916353981226,118.91916353981226,35.710053933505705,430.6838352,27,27,female,True,4306,4313,False,False,expiration,trough
75,145.0,25,F,up,0.6357531999997263,0.3427767809766267,,psi_staircase_training,emotion,,120.11472282043013,120.11472282043013,34.99192238702236,432.0337528999999,27,27,female,True,4319,4325,False,False,inspiration,peak
76,89.0,25,M,down,0.7578080000002956,1.4824239220276894,,psi_staircase_training,emotion,,118.86445253785548,118.86445253785548,34.278835999547574,434.53366809999983,27,27,female,True,4344,4352,False,False,inspiration,expiration
77,145.0,25,M,up,0.5938636999999289,0.9606390130658092,,psi_staircase_training,emotion,,119.86355817186993,119.86355817186993,33.52138520667665,436.58361199999985,27,27,female,True,4365,4371,False,False,inspiration,inspiration
78,89.0,25,F,down,0.6055842000000666,1.7432561722786195,,psi_staircase_training,emotion,,118.76397685692068,118.76397685692068,32.75004462705045,439.26686569999987,27,27,female,True,4392,4398,False,False,expiration,inspiration
79,144.0,25,F,up,0.6306489999997211,1.1284804717731518,,psi_staircase_training,emotion,,119.62000870443418,119.62000870443418,31.961437484582692,441.36677730000014,27,27,female,True,4413,4419,False,False,expiration,expiration
80,141.0,25,M,up,0.6174766999997701,1.9446566417386464,,psi_staircase_training,emotion,,118.61451001192528,118.61451001192528,31.139386050678524,444.34994640000014,27,27,female,True,4443,4449,False,False,expiration,expiration
81,89.0,25,M,down,0.5964819000000716,0.6925300836101353,,psi_staircase_training,emotion,,117.62330500786976,117.62330500786976,30.316463217087595,445.99993709999984,27,27,female,True,4459,4465,False,False,inspiration,expiration
82,0.29,25,up,down,0.4858782000001156,1.3582258563520038,,psi_staircase,cRDM,,0.25,0.25693124029946324,0.10500000000000002,462.9325612000002,27,27,female,True,4628,4633,False,False,inspiration,peak
83,0.39,25,up,up,0.6106715999999324,1.690326735434354,,psi_staircase,cRDM,,0.3546095744690497,0.36161092129536426,0.10606203002656786,465.36575350000015,27,27,female,True,4653,4659,False,False,inspiration,expiration
84,0.38,25,down,down,0.5589927000000898,0.7906723277551313,,psi_staircase,cRDM,,0.33579878490349385,0.3429317268363466,0.10805553848818844,467.03241010000016,27,27,female,True,4669,4675,False,False,expiration,inspiration
85,0.35000000000000003,25,down,down,0.5164773999999852,1.7841825275990717,,psi_staircase,cRDM,,0.31782208253394256,0.3249720550198983,0.10831353099725742,469.64894480000015,27,27,female,True,4695,4700,False,False,expiration,expiration
86,0.34,25,up,down,0.4475951000003988,1.8628667037644928,,psi_staircase,cRDM,,0.29874613801952915,0.3059673319859477,0.10939245123743067,472.2988753,27,27,female,True,4722,4726,False,False,expiration,expiration
87,0.4,25,down,down,0.5266011000003346,0.8371853468094161,,psi_staircase,cRDM,,0.3638484016693293,0.3710090766335759,0.10847566074200593,473.84879779999983,27,27,female,True,4738,4743,False,False,inspiration,expiration
88,0.39,25,up,down,0.519006200000149,1.4265527949006997,,psi_staircase,cRDM,,0.3518018055539976,0.35884478557500343,0.10669272312819346,476.06541310000017,27,27,female,True,4760,4765,False,False,inspiration,peak
89,0.43,25,down,down,0.5410823000001983,0.3786727168326109,,psi_staircase,cRDM,,0.3977246561052595,0.4055717380011245,0.11887390473673695,477.2153546,27,27,female,True,4771,4776,False,False,expiration,expiration
90,0.43,25,down,down,0.6177185000001373,1.7100374607905302,,psi_staircase,cRDM,,0.3880539526633753,0.3959572397332583,0.11972534589544842,479.7319134,27,27,female,True,4796,4802,False,False,expiration,expiration
91,0.42,25,up,down,0.4492352000002029,1.5622041987244006,,psi_staircase,cRDM,,0.3792595091252382,0.3870948190588546,0.11869557358925108,482.16515939999994,27,27,female,True,4821,4825,False,False,expiration,expiration
92,0.45,25,down,up,0.6276333999999224,1.7969730840487217,,psi_staircase,cRDM,,0.41318195922454537,0.4214542872671577,0.12531587521811333,484.6817836,27,27,female,True,4846,4852,False,False,inspiration,peak
93,0.47,25,down,up,0.5223459999997431,0.5002539675035438,,psi_staircase,cRDM,,0.43801561108528375,0.4462096564494545,0.12412998627454185,486.06505439999995,27,27,female,True,4860,4865,False,False,expiration,expiration
94,0.46,25,down,up,0.6914734000001772,0.6700412964416135,,psi_staircase,cRDM,,0.4557633129201122,0.4634293101890165,0.11613068923570255,487.51496630000014,27,27,female,True,4874,4881,False,False,inspiration,expiration
95,0.52,25,up,up,0.5949375000000146,1.7688952177929822,,psi_staircase,cRDM,,0.4684307456693919,0.4747373986424221,0.09553824908067893,490.23154019999987,27,27,female,True,4901,4907,False,False,inspiration,inspiration
96,0.52,25,up,up,0.5836340999999265,1.0343922691008327,,psi_staircase,cRDM,,0.46866081844417296,0.4745398963726184,0.08906099858268743,492.11479809999986,27,27,female,True,4920,4926,False,False,expiration,inspiration
97,0.52,25,down,up,0.618393499999911,0.4817679592664828,,psi_staircase,cRDM,,0.4690181881240649,0.4744720262299505,0.08261912390518728,493.4480585000002,27,27,female,True,4933,4939,False,False,inspiration,expiration
98,0.52,25,down,up,0.7050290000001951,0.9024469300686392,,psi_staircase,cRDM,,0.4650611085862327,0.4740132066018722,0.13561357722872913,495.2313497999999,27,27,female,True,4951,4958,False,False,trough,inspiration
99,0.63,25,up,up,0.6692103999998835,0.7563957643348433,,psi_staircase,cRDM,,0.4687301903730215,0.4788814688527898,0.15377972690662867,496.96517959999983,27,27,female,True,4969,4976,False,False,expiration,expiration
100,0.63,25,up,up,0.6055299999998169,0.5436445568390242,,psi_staircase,cRDM,,0.46837823904009296,0.4784128958448208,0.15201304802230028,498.4478758999999,27,27,female,True,4983,4989,False,False,inspiration,inspiration
101,0.63,25,up,up,0.4485531999998784,0.3740720900098218,,psi_staircase,cRDM,,0.4680361989004544,0.4779540957116201,0.1502442737778175,499.69784299999986,27,27,female,True,4996,5000,False,False,expiration,expiration
102,0.63,25,up,up,0.5847202999998444,1.4466546529234832,,psi_staircase,cRDM,,0.467704284710169,0.4775055394817122,0.14847728639443158,501.84775059999987,27,27,female,True,5017,5023,False,False,peak,expiration
103,0.62,25,down,up,0.5107016000001751,0.5679784937457656,,psi_staircase,cRDM,,0.4673826414453719,0.4770676208311291,0.14671585337811086,503.24769329999987,27,27,female,True,5031,5036,False,False,expiration,inspiration
104,0.65,25,down,up,0.5591239000000314,0.984022706953078,,psi_staircase,cRDM,,0.4708401658328476,0.4816691280397288,0.1640458247870271,505.0143189,27,27,female,True,5049,5055,False,False,expiration,expiration
105,0.65,25,down,up,0.6028904999998304,1.805004120283032,,psi_staircase,cRDM,,0.4737226742662586,0.485567509788281,0.17943509041356834,507.6475154999998,27,27,female,True,5075,5081,False,False,peak,expiration
106,0.65,25,up,up,0.5582869999998366,1.451701350296578,,psi_staircase,cRDM,,0.4767275356918464,0.4892210695612629,0.1892620944609763,509.96409440000025,27,27,female,True,5099,5105,False,False,inspiration,expiration
107,0.65,25,up,up,0.5133519999999407,0.82760250420318,,psi_staircase,cRDM,,0.476376625043659,0.4888259286763642,0.18859205927909892,511.61407180000015,27,27,female,True,5115,5120,False,False,expiration,inspiration
108,0.65,25,down,up,0.8771302999998625,1.2073235076221296,,psi_staircase,cRDM,,0.4760254588329866,0.4884283365326868,0.1878887619246681,513.5972876000002,27,27,female,True,5135,5144,False,False,expiration,expiration
109,0.65,25,down,up,0.4995324999999866,1.6253970672214435,,psi_staircase,cRDM,,0.4789095110759798,0.4917123709169718,0.19394801294196384,516.3638722000002,27,27,female,True,5163,5168,False,False,expiration,expiration
110,0.64,25,up,up,0.4325902000000497,0.9403864323700326,,psi_staircase,cRDM,,0.4815000776032917,0.4945092016723188,0.1970726692816608,518.0638196000001,27,27,female,True,5180,5184,False,False,inspiration,inspiration
111,0.64,25,up,up,0.5475532999998904,0.6529653112108313,,psi_staircase,cRDM,,0.4811828465517482,0.4941781439359516,0.19686321154483985,519.4137824,27,27,female,True,5193,5198,False,False,expiration,expiration
112,0.64,25,down,up,0.5297190999999657,0.4915417266175314,,psi_staircase,cRDM,,0.4808605663988344,0.4938411244620253,0.1966399284613739,520.7137191000002,27,27,female,True,5206,5211,False,False,inspiration,inspiration
113,0.63,25,up,down,0.4841543000002275,1.3774074756725498,,psi_staircase,cRDM,,0.4831639535919498,0.4962550367447969,0.1983142513693248,522.8802752000001,27,27,female,True,5228,5233,False,False,expiration,expiration
114,0.61,25,down,down,0.5978847999999743,1.598428179261126,,psi_staircase,cRDM,,0.4850979001832138,0.4982417726575542,0.19911394644802888,525.2135627000001,27,27,female,True,5251,5257,False,False,expiration,expiration
115,0.61,25,up,down,0.5978900999998586,0.7381455037762034,,psi_staircase,cRDM,,0.4848145136882037,0.4979540959953461,0.19904895554649693,526.8134906999999,27,27,female,True,5267,5273,False,False,inspiration,inspiration
116,0.6,25,down,down,0.4702819999997701,1.4094713585734382,,psi_staircase,cRDM,,0.4864449925841418,0.4996104009501241,0.199440189447072,529.0800813999998,27,27,female,True,5290,5295,False,False,expiration,inspiration
117,0.6,25,up,down,0.5000008999995771,0.654771720847251,,psi_staircase,cRDM,,0.4861845651638781,0.4993473237387911,0.1994000482818202,530.4633824000001,27,27,female,True,5304,5309,False,False,expiration,expiration
118,0.58,25,down,down,0.40026750000015454,1.0047297797385493,,psi_staircase,cRDM,,0.4875829074318164,0.5007605216440536,0.19962509341827986,532.2299432,27,27,female,True,5321,5325,False,False,inspiration,inspiration
119,0.58,25,up,down,0.4169530000003761,1.0247308721550816,,psi_staircase,cRDM,,0.4873329806577754,0.5005089976036949,0.19960089674407636,533.9298666999998,27,27,female,True,5338,5342,False,False,expiration,expiration
120,0.58,25,up,down,0.582528800000091,1.2724628233940545,,psi_staircase,cRDM,,0.4885187323833455,0.5017025968281665,0.19971977696595056,535.8798379999998,27,27,female,True,5358,5364,False,False,peak,expiration
121,0.5700000000000001,25,down,down,0.6059600999997201,0.3659258843394909,,psi_staircase,cRDM,,0.48954682666490795,0.5027361897125675,0.19980307422200974,537.0964371999999,27,27,female,True,5370,5376,False,False,expiration,inspiration
122,0.5700000000000001,25,down,down,0.5073484999998072,1.048163391672687,,psi_staircase,cRDM,,0.4893428563402128,0.5025314446469669,0.1997913378239699,539.0130416000002,27,27,female,True,5389,5394,False,False,expiration,expiration
123,0.5700000000000001,25,down,down,0.5004594000001816,1.934555941747992,,psi_staircase,cRDM,,0.48913375682355603,0.5023215257380664,0.19977892501156294,541.7129088000002,27,27,female,True,5416,5421,False,False,expiration,expiration
124,0.5700000000000001,25,up,down,0.5534894999996139,0.7427393814843918,,psi_staircase,cRDM,,0.4889193755090359,0.5021062779454426,0.1997657989046975,543.2128806999998,27,27,female,True,5431,5437,False,False,inspiration,inspiration
125,0.5700000000000001,25,up,down,0.454934399999729,0.9149263016192012,,psi_staircase,cRDM,,0.4898700589825583,0.5030609234671827,0.19982581919614306,544.9294561000002,27,27,female,True,5448,5453,False,False,expiration,expiration
126,0.5700000000000001,25,down,down,0.5986144999997123,1.6621988728050745,,psi_staircase,cRDM,,0.4907060207193568,0.5038998294257516,0.1998704206343468,547.3126965000001,27,27,female,True,5472,5478,False,False,expiration,expiration
127,0.5700000000000001,25,down,down,0.6116921999996521,0.5937581706136396,,psi_staircase,cRDM,,0.4905331864928043,0.5037264836717109,0.19986267160474394,548.7626958000002,27,27,female,True,5487,5493,False,False,trough,inspiration
128,0.5700000000000001,25,down,down,0.3838000000000648,0.3794863627248629,,psi_staircase,cRDM,,0.4903562423946779,0.5035489983724047,0.1998544730542084,550.0126279000001,27,27,female,True,5499,5503,False,False,peak,expiration
129,0.5700000000000001,25,up,down,0.4375825000001896,0.8636068396181327,,psi_staircase,cRDM,,0.4901750717472682,0.5033672552104935,0.19984580014430145,551.5458320000001,27,27,female,True,5515,5519,False,False,inspiration,inspiration
130,0.56,25,up,down,0.6155675999998493,1.6509169193275408,,psi_staircase,cRDM,,0.4909716080799004,0.5041663915327861,0.19988518687777734,553.8958149999999,27,27,female,True,5538,5544,False,False,expiration,expiration
131,0.56,25,up,down,0.7096590999999535,0.9162222259862168,,psi_staircase,cRDM,,0.4916621258622629,0.5048585376699819,0.19990985450580895,555.6957407999998,27,27,female,True,5556,5563,False,False,peak,expiration
132,100.0,25,M,down,0.6117062000002988,0.4255609168395116,,psi_staircase,emotion,,100.0,100.0,25.00050000000001,561.1289642999999,27,27,female,True,5610,5616,False,False,expiration,inspiration
133,145.0,25,M,up,0.4172784000002139,0.6311354255052972,,psi_staircase,emotion,,145.25719053245996,145.25719053245996,25.000500000000283,562.7288474000002,27,27,female,True,5626,5630,False,False,expiration,expiration
134,121.0,25,F,up,0.6095617000000857,0.7230418494242548,,psi_staircase,emotion,,120.36392901436103,120.36392901436103,25.71326925488699,564.2288146999998,27,27,female,True,5641,5647,False,False,inspiration,peak
135,97.0,25,F,down,0.8466521000000284,0.822705548902231,,psi_staircase,emotion,,102.38876106084959,102.38876106084959,26.14633372628729,566.0287243000002,27,27,female,True,5659,5667,False,False,expiration,inspiration
136,113.0,25,M,down,0.4307358999999451,1.6472682800784124,,psi_staircase,emotion,,114.01123255420406,114.01123255420406,23.003056417783352,568.9119891,27,27,female,True,5688,5692,False,False,expiration,inspiration
137,127.0,25,F,up,0.42250170000033904,1.509072737833859,,psi_staircase,emotion,,123.15505271238727,123.15505271238727,23.86267166612523,571.2118801000001,27,27,female,True,5711,5715,False,False,expiration,expiration
138,117.0,25,M,down,0.8125605000000178,1.0710160398924269,,psi_staircase,emotion,,116.72664759921038,116.72664759921038,20.612160618334435,573.1118452999998,27,27,female,True,5730,5738,False,False,expiration,expiration
139,128.0,25,F,up,0.4919526999997288,1.1543890872740237,,psi_staircase,emotion,,122.2309869143983,122.2309869143983,20.83216394857295,575.4283960000002,27,27,female,True,5753,5758,False,False,inspiration,expiration
140,113.0,25,F,down,0.7386901999998372,1.6598720614743512,,psi_staircase,emotion,,118.62736425730574,118.62736425730574,17.52430219955878,577.9116505000002,27,27,female,True,5778,5785,False,False,inspiration,expiration
141,124.0,25,M,up,0.468821299999945,0.30981522094288483,,psi_staircase,emotion,,120.91210012930685,120.91210012930685,14.786658830345466,579.3615441000002,27,27,female,True,5793,5798,False,False,expiration,expiration
142,119.0,25,F,up,0.44089850000000297,1.2591674713120646,,psi_staircase,emotion,,118.71347309422407,118.71347309422407,11.783902417745555,581.4614455999998,27,27,female,True,5814,5818,False,False,expiration,expiration
143,114.0,25,F,up,0.4942295000000741,0.6456072452969649,,psi_staircase,emotion,,116.57491965363633,116.57491965363633,11.796055383081258,582.9281400999997,27,27,female,True,5828,5833,False,False,inspiration,inspiration
144,103.0,25,F,up,0.5312610000000859,0.5780271747464214,,psi_staircase,emotion,,112.88202270198977,112.88202270198977,18.580549075630355,584.3780984999999,27,27,female,True,5843,5848,False,False,expiration,expiration
145,90.0,25,M,down,0.6436876000002485,1.1836958525515378,,psi_staircase,emotion,,107.06439997846148,107.06439997846148,27.488708962908174,586.4446324,27,27,female,True,5863,5869,False,False,inspiration,expiration
146,91.0,25,M,down,0.7036662000000433,1.9269190504457605,,psi_staircase,emotion,,109.31074678159557,109.31074678159557,25.315137457822114,589.361668,27,27,female,True,5893,5900,False,False,expiration,expiration
147,93.0,25,F,down,0.6139198000000761,1.391984118575032,,psi_staircase,emotion,,110.93964231794676,110.93964231794676,23.358471466995226,591.8444364000002,27,27,female,True,5918,5924,False,False,inspiration,expiration
148,94.0,25,F,down,0.6183347000001049,1.9062211908385056,,psi_staircase,emotion,,112.1735196657551,112.1735196657551,21.59013890673483,594.7110213999998,27,27,female,True,5946,5952,False,False,inspiration,expiration
149,130.0,25,M,down,0.8339553999999225,1.3738285846181335,,psi_staircase,emotion,,113.08397838247515,113.08397838247515,20.02533162273428,597.0613938000001,27,27,female,True,5970,5978,False,False,inspiration,inspiration
150,140.0,25,M,up,0.6052277999997386,1.4029481273064883,,psi_staircase,emotion,,117.00018031134924,117.00018031134924,27.081372247971547,599.6441479999999,27,27,female,True,5995,6001,False,False,expiration,inspiration
151,139.0,25,M,up,0.8598500999996759,1.4308574589534917,,psi_staircase,emotion,,115.85840766012676,115.85840766012676,25.62744826935908,602.0774455000002,27,27,female,True,6020,6029,False,False,expiration,inspiration
152,92.0,25,M,down,0.7627290000000357,1.554110239991169,,psi_staircase,emotion,,114.95254995509322,114.95254995509322,24.293430304254127,604.8606008000003,27,27,female,True,6048,6056,False,False,expiration,expiration
153,137.0,25,F,up,0.5901604999999108,1.3470194432654834,,psi_staircase,emotion,,115.68590193891431,115.68590193891431,23.070035977546574,607.3271705000002,27,27,female,True,6072,6078,False,False,expiration,expiration
154,94.0,25,F,down,0.6738891999998486,1.0849769775880715,,psi_staircase,emotion,,114.93238022153166,114.93238022153166,21.82450298935604,609.3604693000002,27,27,female,True,6093,6100,False,False,inspiration,inspiration
155,136.0,25,F,up,0.6022723999999471,1.2317593545732706,,psi_staircase,emotion,,115.55173790471098,115.55173790471098,20.701443359553995,611.6270288000002,27,27,female,True,6115,6121,False,False,expiration,trough
156,96.0,25,M,down,0.6280288000002656,1.8964521373090488,,psi_staircase,emotion,,114.9457957234597,114.9457957234597,19.60735091090999,614.5102757,27,27,female,True,6144,6150,False,False,expiration,expiration
157,134.0,25,M,up,0.6212064000001192,0.9917062413709464,,psi_staircase,emotion,,115.48153846791945,115.48153846791945,18.619325156301578,616.5101774999998,27,27,female,True,6164,6170,False,False,expiration,expiration
158,98.0,25,F,down,0.5961578000001282,1.2263943662625567,,psi_staircase,emotion,,114.9581263869242,114.9581263869242,17.674361993536035,618.7101444,27,27,female,True,6186,6192,False,False,inspiration,expiration
159,132.0,25,F,up,0.4779656000000614,1.318216047723914,,psi_staircase,emotion,,115.43764439047173,115.43764439047173,16.8285326232022,620.9933710999999,27,27,female,True,6209,6214,False,False,inspiration,inspiration
160,100.0,25,M,down,0.5356811999999991,1.200511680902347,,psi_staircase,emotion,,114.96950984049734,114.96950984049734,16.027829577937837,623.0266283999998,27,27,female,True,6229,6234,False,False,expiration,inspiration
161,130.0,25,M,up,0.5941048999998202,0.3212485150150404,,psi_staircase,emotion,,115.41607154877667,115.41607154877667,15.312873281382464,624.2432230000001,27,27,female,True,6241,6247,False,False,inspiration,expiration
162,102.0,25,F,down,0.8687859000001481,0.4991889106846147,,psi_staircase,emotion,,114.98010727150101,114.98010727150101,14.63722477478019,625.7265280000001,27,27,female,True,6256,6265,False,False,expiration,inspiration
163,128.0,25,M,up,0.7752255000000332,0.6905355664301582,,psi_staircase,emotion,,115.41302986861,115.41302986861,14.03223334807733,627.6430884000001,27,27,female,True,6275,6283,False,False,expiration,expiration
164,104.0,25,F,down,0.6341075000000274,1.7540668627491225,,psi_staircase,emotion,,114.99017722573612,114.99017722573612,13.45689014329497,630.5262831,27,27,female,True,6304,6310,False,False,expiration,expiration
165,126.0,25,M,up,0.6217554999998356,1.9467636758702336,,psi_staircase,emotion,,115.42541705782287,115.42541705782287,12.938593700914085,633.4595502999999,27,27,female,True,6334,6340,False,False,expiration,expiration
166,105.0,25,F,down,0.6242111999999906,0.4397096868773697,,psi_staircase,emotion,,115.0001441213122,115.0001441213122,12.439149508258495,634.8761835,27,27,female,True,6348,6354,False,False,inspiration,peak
167,124.0,25,M,up,0.548915500000021,0.7775099443014308,,psi_staircase,emotion,,115.4099803038551,115.4099803038551,11.984206481049444,636.6094053000003,27,27,female,True,6365,6370,False,False,expiration,inspiration
168,107.0,25,F,up,0.7885670000000573,0.5529159747353469,,psi_staircase,emotion,,114.96976944014273,114.96976944014273,11.540984961913693,638.0927605000003,27,27,female,True,6380,6388,False,False,expiration,expiration
169,125.0,25,M,up,0.6980417999998281,1.386394799667025,,psi_staircase,emotion,,113.6049823947986,113.6049823947986,12.830492134980268,640.6092878,27,27,female,True,6405,6412,False,False,peak,expiration
170,124.0,25,M,up,0.52317260000018,1.2786839967941006,,psi_staircase,emotion,,113.27012843598318,113.27012843598318,12.406268777940467,642.9092070000003,27,27,female,True,6428,6433,False,False,inspiration,inspiration
171,101.0,25,F,down,0.696798200000103,0.8673214936059069,,psi_staircase,emotion,,112.94578522810605,112.94578522810605,12.017537374062794,644.6924623999997,27,27,female,True,6446,6453,False,False,expiration,inspiration
172,123.0,25,F,down,0.9369938999998342,1.7790079220898924,,psi_staircase,emotion,,113.21943167149836,113.21943167149836,11.643964806581366,647.5423003999998,27,27,female,True,6475,6484,False,False,expiration,inspiration
173,101.0,25,F,down,0.8766617999999653,0.8499857593011257,,psi_staircase,emotion,,114.48724705066064,114.48724705066064,13.021452932883715,649.6756146000002,27,27,female,True,6496,6505,False,False,expiration,expiration
174,102.0,25,M,up,0.7408080000000155,1.9608809591353136,,psi_staircase,emotion,,114.7334709942925,114.7334709942925,12.65610405875064,652.8755077000002,27,27,female,True,6528,6535,False,False,expiration,trough
175,129.0,25,M,up,0.5535350000000108,1.0672160052725512,,psi_staircase,emotion,,113.49666988802515,113.49666988802515,14.379036969261428,655.0587788000003,27,27,female,True,6550,6556,False,False,expiration,expiration
176,98.0,25,F,down,0.5795980000002601,1.2090578974662336,,psi_staircase,emotion,,113.280124193953,113.280124193953,13.99701178522908,657.1587087000003,27,27,female,True,6571,6577,False,False,inspiration,inspiration
177,128.0,25,F,down,0.8037353999998231,1.3693231877571623,,psi_staircase,emotion,,113.49488850291849,113.49488850291849,13.634837091820035,659.4585780000002,27,27,female,True,6594,6602,False,False,expiration,expiration
178,97.0,25,F,down,1.1511215999998967,0.9484280593524936,,psi_staircase,emotion,,114.6996569317587,114.6996569317587,15.514211206453304,661.5751868000002,27,27,female,True,6615,6627,False,False,expiration,expiration
179,132.0,25,M,up,0.9492291000001388,0.8970110708371297,,psi_staircase,emotion,,114.8919601754709,114.8919601754709,15.129230868458798,663.9750699000001,27,27,female,True,6639,6648,False,False,inspiration,expiration
180,98.0,25,M,down,0.6006187000002683,0.6394441272181213,,psi_staircase,emotion,,114.69632149665482,114.69632149665482,14.766819611372512,665.8916800000002,27,27,female,True,6658,6664,False,False,expiration,trough
181,131.0,25,M,up,0.6398029999995742,0.8332568750936418,,psi_staircase,emotion,,114.88127088318669,114.88127088318669,14.43718609050023,667.6915437000002,27,27,female,True,6676,6682,False,False,expiration,expiration
182,0.4922798829994618,25,down,down,0.5947046000001137,1.2124057094121103,,experiment,cRDM,0.0,,,,675.3245763999997,27,27,female,True,6752,6758,False,False,expiration,inspiration
183,0.4922798829994618,25,up,up,0.4340861999999106,0.6590813392174466,,experiment,cRDM,0.0,,,,676.8411867999997,27,27,female,True,6768,6772,False,False,expiration,expiration
184,0.4922798829994618,25,down,down,0.5852110999999239,1.1548517430205505,,experiment,cRDM,0.0,,,,678.6911365999998,27,27,female,True,6786,6792,False,False,inspiration,expiration
185,0.4922798829994618,25,up,up,0.5459470000000692,1.738568731103976,,experiment,cRDM,0.0,,,,681.2743430999999,27,27,female,True,6812,6817,False,False,inspiration,inspiration
186,0.4922798829994618,25,down,down,0.6200438999999278,0.5417115882472118,,experiment,cRDM,0.0,,,,682.6242846,27,27,female,True,6825,6831,False,False,expiration,expiration
187,0.4922798829994618,25,down,up,0.4170497000000069,0.4597455176954277,,experiment,cRDM,0.0,,,,683.9742476000001,27,27,female,True,6839,6843,False,False,inspiration,inspiration
188,0.4922798829994618,25,up,down,0.5314464000002772,1.88582127501498,,experiment,cRDM,0.0,,,,686.5408372000003,27,27,female,True,6865,6870,False,False,inspiration,inspiration
189,0.4922798829994618,25,down,down,0.8522130999999717,1.300779861149102,,experiment,cRDM,0.0,,,,688.6240544000003,27,27,female,True,6885,6894,False,False,expiration,inspiration
190,0.4922798829994618,25,up,up,0.5782902000000831,0.6727196400642221,,experiment,cRDM,0.0,,,,690.4239874999997,27,27,female,True,6903,6909,False,False,expiration,expiration
191,0.4922798829994618,25,up,up,0.7586917999997241,1.3097882309603912,,experiment,cRDM,0.0,,,,692.5739275000002,27,27,female,True,6925,6933,False,False,expiration,expiration
192,0.4922798829994618,25,down,down,0.5294500999998489,1.036798854444232,,experiment,cRDM,0.0,,,,694.6238364999998,27,27,female,True,6945,6950,False,False,inspiration,peak
193,0.4922798829994618,25,up,up,0.586833000000297,1.5264918721709992,,experiment,cRDM,0.0,,,,696.9404260000001,27,27,female,True,6969,6975,False,False,inspiration,expiration
194,0.4922798829994618,25,up,down,0.43258289999994304,0.7161616195281866,,experiment,cRDM,0.0,,,,698.5237075999999,27,27,female,True,6984,6988,False,False,expiration,expiration
195,0.4922798829994618,25,up,up,0.6386388999999326,1.1082353743825228,,experiment,cRDM,0.0,,,,700.3236215000003,27,27,female,True,7002,7008,False,False,peak,expiration
196,0.4922798829994618,25,down,down,0.40045229999986987,1.2455155655781118,,experiment,cRDM,0.0,,,,702.4569476000001,27,27,female,True,7024,7028,False,False,inspiration,inspiration
197,0.4922798829994618,25,down,down,0.6590762999999242,0.8523155820381001,,experiment,cRDM,0.0,,,,703.9901783999999,27,27,female,True,7039,7046,False,False,expiration,inspiration
198,0.4922798829994618,25,up,up,0.4901933000001009,1.5781007640416105,,experiment,cRDM,0.0,,,,706.4900619,27,27,female,True,7064,7069,False,False,expiration,expiration
199,0.4922798829994618,25,up,up,0.6685403999999835,1.6152578100911081,,experiment,cRDM,0.0,,,,708.8566918000001,27,27,female,True,7088,7095,False,False,expiration,expiration
200,0.4922798829994618,25,down,down,0.4547788999998375,1.0669255949312173,,experiment,cRDM,0.0,,,,710.8404759999999,27,27,female,True,7108,7113,False,False,inspiration,expiration
201,0.4922798829994618,25,down,up,0.6430497999999716,1.0518995771157365,,experiment,cRDM,0.0,,,,712.6231779999997,27,27,female,True,7125,7131,False,False,expiration,inspiration
202,0.4922798829994618,25,up,down,0.6011721999998372,0.5543751995585573,,experiment,cRDM,0.0,,,,714.0731461,27,27,female,True,7140,7146,False,False,expiration,expiration
203,0.4922798829994618,25,down,down,0.6962234000002354,0.3314444877831029,,experiment,cRDM,0.0,,,,715.2730884000003,27,27,female,True,7152,7159,False,False,expiration,inspiration
204,0.4922798829994618,25,up,up,0.8896291000000929,1.916360237040239,,experiment,cRDM,0.0,,,,718.1396285999998,27,27,female,True,7181,7190,False,False,expiration,inspiration
205,0.4922798829994618,25,down,down,0.5504364999997051,1.7131036227880434,,experiment,cRDM,0.0,,,,721.0228499,27,27,female,True,7209,7215,False,False,inspiration,inspiration
206,0.4922798829994618,25,down,down,0.5478665000000547,1.29932938359451,,experiment,cRDM,0.0,,,,723.1394350999999,27,27,female,True,7231,7236,False,False,expiration,inspiration
207,0.4922798829994618,25,up,down,0.4961882999996306,1.3581823356721037,,experiment,cRDM,0.0,,,,725.3060466000003,27,27,female,True,7252,7257,False,False,expiration,expiration
208,0.4922798829994618,25,up,down,0.5468947999997908,0.6272717030721231,,experiment,cRDM,0.0,,,,726.6893390999999,27,27,female,True,7266,7271,False,False,inspiration,inspiration
209,0.4922798829994618,25,down,down,0.531977999999981,1.8519292215291692,,experiment,cRDM,0.0,,,,729.3392032000003,27,27,female,True,7293,7298,False,False,inspiration,inspiration
210,0.4922798829994618,25,up,down,0.5520859999996901,1.0516490160784293,,experiment,cRDM,0.0,,,,731.1891518000003,27,27,female,True,7311,7317,False,False,expiration,inspiration
211,0.4922798829994618,25,down,down,0.6171346999999514,0.7864274332583778,,experiment,cRDM,0.0,,,,732.7890818000002,27,27,female,True,7327,7333,False,False,expiration,expiration
212,0.4922798829994618,25,up,down,0.5018872000000556,1.2073509633372146,,experiment,cRDM,0.0,,,,734.8723611999999,27,27,female,True,7348,7353,False,False,inspiration,inspiration
213,0.4922798829994618,25,down,down,0.36716230000001815,1.0837523869685788,,experiment,cRDM,0.0,,,,736.7222857999999,27,27,female,True,7366,7370,False,False,expiration,expiration
214,0.4922798829994618,25,up,down,0.5384199000000081,1.9272282087179735,,experiment,cRDM,0.0,,,,739.3388288000001,27,27,female,True,7393,7398,False,False,expiration,expiration
215,0.4922798829994618,25,down,down,0.3671754000001784,1.800198796767375,,experiment,cRDM,0.0,,,,741.9387256999997,27,27,female,True,7419,7423,False,False,expiration,expiration
216,0.4922798829994618,25,up,down,0.4312267999998767,0.8425463611170307,,experiment,cRDM,0.0,,,,743.4720440000001,27,27,female,True,7434,7438,False,False,inspiration,inspiration
217,0.4922798829994618,25,down,down,0.3838988999996218,1.0913992719155603,,experiment,cRDM,0.0,,,,745.2552845999999,27,27,female,True,7452,7456,False,False,expiration,inspiration
218,0.4922798829994618,25,up,down,0.3997329999997419,1.5095725652411194,,experiment,cRDM,0.0,,,,747.4390846000001,27,27,female,True,7474,7478,False,False,expiration,expiration
219,0.4922798829994618,25,down,down,0.3671578000003137,0.7001719108453205,,experiment,cRDM,0.0,,,,748.8217951000001,27,27,female,True,7487,7491,False,False,inspiration,inspiration
220,0.4922798829994618,25,up,down,0.5062394999999924,1.81709556923944,,experiment,cRDM,0.0,,,,751.3050420999997,27,27,female,True,7512,7517,False,False,trough,inspiration
221,0.4922798829994618,25,down,down,0.41697649999969133,1.2278267371116884,,experiment,cRDM,0.0,,,,753.3216332000003,27,27,female,True,7532,7536,False,False,expiration,expiration
222,0.4922798829994618,25,down,down,0.4589757999997346,0.603978689564811,,experiment,cRDM,0.0,,,,754.588291,27,27,female,True,7545,7550,False,False,inspiration,inspiration
223,0.4922798829994618,25,up,down,0.35050079999973605,0.9162503527890484,,experiment,cRDM,0.0,,,,756.2381836,27,27,female,True,7562,7566,False,False,expiration,expiration
224,0.4922798829994618,25,down,down,0.4853858999999829,1.4876476748730167,,experiment,cRDM,0.0,,,,758.4048164999998,27,27,female,True,7583,7588,False,False,expiration,expiration
225,0.4922798829994618,25,up,down,0.4947950000000674,0.4129165020772159,,experiment,cRDM,0.0,,,,759.5714201999998,27,27,female,True,7595,7600,False,False,expiration,inspiration
226,0.4922798829994618,25,up,down,0.6218729999995958,1.1327528944290604,,experiment,cRDM,0.0,,,,761.4713572999998,27,27,female,True,7614,7620,False,False,expiration,expiration
227,0.4922798829994618,25,down,down,0.5750444999998763,0.6837908714309124,,experiment,cRDM,0.0,,,,763.0213124000003,27,27,female,True,7629,7635,False,False,inspiration,inspiration
228,0.4922798829994618,25,down,down,0.6326318999999785,1.4911148747933822,,experiment,cRDM,0.0,,,,765.3545761999999,27,27,female,True,7653,7659,False,False,expiration,inspiration
229,0.4922798829994618,25,up,down,0.5934297999997398,0.7852800673252058,,experiment,cRDM,0.0,,,,767.0377914999998,27,27,female,True,7670,7676,False,False,expiration,expiration
230,0.4922798829994618,25,down,down,0.5991865000000871,0.5325824745340422,,experiment,cRDM,0.0,,,,768.4210902000001,27,27,female,True,7683,7689,False,False,expiration,inspiration
231,0.4922798829994618,25,up,down,0.6554744000000028,0.8406523243204402,,experiment,cRDM,0.0,,,,770.1376949999999,27,27,female,True,7701,7708,False,False,expiration,expiration
232,0.4922798829994618,25,up,down,0.6209263000000647,1.5801368346858642,,experiment,cRDM,0.0,,,,772.6543044999999,27,27,female,True,7726,7732,False,False,inspiration,expiration
233,0.4922798829994618,25,up,down,0.6370480999999018,0.563440387496704,,experiment,cRDM,0.0,,,,774.104202,27,27,female,True,7740,7746,False,False,expiration,expiration
234,0.4922798829994618,25,up,up,1.0054271999997582,0.4288098815638349,,experiment,cRDM,0.0,,,,775.4207968999998,27,27,female,True,7753,7763,False,False,inspiration,expiration
235,0.4922798829994618,25,up,up,0.5841762000000017,0.7210793848635693,,experiment,cRDM,0.0,,,,777.4040758000001,27,27,female,True,7773,7779,False,False,expiration,inspiration
236,0.4922798829994618,25,down,up,0.6354849999997896,1.8313288865511088,,experiment,cRDM,0.0,,,,780.0707138000002,27,27,female,True,7800,7806,False,False,expiration,trough
237,0.4922798829994618,25,down,down,0.6849924000002829,1.4641198729037217,,experiment,cRDM,0.0,,,,782.4371897000002,27,27,female,True,7824,7831,False,False,expiration,expiration
238,0.4922798829994618,25,down,down,0.5323539999999412,0.6335854510442404,,experiment,cRDM,0.0,,,,784.003835,27,27,female,True,7839,7844,False,False,inspiration,inspiration
239,0.4922798829994618,25,up,down,0.5244477000001098,0.8572512052740786,,experiment,cRDM,0.0,,,,785.6538046000002,27,27,female,True,7856,7861,False,False,expiration,expiration
240,0.4922798829994618,25,down,up,0.725181799999973,1.1448006112788207,,experiment,cRDM,0.0,,,,787.5870346000003,27,27,female,True,7875,7882,False,False,peak,expiration
241,0.4922798829994618,25,down,down,0.6246050000004288,1.4724772329344018,,experiment,cRDM,0.0,,,,790.0536489000001,27,27,female,True,7900,7906,False,False,inspiration,peak
242,0.4922798829994618,25,down,down,0.8456289000000652,0.6117906737976526,,experiment,cRDM,0.0,,,,791.5535650000003,27,27,female,True,7915,7923,False,False,expiration,expiration
243,0.4922798829994618,25,up,up,0.4470578000000387,1.3233027200715146,,experiment,cRDM,0.0,,,,793.9701576000003,27,27,female,True,7939,7943,False,False,expiration,expiration
244,0.4922798829994618,25,down,down,0.6410547000000406,0.3083914715416837,,experiment,cRDM,0.0,,,,794.9701289999997,27,27,female,True,7949,7955,False,False,expiration,inspiration
245,0.4922798829994618,25,up,up,0.6261196999998901,0.5991779788839671,,experiment,cRDM,0.0,,,,796.4700693999997,27,27,female,True,7964,7970,False,False,peak,expiration
246,0.4922798829994618,25,up,down,0.5932245999997576,1.619553987928536,,experiment,cRDM,0.0,,,,798.96999,27,27,female,True,7989,7995,False,False,inspiration,expiration
247,0.4922798829994618,25,down,up,0.5673068000000967,1.0572228297867177,,experiment,cRDM,0.0,,,,800.8699108999998,27,27,female,True,8008,8014,False,False,inspiration,inspiration
248,0.4922798829994618,25,up,down,0.5594207999997707,1.755107872514592,,experiment,cRDM,0.0,,,,803.4697801000003,27,27,female,True,8034,8040,False,False,expiration,inspiration
249,0.4922798829994618,25,down,down,0.5401214000003165,1.3560361701684842,,experiment,cRDM,0.0,,,,805.6530561000001,27,27,female,True,8056,8061,False,False,inspiration,inspiration
250,0.4922798829994618,25,up,up,0.7465937000001759,1.5645929378939119,,experiment,cRDM,0.0,,,,808.0196085000003,27,27,female,True,8079,8086,False,False,expiration,expiration
251,0.4922798829994618,25,down,down,0.6510376000001088,1.9026716628799076,,experiment,cRDM,0.0,,,,810.9361432000002,27,27,female,True,8109,8116,False,False,expiration,expiration
252,0.4922798829994618,25,up,up,0.7301560999999308,0.9448132312907316,,experiment,cRDM,0.0,,,,812.7860937999999,27,27,female,True,8127,8134,False,False,inspiration,inspiration
253,0.4922798829994618,25,down,down,0.6031782999998541,1.046586828783079,,experiment,cRDM,0.0,,,,814.8359937999999,27,27,female,True,8148,8154,False,False,inspiration,expiration
254,0.4922798829994618,25,down,down,0.8548055000001114,0.3622103708046855,,experiment,cRDM,0.0,,,,816.0693633000002,27,27,female,True,8160,8169,False,False,expiration,expiration
255,0.4922798829994618,25,down,down,0.7293069999996078,1.8967608937730127,,experiment,cRDM,0.0,,,,819.0858825,27,27,female,True,8190,8197,False,False,expiration,expiration
256,0.4922798829994618,25,down,down,0.9410198000000491,0.6955361502552653,,experiment,cRDM,0.0,,,,820.7691539000003,27,27,female,True,8207,8216,False,False,expiration,inspiration
257,0.4922798829994618,25,down,down,0.5131944999998268,1.6363801443222252,,experiment,cRDM,0.0,,,,823.6189955999997,27,27,female,True,8235,8240,False,False,expiration,expiration
258,0.4922798829994618,25,up,down,0.5281708000002254,1.1893075117290175,,experiment,cRDM,0.0,,,,825.5689817000003,27,27,female,True,8255,8260,False,False,expiration,expiration
259,0.4922798829994618,25,up,up,0.6916086000001087,0.5362959940778036,,experiment,cRDM,0.0,,,,826.8855474999999,27,27,female,True,8268,8275,False,False,expiration,expiration
260,0.4922798829994618,25,up,down,0.7709712999999283,0.4117163815304139,,experiment,cRDM,0.0,,,,828.2521882000002,27,27,female,True,8282,8290,False,False,inspiration,expiration
261,0.4922798829994618,25,up,up,0.4249487000001864,1.0695509640188112,,experiment,cRDM,0.0,,,,830.3521630999999,27,27,female,True,8303,8307,False,False,expiration,expiration
262,120.0,25,M,down,0.8952945000000909,1.9428571978576783,,experiment,emotion,0.0,,,,838.3018864000002,27,27,female,True,8382,8391,False,False,expiration,inspiration
263,109.0,25,M,down,0.8400166000001263,0.5972131209176225,,experiment,emotion,0.0,,,,840.0851197999999,27,27,female,True,8400,8408,False,False,inspiration,expiration
264,116.0,25,F,up,0.7650796000002629,0.4892939938360555,,experiment,emotion,0.0,,,,841.7350589000004,27,27,female,True,8417,8425,False,False,expiration,inspiration
265,120.0,25,F,up,0.7672231999999894,1.8602418586395948,,experiment,emotion,0.0,,,,844.6349279000002,27,27,female,True,8445,8453,False,False,expiration,expiration
266,116.0,25,M,down,0.7372599000000264,1.3109475539184037,,experiment,emotion,0.0,,,,846.9848907999999,27,27,female,True,8469,8476,False,False,expiration,expiration
267,112.0,25,F,down,0.6427372999996805,1.1740383040701785,,experiment,emotion,0.0,,,,849.2014269000001,27,27,female,True,8491,8497,False,False,inspiration,peak
268,109.0,25,M,down,0.73110429999997,1.0496766198501366,,experiment,emotion,0.0,,,,851.1680565000001,27,27,female,True,8511,8518,False,False,expiration,inspiration
269,112.0,25,M,down,0.7282476000000315,1.7512794711426838,,experiment,emotion,0.0,,,,853.9178522000003,27,27,female,True,8539,8546,False,False,expiration,expiration
270,120.0,25,F,up,0.510891399999764,1.1347028975212314,,experiment,emotion,0.0,,,,856.0512489000004,27,27,female,True,8560,8565,False,False,expiration,expiration
271,112.0,25,F,down,0.68666549999989,1.7604309137636134,,experiment,emotion,0.0,,,,858.5844456,27,27,female,True,8585,8592,False,False,inspiration,expiration
272,116.0,25,F,down,0.8131121000001258,1.6055066442182997,,experiment,emotion,0.0,,,,861.1510245,27,27,female,True,8611,8619,False,False,inspiration,inspiration
273,120.0,25,F,down,1.1635318999997253,0.38050214767255897,,experiment,emotion,0.0,,,,862.6176011000003,27,27,female,True,8625,8637,False,False,expiration,trough
274,116.0,25,F,down,0.7492606999999225,1.7470927340311986,,experiment,emotion,0.0,,,,865.8008970999998,27,27,female,True,8657,8664,False,False,expiration,expiration
275,109.0,25,F,down,0.9887106999999559,0.384273861269862,,experiment,emotion,0.0,,,,867.2174206999997,27,27,female,True,8671,8681,False,False,inspiration,expiration
276,112.0,25,M,down,0.6147390999999516,0.5867949281526744,,experiment,emotion,0.0,,,,869.0674306000002,27,27,female,True,8690,8696,False,False,expiration,trough
277,109.0,25,M,down,0.5552038999999239,1.2727117700205617,,experiment,emotion,0.0,,,,871.2339267000003,27,27,female,True,8712,8718,False,False,expiration,expiration
278,120.0,25,M,down,0.9816160999998828,1.8373271857875568,,experiment,emotion,0.0,,,,873.9005444000001,27,27,female,True,8738,8748,False,False,peak,expiration
279,109.0,25,M,down,0.6213394000001244,1.8826696176492619,,experiment,emotion,0.0,,,,877.0337709999999,27,27,female,True,8770,8776,False,False,expiration,expiration
280,116.0,25,F,up,0.623461899999711,1.6490662346239786,,experiment,emotion,0.0,,,,879.5836603000004,27,27,female,True,8795,8801,False,False,inspiration,expiration
281,116.0,25,M,down,0.7192767999999887,1.5460870091050638,,experiment,emotion,0.0,,,,882.0168466,27,27,female,True,8820,8827,False,False,inspiration,inspiration
282,112.0,25,M,down,0.7629259999998794,0.8958211947098482,,experiment,emotion,0.0,,,,883.9001759000002,27,27,female,True,8838,8846,False,False,expiration,trough
283,112.0,25,F,down,0.6253882000000885,1.3378449484105694,,experiment,emotion,0.0,,,,886.2667283999998,27,27,female,True,8862,8868,False,False,expiration,expiration
284,109.0,25,M,down,0.5834128000001328,0.3049638013313293,,experiment,emotion,0.0,,,,887.4667058,27,27,female,True,8874,8880,False,False,expiration,inspiration
285,120.0,25,F,down,0.590578800000003,1.5831380362193728,,experiment,emotion,0.0,,,,889.9165843999998,27,27,female,True,8899,8905,False,False,expiration,expiration
286,116.0,25,F,down,0.5845649999996567,0.791643896428419,,experiment,emotion,0.0,,,,891.5665466999999,27,27,female,True,8915,8921,False,False,inspiration,expiration
287,109.0,25,M,down,0.9566771999998308,1.0970038850000856,,experiment,emotion,0.0,,,,893.5164361999999,27,27,female,True,8934,8944,False,False,expiration,inspiration
288,120.0,25,M,up,0.6470401999999922,0.8311633892318606,,experiment,emotion,0.0,,,,895.5830503000003,27,27,female,True,8955,8961,False,False,expiration,expiration
289,120.0,25,F,up,0.5477759000000333,0.4147823634669871,,experiment,emotion,0.0,,,,896.9163283000003,27,27,female,True,8968,8973,False,False,inspiration,inspiration
290,112.0,25,M,up,0.9891606999999568,0.940170871387942,,experiment,emotion,0.0,,,,898.6829545999999,27,27,female,True,8986,8996,False,False,expiration,inspiration
291,109.0,25,F,up,1.122943099999702,1.5070634114320838,,experiment,emotion,0.0,,,,901.4661617000003,27,27,female,True,9014,9025,False,False,expiration,trough
292,112.0,25,F,up,0.6537318000000596,1.8871709847667948,,experiment,emotion,0.0,,,,904.7493909,27,27,female,True,9047,9054,False,False,expiration,expiration
293,116.0,25,F,up,0.6031702000000223,1.1346196674266658,,experiment,emotion,0.0,,,,906.8159328000003,27,27,female,True,9068,9074,False,False,inspiration,inspiration
294,109.0,25,M,up,0.629238400000304,1.2308903037970411,,experiment,emotion,0.0,,,,908.9158648000003,27,27,female,True,9089,9095,False,False,peak,expiration
295,120.0,25,M,up,0.6799814999999398,0.7751146040553776,,experiment,emotion,0.0,,,,910.5991176000003,27,27,female,True,9105,9112,False,False,expiration,expiration
296,116.0,25,M,up,0.6360026000002108,1.5599291781496856,,experiment,emotion,0.0,,,,913.0991312,27,27,female,True,9130,9136,False,False,expiration,expiration
297,120.0,25,F,up,0.969450400000369,0.8545980013489947,,experiment,emotion,0.0,,,,914.8656651,27,27,female,True,9148,9158,False,False,peak,expiration
298,109.0,25,F,down,0.7358527000001231,1.2250115619367514,,experiment,emotion,0.0,,,,917.3322452000003,27,27,female,True,9173,9180,False,False,inspiration,inspiration
299,116.0,25,M,up,0.7529770999999528,1.633650801558998,,experiment,emotion,0.0,,,,919.9821279000003,27,27,female,True,9199,9207,False,False,expiration,inspiration
300,112.0,25,F,down,0.9890255999998772,0.4721954043245004,,experiment,emotion,0.0,,,,921.4820899,27,27,female,True,9214,9224,False,False,expiration,expiration
301,112.0,25,M,up,0.6531367999996291,1.1387487868409223,,experiment,emotion,0.0,,,,923.8819533,27,27,female,True,9238,9245,False,False,inspiration,peak
302,116.0,25,M,up,0.6772181000001183,1.382542495209768,,experiment,emotion,0.0,,,,926.1819099,27,27,female,True,9261,9268,False,False,expiration,inspiration
303,120.0,25,M,up,0.6162722999997641,0.3017496896503314,,experiment,emotion,0.0,,,,927.4318168,27,27,female,True,9274,9280,False,False,inspiration,expiration
304,112.0,25,F,up,0.45690740000009095,0.34202445886082894,,experiment,emotion,0.0,,,,928.6651508999997,27,27,female,True,9286,9291,False,False,expiration,expiration
305,109.0,25,F,up,0.746715199999926,1.4316145683314832,,experiment,emotion,0.0,,,,930.8484011,27,27,female,True,9308,9315,False,False,expiration,expiration
306,109.0,25,M,up,0.5771058000000266,0.5951512771980534,,experiment,emotion,0.0,,,,932.4650265,27,27,female,True,9324,9330,False,False,expiration,inspiration
307,112.0,25,F,up,0.5798933999999463,1.2949230271825911,,experiment,emotion,0.0,,,,934.5982421,27,27,female,True,9345,9351,False,False,expiration,expiration
308,120.0,25,F,up,0.599239099999977,1.2673357826479663,,experiment,emotion,0.0,,,,936.7147854999997,27,27,female,True,9367,9373,False,False,inspiration,expiration
309,116.0,25,M,up,0.6663902999998754,1.8263284726310036,,experiment,emotion,0.0,,,,939.4147031000003,27,27,female,True,9394,9401,False,False,inspiration,expiration
310,109.0,25,M,up,0.6090984999996181,0.8493283555125082,,experiment,emotion,0.0,,,,941.1979849,27,27,female,True,9411,9417,False,False,expiration,inspiration
311,120.0,25,F,up,0.5791429999999309,1.486744159027793,,experiment,emotion,0.0,,,,943.5479276,27,27,female,True,9435,9441,False,False,expiration,expiration
312,116.0,25,M,down,0.8819124999999985,1.2318101149558929,,experiment,emotion,0.0,,,,945.6311847999999,27,27,female,True,9456,9465,False,False,inspiration,expiration
313,116.0,25,F,down,0.9209768000000622,0.5611837403297032,,experiment,emotion,0.0,,,,947.3310994,27,27,female,True,9473,9482,False,False,expiration,inspiration
314,109.0,25,F,up,0.9739974999997684,0.8124008495971478,,experiment,emotion,0.0,,,,949.3310654999999,27,27,female,True,9493,9503,False,False,expiration,expiration
315,112.0,25,F,down,0.9331592000003184,1.7908297473442625,,experiment,emotion,0.0,,,,952.3809069,27,27,female,True,9523,9532,False,False,inspiration,expiration
316,120.0,25,M,down,0.7785364999999729,0.8179814487629904,,experiment,emotion,0.0,,,,954.3975283,27,27,female,True,9543,9551,False,False,expiration,inspiration
317,112.0,25,M,down,0.6946355000000041,0.7448216878423786,,experiment,emotion,0.0,,,,956.197431,27,27,female,True,9561,9568,False,False,peak,expiration
318,112.0,25,F,up,1.260388199999852,1.9581302862651229,,experiment,emotion,0.0,,,,959.1306813,27,27,female,True,9591,9604,False,False,inspiration,expiration
319,112.0,25,F,up,0.7338475000001381,0.5831176860111307,,experiment,emotion,0.0,,,,961.2472551,27,27,female,True,9612,9619,False,False,expiration,expiration
320,120.0,25,M,up,0.6745473999999376,1.634739374149056,,experiment,emotion,0.0,,,,963.8804997999999,27,27,female,True,9638,9645,False,False,expiration,expiration
321,116.0,25,M,up,0.6109996000000137,0.9258225413811264,,experiment,emotion,0.0,,,,965.7470693,27,27,female,True,9657,9663,False,False,inspiration,inspiration
322,109.0,25,M,up,0.6393761999997878,1.0114801945478051,,experiment,emotion,0.0,,,,967.6636874,27,27,female,True,9676,9682,False,False,expiration,inspiration
323,109.0,25,M,up,0.6007708999995884,0.6177796846615227,,experiment,emotion,0.0,,,,969.1802860000003,27,27,female,True,9691,9697,False,False,inspiration,expiration
324,116.0,25,M,down,0.8284997999999177,1.8673004526631245,,experiment,emotion,0.0,,,,971.9135067000003,27,27,female,True,9719,9727,False,False,inspiration,expiration
325,120.0,25,F,down,0.7166480999999294,1.9641116214675896,,experiment,emotion,0.0,,,,974.9633824000003,27,27,female,True,9749,9756,False,False,inspiration,expiration
326,120.0,25,F,down,0.6710425999999643,1.3822086943850314,,experiment,emotion,0.0,,,,977.3300061999997,27,27,female,True,9773,9780,False,False,trough,inspiration
327,109.0,25,M,down,0.7719444000003932,1.4481376886103747,,experiment,emotion,0.0,,,,979.7131521,27,27,female,True,9797,9805,False,False,expiration,inspiration
328,120.0,25,F,down,0.6039001000003736,1.8438293829659371,,experiment,emotion,0.0,,,,982.6131245,27,27,female,True,9825,9831,False,False,inspiration,expiration
329,112.0,25,F,down,0.4673722000002272,1.5414370150704546,,experiment,emotion,0.0,,,,985.0296981,27,27,female,True,9850,9855,False,False,expiration,expiration
330,116.0,25,F,down,0.5711510000000999,1.9467264207613524,,experiment,emotion,0.0,,,,987.7129387,27,27,female,True,9877,9883,False,False,expiration,expiration
331,112.0,25,M,down,0.7362159999997857,1.3105441484515212,,experiment,emotion,0.0,,,,989.8628321,27,27,female,True,9898,9905,False,False,inspiration,peak
332,109.0,25,F,down,0.7150777000001654,1.9222263543989375,,experiment,emotion,0.0,,,,992.7960671,27,27,female,True,9927,9934,False,False,inspiration,inspiration
333,116.0,25,F,down,0.6604722000001857,1.9166934344624331,,experiment,emotion,0.0,,,,995.7126051000001,27,27,female,True,9957,9964,False,False,inspiration,inspiration
334,112.0,25,F,down,0.6345277999998871,1.9269430436401027,,experiment,emotion,0.0,,,,998.562509,27,27,female,True,9985,9991,False,False,expiration,expiration
335,116.0,25,M,down,0.7959900999999263,1.1094320860812688,,experiment,emotion,0.0,,,,1000.5790812000001,27,27,female,True,10005,10013,False,False,inspiration,inspiration
336,109.0,25,M,down,0.8346730999996907,0.6223059248865129,,experiment,emotion,0.0,,,,1002.2623814,27,27,female,True,10022,10030,False,False,expiration,expiration
337,120.0,25,F,down,0.8350970999999845,0.4554009095794196,,experiment,emotion,0.0,,,,1003.8289122,27,27,female,True,10038,10046,False,False,inspiration,inspiration
338,116.0,25,M,down,0.6439354999997704,1.8679960342374364,,experiment,emotion,0.0,,,,1006.8121751,27,27,female,True,10067,10073,False,False,inspiration,inspiration
339,120.0,25,F,up,0.5662928000001557,1.6053210789347294,,experiment,emotion,0.0,,,,1009.3287569,27,27,female,True,10093,10099,False,False,expiration,expiration
340,109.0,25,M,up,0.6023761999999806,1.075237836708612,,experiment,emotion,0.0,,,,1011.2286706999997,27,27,female,True,10112,10118,False,False,inspiration,expiration
341,112.0,25,M,up,0.8613778999997521,1.859440316714924,,experiment,emotion,0.0,,,,1013.9786129,27,27,female,True,10139,10148,False,False,inspiration,expiration
342,0.4922798829994618,25,up,up,0.6352194000000964,1.9235556349886307,,experiment,cRDM,1.0,,,,1025.6448016000002,27,27,female,True,10256,10262,False,False,expiration,inspiration
343,0.4922798829994618,25,up,up,0.7756558000000949,1.324691348592685,,experiment,cRDM,1.0,,,,1027.8613506000004,27,27,female,True,10278,10286,False,False,expiration,expiration
344,0.4922798829994618,25,down,down,0.5508284000002277,1.9123165435372251,,experiment,cRDM,1.0,,,,1030.8112055,27,27,female,True,10307,10313,False,False,expiration,expiration
345,0.4922798829994618,25,down,down,0.600157500000023,0.5586355696727993,,experiment,cRDM,1.0,,,,1032.1778501000001,27,27,female,True,10321,10327,False,False,inspiration,inspiration
346,0.4922798829994618,25,up,up,0.4562440999998216,0.9886519356071386,,experiment,cRDM,1.0,,,,1034.0277642,27,27,female,True,10340,10345,False,False,expiration,expiration
347,0.4922798829994618,25,down,down,0.4729447999998229,1.6268340863807098,,experiment,cRDM,1.0,,,,1036.3610212,27,27,female,True,10363,10368,False,False,expiration,expiration
348,0.4922798829994618,25,up,up,0.4927200000001904,1.69404171631496,,experiment,cRDM,1.0,,,,1038.7942773,27,27,female,True,10387,10392,False,False,inspiration,expiration
349,0.4922798829994618,25,up,down,0.5156561999997393,1.4239913248973264,,experiment,cRDM,1.0,,,,1040.9775132999996,27,27,female,True,10409,10414,False,False,inspiration,inspiration
350,0.4922798829994618,25,down,down,0.5898841999996876,0.8428030966554638,,experiment,cRDM,1.0,,,,1042.5941240000002,27,27,female,True,10425,10431,False,False,expiration,expiration
351,0.4922798829994618,25,down,down,0.6033194999999978,1.9318168696242959,,experiment,cRDM,1.0,,,,1045.360681,27,27,female,True,10453,10459,False,False,expiration,expiration
352,0.4922798829994618,25,down,down,0.606549399999949,1.0788309127412612,,experiment,cRDM,1.0,,,,1047.3105988000002,27,27,female,True,10472,10478,False,False,inspiration,expiration
353,0.4922798829994618,25,down,up,0.6894737999996323,1.0450245329258792,,experiment,cRDM,1.0,,,,1049.2105230000002,27,27,female,True,10491,10498,False,False,expiration,inspiration
354,0.4922798829994618,25,down,down,0.9278709999998682,1.466873106779212,,experiment,cRDM,1.0,,,,1051.6271446,27,27,female,True,10516,10525,False,False,expiration,inspiration
355,0.4922798829994618,25,down,down,0.6129390000000967,0.3638148689877738,,experiment,cRDM,1.0,,,,1053.1770566,27,27,female,True,10531,10537,False,False,inspiration,expiration
356,0.4922798829994618,25,up,up,0.6036794999999984,1.5000950873126868,,experiment,cRDM,1.0,,,,1055.5603162000002,27,27,female,True,10555,10561,False,False,inspiration,inspiration
357,0.4922798829994618,25,up,up,0.8004549000002044,1.0625529226251278,,experiment,cRDM,1.0,,,,1057.4935495,27,27,female,True,10574,10582,False,False,expiration,expiration
358,0.4922798829994618,25,up,down,0.7775575000000572,1.6910973857832232,,experiment,cRDM,1.0,,,,1060.2434647,27,27,female,True,10602,10610,False,False,expiration,expiration
359,0.4922798829994618,25,up,up,0.6222902999998041,1.741193182121468,,experiment,cRDM,1.0,,,,1063.0266801000002,27,27,female,True,10630,10636,False,False,expiration,expiration
360,0.4922798829994618,25,down,down,0.9756213000000572,0.3343578749000725,,experiment,cRDM,1.0,,,,1064.2433614,27,27,female,True,10642,10652,False,False,expiration,inspiration
361,0.4922798829994618,25,up,up,0.6877682000003915,0.7290443640311994,,experiment,cRDM,1.0,,,,1066.1932117,27,27,female,True,10661,10668,False,False,expiration,expiration
362,0.4922798829994618,25,up,up,0.5868188999997983,1.6943377669784143,,experiment,cRDM,1.0,,,,1068.8431810000004,27,27,female,True,10688,10694,False,False,expiration,expiration
363,0.4922798829994618,25,down,up,0.5908994999999777,0.4941786835690913,,experiment,cRDM,1.0,,,,1070.1930841,27,27,female,True,10701,10707,False,False,expiration,inspiration
364,0.4922798829994618,25,up,up,0.5756113000002188,1.0700624366827427,,experiment,cRDM,1.0,,,,1072.1263830000003,27,27,female,True,10721,10727,False,False,expiration,expiration
365,0.4922798829994618,25,down,down,0.6453755000002275,1.3891663748938423,,experiment,cRDM,1.0,,,,1074.3595928,27,27,female,True,10743,10749,False,False,inspiration,expiration
366,0.4922798829994618,25,down,up,0.6317977000003339,1.8109320012910388,,experiment,cRDM,1.0,,,,1077.0762067,27,27,female,True,10770,10776,False,False,inspiration,expiration
367,0.4922798829994618,25,up,up,0.5262748000000101,0.5229049766756373,,experiment,cRDM,1.0,,,,1078.4927652,27,27,female,True,10784,10789,False,False,expiration,expiration
368,0.4922798829994618,25,up,up,0.4715937999999369,0.8684000714012268,,experiment,cRDM,1.0,,,,1080.1593828,27,27,female,True,10801,10806,False,False,inspiration,expiration
369,0.4922798829994618,25,down,down,0.5597078999999212,1.5221406481312696,,experiment,cRDM,1.0,,,,1082.4092650000002,27,27,female,True,10823,10829,False,False,inspiration,inspiration
370,0.4922798829994618,25,up,up,0.6533954000001359,1.4079591174693233,,experiment,cRDM,1.0,,,,1084.6425786999996,27,27,female,True,10846,10853,False,False,expiration,inspiration
371,0.4922798829994618,25,down,up,0.6364475999998831,0.8409572344454299,,experiment,cRDM,1.0,,,,1086.3924889999996,27,27,female,True,10863,10869,False,False,inspiration,expiration
372,0.4922798829994618,25,down,down,0.7239724999999453,1.8697570276356767,,experiment,cRDM,1.0,,,,1089.1590442000004,27,27,female,True,10891,10898,False,False,inspiration,expiration
373,0.4922798829994618,25,down,down,0.6831364999998186,1.9192857633912053,,experiment,cRDM,1.0,,,,1092.0588758,27,27,female,True,10920,10927,False,False,inspiration,expiration
374,0.4922798829994618,25,up,up,0.5917054000001372,0.5568578242397089,,experiment,cRDM,1.0,,,,1093.5422474000004,27,27,female,True,10935,10941,False,False,expiration,expiration
375,0.4922798829994618,25,up,up,0.6365121999997427,1.3295212140271968,,experiment,cRDM,1.0,,,,1095.7254549000002,27,27,female,True,10957,10963,False,False,expiration,expiration
376,0.4922798829994618,25,up,up,0.5126324000002569,1.6991842371793793,,experiment,cRDM,1.0,,,,1098.3253637000003,27,27,female,True,10983,10988,False,False,inspiration,expiration
377,0.4922798829994618,25,down,down,0.7316898999997647,1.9792282549082256,,experiment,cRDM,1.0,,,,1101.0752782,27,27,female,True,11010,11017,False,False,inspiration,expiration
378,0.4922798829994618,25,down,up,0.6485046000002512,1.6357443715444837,,experiment,cRDM,1.0,,,,1103.7084761,27,27,female,True,11036,11042,False,False,inspiration,expiration
379,0.4922798829994618,25,up,up,0.4761555000000044,0.8190635030900606,,experiment,cRDM,1.0,,,,1105.4417976,27,27,female,True,11054,11059,False,False,expiration,trough
380,0.4922798829994618,25,down,down,0.5902728000000934,1.6672073191150032,,experiment,cRDM,1.0,,,,1107.8416998000002,27,27,female,True,11078,11084,False,False,expiration,expiration
381,0.4922798829994618,25,up,up,0.4734132000003228,1.8012121841130555,,experiment,cRDM,1.0,,,,1110.4915662,27,27,female,True,11104,11109,False,False,expiration,expiration
382,0.4922798829994618,25,up,up,0.4824238999999579,1.9157176989390696,,experiment,cRDM,1.0,,,,1113.1415091,27,27,female,True,11131,11136,False,False,expiration,expiration
383,0.4922798829994618,25,up,up,0.583581200000026,0.9968753469682652,,experiment,cRDM,1.0,,,,1114.8913977000002,27,27,female,True,11148,11154,False,False,trough,inspiration
384,0.4922798829994618,25,down,down,0.6118469000002733,1.1520072651268365,,experiment,cRDM,1.0,,,,1116.8913088,27,27,female,True,11168,11174,False,False,expiration,expiration
385,0.4922798829994618,25,down,down,0.6630353999998988,0.7896111110139443,,experiment,cRDM,1.0,,,,1118.5579122000001,27,27,female,True,11185,11192,False,False,inspiration,inspiration
386,0.4922798829994618,25,up,up,0.4423599000001559,0.4905860453204173,,experiment,cRDM,1.0,,,,1119.9745523,27,27,female,True,11199,11203,False,False,inspiration,inspiration
387,0.4922798829994618,25,down,down,0.7884172000003673,0.5291764474051125,,experiment,cRDM,1.0,,,,1121.2245294000002,27,27,female,True,11212,11220,False,False,inspiration,expiration
388,0.4922798829994618,25,down,down,0.6224928000001455,1.7500025077433077,,experiment,cRDM,1.0,,,,1124.0244432,27,27,female,True,11240,11246,False,False,expiration,expiration
389,0.4922798829994618,25,up,up,0.4733742000003076,1.9420460687671488,,experiment,cRDM,1.0,,,,1126.8576194000002,27,27,female,True,11268,11273,False,False,trough,inspiration
390,0.4922798829994618,25,up,up,0.4970395000000281,0.7831080269286861,,experiment,cRDM,1.0,,,,1128.3909105999999,27,27,female,True,11283,11288,False,False,expiration,expiration
391,0.4922798829994618,25,down,up,0.4169200999999703,0.5411239488031898,,experiment,cRDM,1.0,,,,1129.6908400000002,27,27,female,True,11296,11300,False,False,expiration,expiration
392,0.4922798829994618,25,up,up,0.4170157999997173,0.6923059827589435,,experiment,cRDM,1.0,,,,1131.0741455999998,27,27,female,True,11310,11314,False,False,inspiration,inspiration
393,0.4922798829994618,25,down,down,0.6288551000002371,1.1616645432001498,,experiment,cRDM,1.0,,,,1132.9240877000002,27,27,female,True,11329,11335,False,False,expiration,expiration
394,0.4922798829994618,25,down,down,0.8336586999998872,1.9819065869087695,,experiment,cRDM,1.0,,,,1135.8072777000002,27,27,female,True,11358,11366,False,False,inspiration,expiration
395,0.4922798829994618,25,down,up,0.7263512999998056,0.5822481397015145,,experiment,cRDM,1.0,,,,1137.4905310000001,27,27,female,True,11374,11381,False,False,expiration,expiration
396,0.4922798829994618,25,up,up,0.6388153000002603,0.7224848402853149,,experiment,cRDM,1.0,,,,1139.2071394000002,27,27,female,True,11392,11398,False,False,inspiration,peak
397,0.4922798829994618,25,up,up,0.558155700000043,0.3794777350405965,,experiment,cRDM,1.0,,,,1140.4737904,27,27,female,True,11404,11410,False,False,expiration,expiration
398,0.4922798829994618,25,down,up,0.4835401000000274,0.9922506882487314,,experiment,cRDM,1.0,,,,1142.2903934,27,27,female,True,11422,11427,False,False,inspiration,inspiration
399,0.4922798829994618,25,down,up,0.4826296999999613,0.9565567420836408,,experiment,cRDM,1.0,,,,1143.9903032000002,27,27,female,True,11439,11444,False,False,expiration,expiration
400,0.4922798829994618,25,up,up,0.5626607999997759,1.4082162402824243,,experiment,cRDM,1.0,,,,1146.1402662,27,27,female,True,11461,11467,False,False,expiration,expiration
401,0.4922798829994618,25,up,up,0.4877645999999913,0.7655206948149601,,experiment,cRDM,1.0,,,,1147.7401911000004,27,27,female,True,11477,11482,False,False,expiration,inspiration
402,0.4922798829994618,25,up,up,0.5131612000000132,1.4316073887429832,,experiment,cRDM,1.0,,,,1149.9067458,27,27,female,True,11498,11503,False,False,expiration,expiration
403,0.4922798829994618,25,up,up,0.5666562999999769,1.393948021573272,,experiment,cRDM,1.0,,,,1152.0733817,27,27,female,True,11520,11526,False,False,trough,inspiration
404,0.4922798829994618,25,up,up,0.4559785999999804,1.2408605072843804,,experiment,cRDM,1.0,,,,1154.1399906,27,27,female,True,11541,11546,False,False,expiration,expiration
405,0.4922798829994618,25,down,down,0.6574318999996649,1.5517280846895534,,experiment,cRDM,1.0,,,,1156.4064833000002,27,27,female,True,11563,11570,False,False,inspiration,expiration
406,0.4922798829994618,25,down,down,0.6250995000000329,0.6048329623576997,,experiment,cRDM,1.0,,,,1157.9398165999999,27,27,female,True,11579,11585,False,False,expiration,expiration
407,0.4922798829994618,25,up,down,0.5311388999998599,0.6995527171628697,,experiment,cRDM,1.0,,,,1159.5397672,27,27,female,True,11595,11600,False,False,inspiration,expiration
408,0.4922798829994618,25,down,up,0.8766122000001815,0.6195697668584376,,experiment,cRDM,1.0,,,,1160.956342,27,27,female,True,11609,11618,False,False,expiration,expiration
409,0.4922798829994618,25,down,up,0.5969534000000749,0.3286043690764723,,experiment,cRDM,1.0,,,,1162.4229283,27,27,female,True,11624,11630,False,False,inspiration,inspiration
410,0.4922798829994618,25,down,up,0.5080192000000352,0.4445775022168913,,experiment,cRDM,1.0,,,,1163.7229149999996,27,27,female,True,11637,11642,False,False,expiration,expiration
411,0.4922798829994618,25,up,up,0.4217951000000539,0.8253283593986691,,experiment,cRDM,1.0,,,,1165.3061523,27,27,female,True,11652,11656,False,False,inspiration,inspiration
412,0.4922798829994618,25,down,down,0.7741465999997672,1.4383645642232534,,experiment,cRDM,1.0,,,,1167.4227633,27,27,female,True,11674,11682,False,False,expiration,expiration
413,0.4922798829994618,25,down,up,0.6329396999999517,1.0512578595735151,,experiment,cRDM,1.0,,,,1169.5060016000002,27,27,female,True,11694,11700,False,False,inspiration,expiration
414,0.4922798829994618,25,down,up,0.4969255999999405,0.6635501310841858,,experiment,cRDM,1.0,,,,1171.0559615999998,27,27,female,True,11710,11715,False,False,expiration,inspiration
415,0.4922798829994618,25,up,up,0.548012799999924,1.4880307846479737,,experiment,cRDM,1.0,,,,1173.3058726,27,27,female,True,11732,11737,False,False,expiration,expiration
416,0.4922798829994618,25,up,up,0.2670920999998998,1.1306211777485973,,experiment,cRDM,1.0,,,,1175.23918,27,27,female,True,11752,11755,False,False,inspiration,inspiration
417,0.4922798829994618,25,down,down,0.5481895000002623,1.8257847170415744,,experiment,cRDM,1.0,,,,1177.7557140000001,27,27,female,True,11777,11782,False,False,inspiration,inspiration
418,0.4922798829994618,25,up,up,0.6888586000000032,0.3721475109066463,,experiment,cRDM,1.0,,,,1178.9390431000004,27,27,female,True,11789,11796,False,False,expiration,expiration
419,0.4922798829994618,25,down,down,0.5626176999999188,1.5914920790571745,,experiment,cRDM,1.0,,,,1181.4722349,27,27,female,True,11814,11820,False,False,inspiration,peak
420,0.4922798829994618,25,up,up,0.4414153000002443,1.313885534579993,,experiment,cRDM,1.0,,,,1183.6054821000002,27,27,female,True,11836,11840,False,False,expiration,inspiration
421,0.4922798829994618,25,up,up,0.5425147000000834,0.8920428141873988,,experiment,cRDM,1.0,,,,1185.2053847999998,27,27,female,True,11852,11857,False,False,expiration,expiration
422,120.0,25,M,down,0.7800472000003538,0.6616180557418487,,experiment,emotion,1.0,,,,1193.4718449000004,27,27,female,True,11934,11942,False,False,expiration,inspiration
423,109.0,25,M,down,0.6441030999999384,1.0796236735531657,,experiment,emotion,1.0,,,,1195.6217875000002,27,27,female,True,11956,11962,False,False,expiration,expiration
424,116.0,25,F,up,0.6573597000001428,0.8463699008945367,,experiment,emotion,1.0,,,,1197.4055216000004,27,27,female,True,11974,11981,False,False,inspiration,expiration
425,120.0,25,F,up,0.5420383000000584,0.5773502688675456,,experiment,emotion,1.0,,,,1198.9049062000001,27,27,female,True,11989,11994,False,False,expiration,expiration
426,116.0,25,M,up,0.7566231000000698,1.419833602103057,,experiment,emotion,1.0,,,,1201.1382647,27,27,female,True,12011,12019,False,False,expiration,expiration
427,112.0,25,F,up,0.9451364000001377,1.890274688242629,,experiment,emotion,1.0,,,,1204.0547489,27,27,female,True,12040,12049,False,False,expiration,expiration
428,109.0,25,M,up,0.6148097999998754,1.066257003401327,,experiment,emotion,1.0,,,,1206.3380617999999,27,27,female,True,12063,12069,False,False,inspiration,expiration
429,112.0,25,M,down,0.6646130999997695,1.147326702787376,,experiment,emotion,1.0,,,,1208.3712916,27,27,female,True,12083,12090,False,False,trough,inspiration
430,120.0,25,F,up,0.6070494000000508,0.3578022441073115,,experiment,emotion,1.0,,,,1209.6878924000002,27,27,female,True,12096,12102,False,False,expiration,expiration
431,112.0,25,F,up,0.9620504999998049,1.8676076865339428,,experiment,emotion,1.0,,,,1212.4378213,27,27,female,True,12124,12134,False,False,expiration,expiration
432,116.0,25,F,up,0.5361120000002302,0.3711919381655038,,experiment,emotion,1.0,,,,1214.0377870000002,27,27,female,True,12140,12145,False,False,trough,inspiration
433,120.0,25,F,up,0.57019739999987,0.3373015513823693,,experiment,emotion,1.0,,,,1215.1876837999996,27,27,female,True,12151,12157,False,False,expiration,expiration
434,116.0,25,F,up,1.0732075999999324,0.6171698592097951,,experiment,emotion,1.0,,,,1216.6376672,27,27,female,True,12166,12177,False,False,expiration,expiration
435,109.0,25,F,up,0.6053009000002021,1.054056885780431,,experiment,emotion,1.0,,,,1219.0375758,27,27,female,True,12190,12196,False,False,inspiration,expiration
436,112.0,25,M,down,0.8040235000003122,0.5589726410169322,,experiment,emotion,1.0,,,,1220.4708462,27,27,female,True,12204,12212,False,False,expiration,expiration
437,109.0,25,M,down,0.8107860000000073,1.3594911595084689,,experiment,emotion,1.0,,,,1222.9040674000005,27,27,female,True,12229,12237,False,False,expiration,expiration
438,120.0,25,M,down,0.614822500000173,0.5623618706884468,,experiment,emotion,1.0,,,,1224.5540308999996,27,27,female,True,12245,12251,False,False,expiration,inspiration
439,109.0,25,M,up,0.6425757999995767,0.4004816826682284,,experiment,emotion,1.0,,,,1225.8373074,27,27,female,True,12258,12264,False,False,peak,expiration
440,116.0,25,F,up,0.5722845999998754,0.3310296826662297,,experiment,emotion,1.0,,,,1227.0706129,27,27,female,True,12270,12276,False,False,expiration,trough
441,116.0,25,M,up,0.6173463000000083,0.5445960070350415,,experiment,emotion,1.0,,,,1228.4705267000002,27,27,female,True,12284,12290,False,False,inspiration,expiration
442,112.0,25,M,up,0.8044810000001235,0.9573571408054582,,experiment,emotion,1.0,,,,1230.320381,27,27,female,True,12303,12311,False,False,expiration,inspiration
443,112.0,25,F,up,0.6688064999998461,0.9021118420399872,,experiment,emotion,1.0,,,,1232.2870528,27,27,female,True,12322,12329,False,False,expiration,expiration
444,109.0,25,M,up,0.9862732999999936,1.3934289609658037,,experiment,emotion,1.0,,,,1234.6036344000001,27,27,female,True,12345,12355,False,False,inspiration,expiration
445,120.0,25,F,up,0.7806059999998071,1.943306791468,,experiment,emotion,1.0,,,,1237.8035028,27,27,female,True,12377,12385,False,False,inspiration,expiration
446,116.0,25,F,up,0.5997849000000315,0.5695421413169746,,experiment,emotion,1.0,,,,1239.4201088,27,27,female,True,12394,12400,False,False,expiration,inspiration
447,109.0,25,M,up,1.2457948999999644,0.5609219561294965,,experiment,emotion,1.0,,,,1240.8700651,27,27,female,True,12408,12420,False,False,inspiration,expiration
448,120.0,25,M,up,0.5861187999998947,0.4556686523553422,,experiment,emotion,1.0,,,,1242.8367134000002,27,27,female,True,12428,12434,False,False,inspiration,inspiration
449,120.0,25,F,down,0.9077514000000521,1.9181979596488457,,experiment,emotion,1.0,,,,1245.6032652000001,27,27,female,True,12455,12464,False,False,expiration,inspiration
450,112.0,25,M,up,0.6541861000000608,0.6071026639856345,,experiment,emotion,1.0,,,,1247.4198230999998,27,27,female,True,12474,12481,False,False,expiration,expiration
451,109.0,25,F,up,0.5016989999999169,0.3165062745814105,,experiment,emotion,1.0,,,,1248.6531065,27,27,female,True,12486,12491,False,False,trough,inspiration
452,112.0,25,F,up,0.3834748999997828,0.6210561489516606,,experiment,emotion,1.0,,,,1250.0530805,27,27,female,True,12500,12504,False,False,expiration,expiration
453,116.0,25,F,down,0.890164200000072,0.5663975545746227,,experiment,emotion,1.0,,,,1251.3196833000004,27,27,female,True,12513,12522,False,False,expiration,inspiration
454,109.0,25,M,down,0.5882784000000356,0.6355091315797228,,experiment,emotion,1.0,,,,1253.1195822999996,27,27,female,True,12531,12537,False,False,expiration,expiration
455,120.0,25,M,up,0.6154301999999916,0.8427120907131498,,experiment,emotion,1.0,,,,1254.8195107,27,27,female,True,12548,12554,False,False,inspiration,inspiration
456,116.0,25,M,down,0.8130820000001222,1.6922071606512883,,experiment,emotion,1.0,,,,1257.4027847000002,27,27,female,True,12573,12581,False,False,inspiration,inspiration
457,120.0,25,F,up,0.7451859000002514,1.8334713302766303,,experiment,emotion,1.0,,,,1260.302658,27,27,female,True,12602,12609,False,False,inspiration,inspiration
458,109.0,25,F,up,0.5292187000000013,1.1217029638150224,,experiment,emotion,1.0,,,,1262.4526159000004,27,27,female,True,12624,12629,False,False,expiration,expiration
459,116.0,25,M,up,0.5740330000003269,1.334846690979578,,experiment,emotion,1.0,,,,1264.5858145000002,27,27,female,True,12645,12651,False,False,expiration,expiration
460,112.0,25,F,up,0.6210542000003443,1.74625862750966,,experiment,emotion,1.0,,,,1267.1857394,27,27,female,True,12671,12677,False,False,inspiration,peak
461,112.0,25,M,down,1.6607973000000131,1.06161311132583,,experiment,emotion,1.0,,,,1269.1190226,27,27,female,True,12691,12708,False,False,expiration,inspiration
462,116.0,25,M,up,0.7356850000001032,1.8487683655560152,,experiment,emotion,1.0,,,,1272.9021819,27,27,female,True,12729,12736,False,False,expiration,inspiration
463,120.0,25,M,up,0.9740336999998362,1.376104413051742,,experiment,emotion,1.0,,,,1275.3187773999996,27,27,female,True,12753,12763,False,False,expiration,expiration
464,112.0,25,F,down,0.675796999999875,1.0852004246535794,,experiment,emotion,1.0,,,,1277.6520377999998,27,27,female,True,12776,12783,False,False,inspiration,expiration
465,109.0,25,F,down,0.6649253999999019,0.3857208034776308,,experiment,emotion,1.0,,,,1279.0018869,27,27,female,True,12790,12797,False,False,expiration,expiration
466,109.0,25,M,down,0.6869861000000128,1.264659619843791,,experiment,emotion,1.0,,,,1281.2018334000002,27,27,female,True,12812,12819,False,False,expiration,expiration
467,112.0,25,F,down,0.608056999999917,1.3374810901632637,,experiment,emotion,1.0,,,,1283.5017609,27,27,female,True,12835,12841,False,False,inspiration,inspiration
468,120.0,25,F,down,0.7068438999999671,1.0971282512688905,,experiment,emotion,1.0,,,,1285.4850385,27,27,female,True,12854,12861,False,False,expiration,expiration
469,116.0,25,M,down,0.8625662999997985,1.7843244468848605,,experiment,emotion,1.0,,,,1288.268273,27,27,female,True,12882,12891,False,False,expiration,expiration
470,109.0,25,M,up,0.7112762000001567,1.0550343537700269,,experiment,emotion,1.0,,,,1290.4515612,27,27,female,True,12904,12911,False,False,inspiration,expiration
471,120.0,25,F,up,0.572370299999875,0.8682844011686712,,experiment,emotion,1.0,,,,1292.3014382,27,27,female,True,12923,12929,False,False,expiration,inspiration
472,116.0,25,M,up,0.6851013999998941,1.5548512805312138,,experiment,emotion,1.0,,,,1294.6847235,27,27,female,True,12946,12953,False,False,expiration,expiration
473,116.0,25,F,up,1.1502055000000837,1.352500479313732,,experiment,emotion,1.0,,,,1296.9846334000001,27,27,female,True,12969,12981,False,False,inspiration,inspiration
474,109.0,25,F,down,0.9132842999997592,1.4706160591037534,,experiment,emotion,1.0,,,,1299.8845302000002,27,27,female,True,12998,13007,False,False,expiration,expiration
475,112.0,25,F,down,0.8713705000000118,0.8058541573456206,,experiment,emotion,1.0,,,,1301.8844382000002,27,27,female,True,13018,13027,False,False,expiration,expiration
476,120.0,25,M,up,1.310218800000257,1.7756159557930364,,experiment,emotion,1.0,,,,1304.817643,27,27,female,True,13048,13061,False,False,inspiration,expiration
477,112.0,25,M,up,0.5986164000000826,0.6919450308307835,,experiment,emotion,1.0,,,,1307.0842475,27,27,female,True,13070,13076,False,False,expiration,expiration
478,112.0,25,F,up,0.6022910000001502,1.6189809057401512,,experiment,emotion,1.0,,,,1309.5675179999996,27,27,female,True,13095,13101,False,False,expiration,expiration
479,112.0,25,F,up,0.4970812999999907,0.36384494618934543,,experiment,emotion,1.0,,,,1310.8007501000004,27,27,female,True,13107,13112,False,False,expiration,expiration
480,120.0,25,M,up,0.5035302999999658,1.3138596739995785,,experiment,emotion,1.0,,,,1312.8673864000002,27,27,female,True,13128,13133,False,False,peak,expiration
481,116.0,25,M,up,0.5837091999997028,1.8411680174271956,,experiment,emotion,1.0,,,,1315.5172096,27,27,female,True,13155,13161,False,False,expiration,inspiration
482,109.0,25,M,up,0.5062392999998337,1.1185237066770228,,experiment,emotion,1.0,,,,1317.5005156000002,27,27,female,True,13174,13179,False,False,expiration,expiration
483,109.0,25,M,up,0.6033271000001149,0.8618338579045055,,experiment,emotion,1.0,,,,1319.1504733000004,27,27,female,True,13191,13197,False,False,inspiration,inspiration
484,116.0,25,M,up,0.6164169000003312,1.5639011176155568,,experiment,emotion,1.0,,,,1321.6003460000004,27,27,female,True,13215,13221,False,False,expiration,inspiration
485,120.0,25,F,up,0.5141673000002811,1.0028693318819015,,experiment,emotion,1.0,,,,1323.4836283999996,27,27,female,True,13234,13239,False,False,expiration,expiration
486,120.0,25,F,up,0.6259230000000571,1.5496819406397522,,experiment,emotion,1.0,,,,1325.8168773000002,27,27,female,True,13258,13264,False,False,inspiration,expiration
487,109.0,25,M,up,0.4770064999997885,0.40951226857254347,,experiment,emotion,1.0,,,,1327.116791,27,27,female,True,13271,13276,False,False,expiration,expiration
488,120.0,25,F,up,0.4786744000002727,1.3853049965479682,,experiment,emotion,1.0,,,,1329.2500927,27,27,female,True,13292,13297,False,False,inspiration,expiration
489,112.0,25,F,up,0.4967560999998568,0.6910987229865957,,experiment,emotion,1.0,,,,1330.7000176,27,27,female,True,13306,13311,False,False,expiration,expiration
490,116.0,25,F,up,0.4451549999998861,1.6763729981734046,,experiment,emotion,1.0,,,,1333.1666182,27,27,female,True,13331,13335,False,False,expiration,expiration
491,112.0,25,M,up,0.4948837000001731,0.7611464908037417,,experiment,emotion,1.0,,,,1334.6498923000001,27,27,female,True,13346,13351,False,False,expiration,inspiration
492,109.0,25,F,up,1.014301799999885,1.9134250343103871,,experiment,emotion,1.0,,,,1337.3164824,27,27,female,True,13373,13383,False,False,expiration,expiration
493,116.0,25,F,up,0.5404475000000275,1.9102004357564064,,experiment,emotion,1.0,,,,1340.5163395999996,27,27,female,True,13405,13410,False,False,expiration,expiration
494,112.0,25,F,up,0.627117300000009,1.2841163403705302,,experiment,emotion,1.0,,,,1342.5995782999996,27,27,female,True,13425,13431,False,False,inspiration,expiration
495,116.0,25,M,up,0.6049318000000312,1.1434308657467995,,experiment,emotion,1.0,,,,1344.6328376,27,27,female,True,13446,13452,False,False,expiration,inspiration
496,109.0,25,M,up,0.4490000000000691,0.8857705361348369,,experiment,emotion,1.0,,,,1346.3827918000004,27,27,female,True,13463,13467,False,False,expiration,expiration
497,120.0,25,F,up,0.5780556999998225,0.3790799092763587,,experiment,emotion,1.0,,,,1347.4827371,27,27,female,True,13474,13480,False,False,expiration,inspiration
498,116.0,25,M,down,0.778087400000004,0.7474213782277017,,experiment,emotion,1.0,,,,1349.0826875999999,27,27,female,True,13490,13498,False,False,peak,expiration
499,120.0,25,F,down,0.6005485000000589,1.6151940510795824,,experiment,emotion,1.0,,,,1351.7492327,27,27,female,True,13517,13523,False,False,inspiration,expiration
500,109.0,25,M,up,0.5128558000001249,1.055805735706722,,experiment,emotion,1.0,,,,1353.6659016,27,27,female,True,13536,13541,False,False,expiration,inspiration
501,112.0,25,M,down,0.7933199999997669,0.9764555233364012,,experiment,emotion,1.0,,,,1355.4324459000002,27,27,female,True,13554,13562,False,False,expiration,expiration
502,0.4922798829994618,25,up,up,0.835649199999807,1.0944812708331522,,experiment,cRDM,2.0,,,,1361.6821149000002,27,27,female,True,13616,13624,False,False,expiration,expiration
503,0.4922798829994618,25,up,up,0.7321597999998629,1.5747640465433264,,experiment,cRDM,2.0,,,,1364.3486884000001,27,27,female,True,13643,13650,False,False,peak,expiration
504,0.4922798829994618,25,down,down,0.5611487000001034,1.4672444001379341,,experiment,cRDM,2.0,,,,1366.7985933,27,27,female,True,13668,13674,False,False,inspiration,expiration
505,0.4922798829994618,25,down,down,0.5665297000000464,0.5885526556871994,,experiment,cRDM,2.0,,,,1368.2152483,27,27,female,True,13682,13688,False,False,expiration,trough
506,0.4922798829994618,25,up,up,0.48725150000018397,0.4522865431483123,,experiment,cRDM,2.0,,,,1369.4985087000002,27,27,female,True,13695,13700,False,False,inspiration,expiration
507,0.4922798829994618,25,down,down,0.5036789000000681,1.066927046151253,,experiment,cRDM,2.0,,,,1371.31511,27,27,female,True,13713,13718,False,False,expiration,inspiration
508,0.4922798829994618,25,up,down,0.7213937000001351,1.986919482089088,,experiment,cRDM,2.0,,,,1374.0483493000004,27,27,female,True,13740,13747,False,False,expiration,inspiration
509,0.4922798829994618,25,up,down,0.6425066000001607,1.0570974858751478,,experiment,cRDM,2.0,,,,1376.0982400999999,27,27,female,True,13761,13767,False,False,expiration,expiration
510,0.4922798829994618,25,down,down,0.5235534999997071,0.35824577306045663,,experiment,cRDM,2.0,,,,1377.3482195999998,27,27,female,True,13773,13778,False,False,expiration,inspiration
511,0.4922798829994618,25,down,up,0.6666315999996186,0.7571784760582008,,experiment,cRDM,2.0,,,,1378.8981219000002,27,27,female,True,13789,13796,False,False,expiration,expiration
512,0.4922798829994618,25,down,down,0.5639478999996754,0.7761559973637115,,experiment,cRDM,2.0,,,,1380.6148074000002,27,27,female,True,13806,13812,False,False,inspiration,inspiration
513,0.4922798829994618,25,down,down,0.5170422999999573,0.5856518367515211,,experiment,cRDM,2.0,,,,1382.0147168,27,27,female,True,13820,13825,False,False,expiration,expiration
514,0.4922798829994618,25,down,down,0.35051690000000235,0.6417319728508261,,experiment,cRDM,2.0,,,,1383.4313214000001,27,27,female,True,13834,13838,False,False,inspiration,inspiration
515,0.4922798829994618,25,down,down,0.467500299999756,0.9719044904774544,,experiment,cRDM,2.0,,,,1385.0812374000004,27,27,female,True,13850,13855,False,False,expiration,expiration
516,0.4922798829994618,25,up,up,0.6272973000000093,1.6631040182003292,,experiment,cRDM,2.0,,,,1387.4644914,27,27,female,True,13874,13880,False,False,expiration,expiration
517,0.4922798829994618,25,up,up,0.5140223999997033,1.889389415336764,,experiment,cRDM,2.0,,,,1390.2477170999998,27,27,female,True,13902,13907,False,False,expiration,inspiration
518,0.4922798829994618,25,up,up,0.5613777999997183,1.4934572180319985,,experiment,cRDM,2.0,,,,1392.5143491,27,27,female,True,13925,13931,False,False,expiration,expiration
519,0.4922798829994618,25,up,up,0.4610988999997971,0.407206266076304,,experiment,cRDM,2.0,,,,1393.7475932000002,27,27,female,True,13937,13942,False,False,inspiration,inspiration
520,0.4922798829994618,25,down,up,0.4675474000000577,1.1439398267918597,,experiment,cRDM,2.0,,,,1395.6141957999996,27,27,female,True,13956,13961,False,False,expiration,expiration
521,0.4922798829994618,25,up,up,0.567009699999744,1.7336273800098483,,experiment,cRDM,2.0,,,,1398.0807252,27,27,female,True,13980,13986,False,False,expiration,expiration
522,0.4922798829994618,25,up,up,0.5456948000000921,0.6564685706838329,,experiment,cRDM,2.0,,,,1399.5640449999999,27,27,female,True,13995,14000,False,False,inspiration,inspiration
523,0.4922798829994618,25,down,down,0.6407523000002584,0.3960244346476723,,experiment,cRDM,2.0,,,,1400.7639857000001,27,27,female,True,14007,14013,False,False,expiration,expiration
524,0.4922798829994618,25,up,up,0.468105899999955,1.5708816036470394,,experiment,cRDM,2.0,,,,1403.2305761000002,27,27,female,True,14032,14037,False,False,peak,expiration
525,0.4922798829994618,25,down,down,0.4933058999999958,1.358332566719518,,experiment,cRDM,2.0,,,,1405.3304939000002,27,27,female,True,14053,14058,False,False,inspiration,inspiration
526,0.4922798829994618,25,down,down,0.5989905999999792,0.8797040256589719,,experiment,cRDM,2.0,,,,1406.9637616999996,27,27,female,True,14069,14075,False,False,expiration,expiration
527,0.4922798829994618,25,up,up,0.5797515999997813,1.6831018283889758,,experiment,cRDM,2.0,,,,1409.4969924000004,27,27,female,True,14095,14101,False,False,expiration,expiration
528,0.4922798829994618,25,up,up,0.9860827000002246,0.3155382733002237,,experiment,cRDM,2.0,,,,1410.6636261,27,27,female,True,14106,14116,False,False,expiration,inspiration
529,0.4922798829994618,25,down,up,1.23951390000002,1.5254114565388155,,experiment,cRDM,2.0,,,,1413.4302151000004,27,27,female,True,14134,14146,False,False,expiration,inspiration
530,0.4922798829994618,25,up,up,0.5366642999997566,0.8001344978646163,,experiment,cRDM,2.0,,,,1415.7301558,27,27,female,True,14157,14162,False,False,expiration,expiration
531,0.4922798829994618,25,down,down,0.6816286000002947,0.3021243944203262,,experiment,cRDM,2.0,,,,1416.8300943,27,27,female,True,14168,14175,False,False,inspiration,inspiration
532,0.4922798829994618,25,down,down,0.6760764999999083,1.3266592521494829,,experiment,cRDM,2.0,,,,1419.0966452000002,27,27,female,True,14190,14197,False,False,expiration,expiration
533,0.4922798829994618,25,down,down,0.5365116999996644,1.1846272173973469,,experiment,cRDM,2.0,,,,1421.2131968,27,27,female,True,14212,14217,False,False,expiration,expiration
534,0.4922798829994618,25,up,up,0.4696094999999332,0.7959341442066528,,experiment,cRDM,2.0,,,,1422.8131426,27,27,female,True,14228,14233,False,False,expiration,inspiration
535,0.4922798829994618,25,up,up,0.5313656000002993,1.7085547856058798,,experiment,cRDM,2.0,,,,1425.2464117,27,27,female,True,14252,14257,False,False,expiration,expiration
536,0.4922798829994618,25,up,up,0.4976744000000508,0.6678754232524046,,experiment,cRDM,2.0,,,,1426.7130246000004,27,27,female,True,14267,14272,False,False,inspiration,expiration
537,0.4922798829994618,25,down,down,0.5920375000000604,1.4513614204534528,,experiment,cRDM,2.0,,,,1428.9296332000001,27,27,female,True,14289,14295,False,False,inspiration,inspiration
538,0.4922798829994618,25,down,up,0.4998309999996309,0.8751130819083488,,experiment,cRDM,2.0,,,,1430.6628752,27,27,female,True,14306,14311,False,False,expiration,expiration
539,0.4922798829994618,25,up,up,0.4906243999998878,1.8680666172199405,,experiment,cRDM,2.0,,,,1433.2960995,27,27,female,True,14332,14337,False,False,expiration,expiration
540,0.4922798829994618,25,down,down,0.6063411000000087,1.1264848597133053,,experiment,cRDM,2.0,,,,1435.1793774000002,27,27,female,True,14351,14357,False,False,inspiration,inspiration
541,0.4922798829994618,25,up,up,0.4324212000001353,1.1770287947878617,,experiment,cRDM,2.0,,,,1437.2293132000002,27,27,female,True,14372,14376,False,False,expiration,expiration
542,0.4922798829994618,25,up,up,0.4918603999999505,0.5138961552611704,,experiment,cRDM,2.0,,,,1438.4459171,27,27,female,True,14384,14389,False,False,inspiration,inspiration
