,stimLvl,stimTime,rand,response,rt,precedingITI,trialNumber,trialType,stimuli,block,estIntens,estThres,estSlope,trialStart,subject,age,gender,headRest,onset,responsI,manBadOnset,manBadRespons,onset_phase,respons_phase
0,0.9,100,down,,,1.1772034987208682,,introTrial,cRDM,,,,,228.84784170007333,66,25,female,True,2287,0,False,False,expiration,0
1,150.0,100,F,,,0.7424071456864051,,introTrial,emotion,,,,,233.58122910000387,66,25,female,True,2335,0,False,False,expiration,0
2,0.9,25,up,up,0.8631130999419838,1.4844260355360663,,tutorial,cRDM,,,,,275.7127400999889,66,25,female,True,2756,2765,False,False,expiration,expiration
3,0.9,25,up,down,0.6385521999327466,0.9979485993934888,,tutorial,cRDM,,,,,277.87927949999,66,25,female,True,2778,2784,False,False,inspiration,inspiration
4,0.9,25,down,down,0.7847123999381438,1.3763681840950728,,tutorial,cRDM,,,,,280.17914949997794,66,25,female,True,2801,2809,False,False,expiration,inspiration
5,0.9,25,up,up,0.745693999924697,0.6976098001156924,,tutorial,cRDM,,,,,281.9291949999752,66,25,female,True,2818,2825,False,False,expiration,expiration
6,0.9,25,down,down,0.5506931999698281,1.5320264190883508,,tutorial,cRDM,,,,,284.47912510007154,66,25,female,True,2844,2850,False,False,inspiration,expiration
7,0.9,25,down,down,0.5111511999275535,0.9403997715268744,,tutorial,cRDM,,,,,286.2456731999992,66,25,female,True,2861,2866,False,False,expiration,expiration
8,0.9,25,down,down,0.3671342000598088,1.2118981450242317,,tutorial,cRDM,,,,,288.22894990001805,66,25,female,True,2881,2885,False,False,expiration,expiration
9,0.9,25,down,down,0.4939455999992788,0.470830333712556,,tutorial,cRDM,,,,,289.37889280007215,66,25,female,True,2893,2898,False,False,expiration,expiration
10,0.9,25,up,up,0.38383649999741465,1.0751212841807083,,tutorial,cRDM,,,,,291.21216400002595,66,25,female,True,2911,2915,False,False,inspiration,expiration
11,0.9,25,up,down,0.4167613999452442,1.86957024788194,,tutorial,cRDM,,,,,293.7787839000812,66,25,female,True,2937,2941,False,False,inspiration,inspiration
12,200.0,25,M,up,0.5961470999754965,1.8253989749247683,,tutorial,emotion,,,,,303.9616956000682,66,25,female,True,3039,3045,False,False,inspiration,inspiration
13,200.0,25,M,up,0.6486445000628009,1.2856472559372123,,tutorial,emotion,,,,,306.1282913000323,66,25,female,True,3060,3066,False,False,expiration,expiration
14,200.0,25,F,up,0.4529632000485435,0.3738912043004479,,tutorial,emotion,,,,,307.44490000000224,66,25,female,True,3073,3078,False,False,inspiration,inspiration
15,0.0,25,F,down,0.4819621000206098,0.9511675581609096,,tutorial,emotion,,,,,309.19487280002795,66,25,female,True,3091,3096,False,False,expiration,expiration
16,0.0,25,M,down,0.5828480999916792,1.6714233229180928,,tutorial,emotion,,,,,311.62807279999834,66,25,female,True,3115,3121,False,False,inspiration,expiration
17,200.0,25,F,down,0.3836501999758184,1.6540545968451736,,tutorial,emotion,,,,,314.16117249999667,66,25,female,True,3141,3145,False,False,inspiration,inspiration
18,0.0,25,M,down,0.7839284000219777,1.469735264996298,,tutorial,emotion,,,,,316.32791740004905,66,25,female,True,3162,3170,False,False,trough,inspiration
19,200.0,25,M,up,0.41676870000083,1.5393945488625504,,tutorial,emotion,,,,,318.9278099000221,66,25,female,True,3188,3192,False,False,expiration,expiration
20,0.0,25,F,down,0.5884172000223771,0.3096037978016409,,tutorial,emotion,,,,,319.94444670004304,66,25,female,True,3198,3204,False,False,inspiration,inspiration
21,0.0,25,F,up,0.3668293000664562,1.7584113258001084,,tutorial,emotion,,,,,322.5776868000394,66,25,female,True,3225,3229,False,False,inspiration,inspiration
22,0.29,25,up,up,0.5003540000179783,0.9786158474792256,,psi_staircase_training,cRDM,,0.25,0.25693124029946324,0.10500000000000002,336.3604836000595,66,25,female,True,3362,3367,False,False,expiration,expiration
23,0.25,25,up,up,0.5295318000717089,1.7090069010727869,,psi_staircase_training,cRDM,,0.21910266653183127,0.2260132002683493,0.10468632033873933,338.8603264000267,66,25,female,True,3388,3393,False,False,inspiration,expiration
24,0.21,25,down,down,0.333941699936986,1.4054943373021895,,psi_staircase_training,cRDM,,0.1900540959403307,0.19684979615540016,0.10294672984249993,341.0770386999938,66,25,female,True,3410,3413,False,False,expiration,trough
25,0.18,25,down,up,0.4002371999667957,1.4514668858787632,,psi_staircase_training,cRDM,,0.1635257589279754,0.1701521334256793,0.100381647756865,343.2102624999825,66,25,female,True,3431,3435,False,False,expiration,expiration
26,0.28,25,up,up,0.6029010999482125,0.6645039667745548,,psi_staircase_training,cRDM,,0.2462894156509761,0.25367687443104303,0.11191116429293203,344.56020329997415,66,25,female,True,3445,3451,False,False,expiration,inspiration
27,0.26,25,down,down,0.5883786999620497,1.0225986348718656,,psi_staircase_training,cRDM,,0.2240209245171441,0.23127202108978026,0.10984543995477343,346.443484700052,66,25,female,True,3463,3469,False,False,expiration,expiration
28,0.23,25,up,up,0.3672052000183612,1.0901538418661505,,psi_staircase_training,cRDM,,0.2047781477371872,0.21182460465655809,0.10674539397966608,348.39339340000885,66,25,female,True,3483,3487,False,False,inspiration,inspiration
29,0.23,25,down,down,0.5348290000110865,1.872458718739613,,psi_staircase_training,cRDM,,0.1874201716315257,0.19431844658589745,0.10450061445209473,350.95997570001055,66,25,female,True,3509,3514,False,False,trough,inspiration
30,0.21,25,down,down,0.4716910999268293,1.926032957858529,,psi_staircase_training,cRDM,,0.17345971586379055,0.18012712878884973,0.10100333084475896,353.69319770007866,66,25,female,True,3536,3541,False,False,expiration,inspiration
31,0.17,25,up,up,0.3839504999341443,0.8367916066002947,,psi_staircase_training,cRDM,,0.16045966703622236,0.16702796679355406,0.09950188490409588,355.2765065000858,66,25,female,True,3552,3556,False,False,expiration,expiration
32,0.17,25,down,down,0.44172440003603697,0.7201686397195184,,psi_staircase_training,cRDM,,0.14444951683624788,0.15146531287032866,0.10628091824136077,356.69310680008493,66,25,female,True,3566,3570,False,False,expiration,inspiration
33,0.16,25,down,up,0.6491279000183567,0.4966436289961131,,psi_staircase_training,cRDM,,0.129450188150751,0.13674374107005438,0.11048860282425356,357.9097066000104,66,25,female,True,3578,3584,False,False,inspiration,expiration
34,0.22,25,down,down,0.4578079000348225,1.2488607794722917,,psi_staircase_training,cRDM,,0.17396020279295998,0.1807572427427678,0.10296702522131353,360.09302520006895,66,25,female,True,3600,3605,False,False,inspiration,inspiration
35,0.19,25,up,up,0.5939260000595823,0.7641468226989375,,psi_staircase_training,cRDM,,0.16555630165178742,0.1720733007365464,0.09872474107594877,361.5929112000158,66,25,female,True,3615,3621,False,False,expiration,expiration
36,0.16,25,up,down,0.4493176999967545,0.4494449095502534,,psi_staircase_training,cRDM,,0.15513670656628065,0.1618351803618357,0.10147386588050387,362.90951859997597,66,25,female,True,3628,3632,False,False,trough,inspiration
37,0.21,25,down,up,0.8300496999872848,1.6000571357345816,,psi_staircase_training,cRDM,,0.18313687507792384,0.1883987685763001,0.07971139268859187,365.2427756000543,66,25,female,True,3651,3659,False,False,expiration,expiration
38,0.24,25,down,down,0.5761857000179589,0.827468124169856,,psi_staircase_training,cRDM,,0.21515928202171292,0.22213787709882407,0.10571736823976664,367.19272250006907,66,25,female,True,3671,3677,False,False,inspiration,expiration
39,0.24,25,up,up,0.5251896999543533,0.36523166940244095,,psi_staircase_training,cRDM,,0.2053650410849048,0.2119585503178784,0.0998837783067252,368.3926570999902,66,25,female,True,3683,3688,False,False,expiration,expiration
40,0.24,25,up,down,0.6062471999321133,0.3631115613543296,,psi_staircase_training,cRDM,,0.19789175278788024,0.20406981741819866,0.09359028949460403,369.5426228999859,66,25,female,True,3694,3700,False,False,trough,inspiration
41,0.27,25,up,up,0.4659474000800401,0.4528315535314963,,psi_staircase_training,cRDM,,0.23132750797040105,0.2400810948814455,0.13260637143554851,370.8759336000076,66,25,female,True,3708,3713,False,False,expiration,expiration
42,0.27,25,up,up,0.4553609000286088,1.7201877174210405,,psi_staircase_training,cRDM,,0.2203708860177558,0.2289025757961693,0.1292448952899216,373.3424703000346,66,25,female,True,3732,3737,False,False,inspiration,expiration
43,0.26,25,down,down,0.4994949999963865,1.5677905903437868,,psi_staircase_training,cRDM,,0.21138039219384566,0.21964479402483356,0.12519580259263532,375.642395199975,66,25,female,True,3755,3760,False,False,inspiration,inspiration
44,0.26,25,down,down,0.4398732000263408,1.9329412422077807,,psi_staircase_training,cRDM,,0.20379778156580103,0.21177970242570535,0.1209165537594853,378.35895020002505,66,25,female,True,3783,3787,False,False,inspiration,inspiration
45,0.22,25,down,down,0.5468804000411183,1.0256205911883416,,psi_staircase_training,cRDM,,0.19772507095795916,0.20540085095255625,0.11627888582871755,380.10895120003266,66,25,female,True,3800,3805,False,False,expiration,expiration
46,0.23,25,up,up,0.4776823000283912,1.3711554129833847,,psi_staircase_training,cRDM,,0.18966634722858214,0.197443340115392,0.11781214008382684,382.29214490007143,66,25,female,True,3822,3827,False,False,peak,expiration
47,0.23,25,up,down,0.367468300042674,0.3645603308998423,,psi_staircase_training,cRDM,,0.1835111857756269,0.19115895997186605,0.1158546314816548,383.408778400044,66,25,female,True,3833,3837,False,False,expiration,expiration
48,0.27,25,down,up,0.30047819996252656,1.2025656355150085,,psi_staircase_training,cRDM,,0.20705680169489588,0.2155430260935716,0.12855614916856284,385.30870430008514,66,25,female,True,3852,3855,False,False,inspiration,expiration
49,0.32,25,down,down,0.4725162000395358,0.3767943284560972,,psi_staircase_training,cRDM,,0.2347020520953551,0.2446740435640657,0.15106374313637594,386.37532260001166,66,25,female,True,3863,3868,False,False,expiration,expiration
50,0.3,25,up,up,0.6319518999662249,1.2172627592155334,,psi_staircase_training,cRDM,,0.2270309923538173,0.2368790864381117,0.14918684595756732,388.3419296999928,66,25,female,True,3882,3888,False,False,inspiration,expiration
51,0.29,25,up,up,0.3168962999479845,1.0166164781959421,,psi_staircase_training,cRDM,,0.21999160595303,0.22970759520755946,0.14718561579874642,390.27545329998253,66,25,female,True,3902,3905,False,False,expiration,expiration
52,100.0,25,M,up,0.7375225001014769,1.0849701370462703,,psi_staircase_training,emotion,,100.0,100.0,25.00050000000001,396.6083062000107,66,25,female,True,3965,3972,False,False,expiration,expiration
53,55.0,25,M,up,0.6912629998987541,0.8686317031281654,,psi_staircase_training,emotion,,54.742809467541896,54.742809467541896,25.00050000000011,398.5915337000042,66,25,female,True,3985,3992,False,False,inspiration,expiration
54,32.0,25,F,down,0.40018250001594413,1.0540923015271504,,psi_staircase_training,emotion,,31.96124636773396,31.96124636773396,24.34819504815393,400.7248112000525,66,25,female,True,4006,4010,False,False,expiration,trough
55,45.0,25,F,down,0.3834943999536336,1.9065258262871263,,psi_staircase_training,emotion,,44.99556334762485,44.99556334762485,25.558429500417468,403.42471120005933,66,25,female,True,4033,4037,False,False,expiration,expiration
56,61.0,25,M,down,0.5235680000623688,1.7057384303212202,,psi_staircase_training,emotion,,56.13206424444672,56.13206424444672,26.18829273161237,405.9412798000267,66,25,female,True,4058,4063,False,False,expiration,expiration
57,78.0,25,F,down,0.3668197999941185,1.0196669254939628,,psi_staircase_training,emotion,,69.11769977000444,69.11769977000444,30.62543060292486,407.85787599999463,66,25,female,True,4078,4082,False,False,inspiration,inspiration
58,91.0,25,M,down,0.4930708999745548,1.9533524697038664,,psi_staircase_training,emotion,,82.5380829687941,82.5380829687941,33.58127212713992,410.6077776000602,66,25,female,True,4105,4110,False,False,expiration,inspiration
59,109.0,25,F,up,0.6094936000881717,1.177836836000972,,psi_staircase_training,emotion,,95.08638182775269,95.08638182775269,35.49151417204479,412.6243619000306,66,25,female,True,4125,4131,False,False,expiration,expiration
60,87.0,25,F,up,0.4690391999902204,1.2679016416413762,,psi_staircase_training,emotion,,87.63064795952933,87.63064795952933,34.14709212200348,414.8577508999733,66,25,female,True,4148,4153,False,False,inspiration,inspiration
61,79.0,25,M,down,0.4233011000324041,0.6999205598389552,,psi_staircase_training,emotion,,80.2284289564987,80.2284289564987,34.62937865585441,416.40754480008036,66,25,female,True,4163,4167,False,False,expiration,expiration
62,106.0,25,F,up,0.4784719999879599,0.42189637177128025,,psi_staircase_training,emotion,,85.93143555269224,85.93143555269224,34.521306756791375,417.65739489998674,66,25,female,True,4175,4180,False,False,trough,inspiration
63,73.0,25,F,up,0.3501845999853685,1.158144776962266,,psi_staircase_training,emotion,,82.64390346394603,82.64390346394603,33.325275167158686,419.6574253999861,66,25,female,True,4195,4199,False,False,expiration,expiration
64,56.0,25,F,down,0.6935186000773683,1.5007901987098475,,psi_staircase_training,emotion,,76.75664137950098,76.75664137950098,34.76704858881516,421.9573340000352,66,25,female,True,4218,4225,False,False,inspiration,expiration
65,103.0,25,M,up,0.5375571000622585,0.4886509948108397,,psi_staircase_training,emotion,,79.26239845539429,79.26239845539429,33.885723208940675,423.5073145000497,66,25,female,True,4234,4239,False,False,expiration,expiration
66,54.0,25,M,down,0.5570351999485865,1.4332289331521035,,psi_staircase_training,emotion,,77.1632172461766,77.1632172461766,32.899450382541005,425.87377539998846,66,25,female,True,4258,4264,False,False,expiration,expiration
67,104.0,25,F,up,0.5509837999707088,1.6707894012922448,,psi_staircase_training,emotion,,79.04934369738761,79.04934369738761,31.915528540822926,428.4569252000656,66,25,female,True,4284,4290,False,False,peak,expiration
68,54.0,25,F,up,0.45216820004861796,1.9613756543263308,,psi_staircase_training,emotion,,77.42592390914814,77.42592390914814,30.867871648225474,431.3236811000388,66,25,female,True,4312,4317,False,False,inspiration,expiration
69,46.0,25,M,down,0.5905537999933586,0.7535854809055265,,psi_staircase_training,emotion,,72.23977595910429,72.23977595910429,34.430937268722225,432.94028580002487,66,25,female,True,4328,4334,False,False,expiration,inspiration
70,101.0,25,M,up,0.3835202999180183,1.1977922600407769,,psi_staircase_training,emotion,,73.77855422646091,73.77855422646091,33.59131972743939,435.07338519999763,66,25,female,True,4350,4354,False,False,expiration,expiration
71,45.0,25,M,down,0.4766882000258192,0.5852716700297904,,psi_staircase_training,emotion,,72.44687481279584,72.44687481279584,32.77272844748694,436.4401506000431,66,25,female,True,4363,4368,False,False,expiration,inspiration
72,101.0,25,M,up,0.5650655999779701,1.2438324956278577,,psi_staircase_training,emotion,,73.69534785217634,73.69534785217634,31.900994849274262,438.5067514000693,66,25,female,True,4384,4390,False,False,expiration,expiration
73,46.0,25,F,down,0.6744807000504807,0.4110759717770115,,psi_staircase_training,emotion,,72.57873235982485,72.57873235982485,31.053213664821506,439.8233734000242,66,25,female,True,4397,4404,False,False,inspiration,inspiration
74,101.0,25,F,up,0.5369347000960261,0.7599717723968792,,psi_staircase_training,emotion,,73.66226648256307,73.66226648256307,30.1627898903163,441.58997490000917,66,25,female,True,4415,4420,False,False,expiration,expiration
75,46.0,25,F,up,0.5002056000521407,0.7406420587655678,,psi_staircase_training,emotion,,72.72444870637267,72.72444870637267,29.311175202074367,443.20659700001124,66,25,female,True,4431,4436,False,False,inspiration,inspiration
76,39.0,25,M,down,0.5143606000347063,1.9021098314978235,,psi_staircase_training,emotion,,68.7292261113713,68.7292261113713,33.15596794645364,445.97341850004165,66,25,female,True,4459,4464,False,False,trough,inspiration
77,40.0,25,M,down,0.4169593999395147,1.2862898522155688,,psi_staircase_training,emotion,,69.6950214051468,69.6950214051468,32.387891108784736,448.1729091000743,66,25,female,True,4481,4485,False,False,expiration,expiration
78,99.0,25,F,up,0.5501720999600366,1.569720652576274,,psi_staircase_training,emotion,,70.5566572247185,70.5566572247185,31.650755019478375,450.539672599989,66,25,female,True,4504,4510,False,False,peak,expiration
79,40.0,25,F,down,0.574607599992305,1.1314602779169076,,psi_staircase_training,emotion,,69.70363858057709,69.70363858057709,30.89785817068807,452.5562457999913,66,25,female,True,4524,4530,False,False,inspiration,inspiration
80,99.0,25,M,up,0.5962638000492007,0.5277946152003188,,psi_staircase_training,emotion,,70.44688643573964,70.44688643573964,30.166697627156534,453.9895489000482,66,25,female,True,4539,4545,False,False,expiration,expiration
81,41.0,25,M,down,0.453769400017336,0.7195305551170129,,psi_staircase_training,emotion,,69.70720005950908,69.70720005950908,29.42670423942996,455.70611290005036,66,25,female,True,4556,4561,False,False,inspiration,inspiration
82,0.29,25,up,up,0.5794139000354335,0.5199861724172419,,psi_staircase,cRDM,,0.25,0.25693124029946324,0.10500000000000002,475.0054387000855,66,25,female,True,4749,4755,False,False,expiration,expiration
83,0.25,25,up,up,0.5754754999652505,0.9151082182157144,,psi_staircase,cRDM,,0.21910266653183127,0.2260132002683493,0.10468632033873933,476.7553430000553,66,25,female,True,4766,4772,False,False,inspiration,inspiration
84,0.21,25,down,down,0.5172622000100091,0.9421986239575396,,psi_staircase,cRDM,,0.1900540959403307,0.19684979615540016,0.10294672984249993,478.53861160005914,66,25,female,True,4784,4789,False,False,expiration,expiration
85,0.18,25,down,down,0.7185826000059023,0.3729205379730208,,psi_staircase,cRDM,,0.1635257589279754,0.1701521334256793,0.100381647756865,479.7052454000805,66,25,female,True,4796,4803,False,False,expiration,inspiration
86,0.15,25,up,up,0.5880522999214008,1.3842034875036977,,psi_staircase,cRDM,,0.14018955742449365,0.14660133511875031,0.0971307628663642,482.07183859997895,66,25,female,True,4820,4826,False,False,expiration,expiration
87,0.13,25,down,down,0.4914093000115827,1.95960225103632,,psi_staircase,cRDM,,0.11987606021454796,0.12605547676183335,0.09361076941961036,484.8884289000417,66,25,female,True,4848,4853,False,False,expiration,expiration
88,0.11,25,up,up,0.5731686000945047,1.2710353329618105,,psi_staircase,cRDM,,0.10257735236965487,0.10849103445698656,0.08958521019937955,486.921662800014,66,25,female,True,4868,4874,False,False,inspiration,inspiration
89,0.09,25,down,down,0.5208233000012115,1.0444171959981918,,psi_staircase,cRDM,,0.08784432595859408,0.09348182153209693,0.08540131486476357,488.80490960006136,66,25,female,True,4887,4892,False,False,expiration,expiration
90,0.08,25,down,up,0.5023547000018879,0.93668245530757,,psi_staircase,cRDM,,0.07518520921180863,0.0805556301471181,0.08135545354720439,490.52149190008635,66,25,female,True,4904,4909,False,False,inspiration,inspiration
91,0.13,25,up,down,0.6377065000124276,0.38446123780786107,,psi_staircase,cRDM,,0.1145374077699418,0.12103712105675656,0.09846288191283688,491.6881377000828,66,25,female,True,4916,4922,False,False,expiration,expiration
92,0.2,25,down,down,0.5927753000287339,1.3636734051709951,,psi_staircase,cRDM,,0.16369417802888606,0.17147461567943656,0.11786432413417668,493.9380417000503,66,25,female,True,4938,4944,False,False,inspiration,expiration
93,0.18,25,down,down,0.7512502000899985,0.7028790122899222,,psi_staircase,cRDM,,0.14776472512940192,0.1553323279426576,0.1146401309233758,495.50465040002024,66,25,female,True,4954,4962,False,False,expiration,inspiration
94,0.17,25,down,down,0.5956004000036046,1.693413599557644,,psi_staircase,cRDM,,0.13459040890498894,0.14192992255800918,0.1111848529658971,498.22121530002914,66,25,female,True,4981,4987,False,False,expiration,expiration
95,0.16,25,up,down,0.6060129000106826,1.6008957627114262,,psi_staircase,cRDM,,0.12388480587017295,0.13098314515159673,0.10753134970767243,500.68782310001546,66,25,female,True,5006,5012,False,False,expiration,expiration
96,0.21,25,up,up,0.4847721999976784,1.1626323344250402,,psi_staircase,cRDM,,0.16329045679626492,0.17137565343851344,0.12248105833263878,502.7210642000428,66,25,female,True,5026,5031,False,False,inspiration,inspiration
97,0.2,25,down,down,0.6072394000366329,0.6869284092754173,,psi_staircase,cRDM,,0.1515217636905059,0.15934942362217092,0.11857968520994312,504.15459120005835,66,25,female,True,5041,5047,False,False,expiration,expiration
98,0.2,25,down,down,0.6492357999086379,1.308124479841708,,psi_staircase,cRDM,,0.14222649882222474,0.14976739291772068,0.11423552579592235,506.3375702999765,66,25,female,True,5062,5068,False,False,inspiration,expiration
99,0.15,25,up,up,0.5103831000160426,0.4110152736599548,,psi_staircase,cRDM,,0.13523859123012774,0.14246479336929202,0.10946831906419474,507.65445340005687,66,25,female,True,5076,5081,False,False,expiration,expiration
100,0.14,25,up,down,0.5520146999042481,0.436747027881528,,psi_staircase,cRDM,,0.12507120003379035,0.13266625308593755,0.1150559692090336,508.8708266000031,66,25,female,True,5088,5094,False,False,inspiration,inspiration
101,0.2,25,up,up,0.4969973999541253,1.0607469085119,,psi_staircase,cRDM,,0.15177021866312787,0.15837950171766105,0.10012273283610183,510.7708062999882,66,25,female,True,5107,5112,False,False,expiration,expiration
102,0.19,25,up,up,0.2838522999081761,0.9661798173896056,,psi_staircase,cRDM,,0.146467061213726,0.1526762731841932,0.0940621344421636,512.487370399991,66,25,female,True,5124,5127,False,False,inspiration,inspiration
103,0.19,25,down,down,0.3839810999343172,1.180114539600931,,psi_staircase,cRDM,,0.14228779701746766,0.14813318025945252,0.08855056438541599,514.3537789999973,66,25,female,True,5143,5147,False,False,expiration,inspiration
104,0.15,25,down,down,0.5715800999896601,1.006687360895639,,psi_staircase,cRDM,,0.13938123131446442,0.14486394819637494,0.08305660281972685,516.037232200033,66,25,female,True,5159,5165,False,False,expiration,expiration
105,0.14,25,down,down,0.4992408000398427,0.5775120953467281,,psi_staircase,cRDM,,0.1312716819062016,0.13731123833614484,0.09149205593018453,517.4535715000238,66,25,female,True,5174,5179,False,False,inspiration,inspiration
106,0.13,25,up,up,0.4760908000171185,1.4243830647681577,,psi_staircase,cRDM,,0.12239353255221015,0.1291111815130176,0.10176434669844027,519.6537332000444,66,25,female,True,5196,5201,False,False,expiration,expiration
107,0.13,25,up,up,0.5881804999662563,0.3661712323149627,,psi_staircase,cRDM,,0.11330683135602555,0.12069916363646603,0.11198499199434132,520.7536610000534,66,25,female,True,5207,5213,False,False,inspiration,peak
108,0.13,25,down,down,0.4619215000420809,1.345474173687166,,psi_staircase,cRDM,,0.10475282368294997,0.11267953205565195,0.12008015061866514,522.9539052000036,66,25,female,True,5229,5234,False,False,expiration,inspiration
109,0.13,25,down,up,0.6399600999429822,0.6766622053799272,,psi_staircase,cRDM,,0.09704569860564917,0.10536265754668901,0.12599197994575484,524.3538800000679,66,25,female,True,5243,5249,False,False,expiration,expiration
110,0.13,25,up,up,0.6339578999904916,1.0245968095251272,,psi_staircase,cRDM,,0.11866306984317596,0.12614288572006122,0.1133102638403364,526.2868478000164,66,25,female,True,5262,5268,False,False,inspiration,inspiration
111,0.13,25,up,down,0.5160244000144303,0.9828354499189778,,psi_staircase,cRDM,,0.11073698648929617,0.11876714816636792,0.12164734443816998,528.1868027000455,66,25,female,True,5281,5286,False,False,expiration,expiration
112,0.15,25,down,down,0.5381033000303432,0.5135447884594299,,psi_staircase,cRDM,,0.13063772315803768,0.1375230739427129,0.10430482873994194,529.4867697000736,66,25,female,True,5294,5299,False,False,expiration,inspiration
113,0.13,25,up,up,0.4894985998980701,1.9608629768192056,,psi_staircase,cRDM,,0.1243104589023661,0.13150640390016435,0.1090099595634172,532.253301299992,66,25,female,True,5322,5327,False,False,expiration,inspiration
114,0.12,25,down,down,0.5108698999974877,0.4037717443624388,,psi_staircase,cRDM,,0.11706861280787235,0.1248523964616395,0.11791501208071532,533.4199204000179,66,25,female,True,5333,5338,False,False,inspiration,expiration
115,0.12,25,up,up,0.4576126999454573,0.6195893771147409,,psi_staircase,cRDM,,0.109978338272067,0.11830046778315255,0.12607030789736906,534.8032146000769,66,25,female,True,5347,5352,False,False,expiration,expiration
116,0.12,25,down,down,0.4570773000596091,1.2422797965080965,,psi_staircase,cRDM,,0.10336799399869306,0.11210649050250096,0.13237776981572544,536.7697283000451,66,25,female,True,5367,5372,False,False,inspiration,expiration
117,0.12,25,up,up,0.8047227000351995,0.8610850103240972,,psi_staircase,cRDM,,0.09734831225177863,0.10639333392750364,0.13702125953195846,538.3530804000329,66,25,female,True,5382,5390,False,False,expiration,expiration
118,0.12,25,down,down,0.7507726000621915,0.4867779490765785,,psi_staircase,cRDM,,0.09193585027284104,0.10119640153359052,0.14028627494764398,539.903013800038,66,25,female,True,5398,5406,False,False,inspiration,peak
119,0.12,25,up,up,0.8053232999518514,1.8667681466397748,,psi_staircase,cRDM,,0.08709020853564456,0.09649511005599967,0.14247300872165075,542.7694885000818,66,25,female,True,5427,5435,False,False,inspiration,inspiration
120,0.12,25,up,down,1.056219399906695,1.129511043119822,,psi_staircase,cRDM,,0.08274540060790309,0.09224103219064696,0.1438474606435613,544.9696075000102,66,25,female,True,5449,5460,False,False,expiration,inspiration
121,0.12,25,down,down,0.7741031999466941,1.3707259808085424,,psi_staircase,cRDM,,0.09665878379900113,0.10597242401509444,0.1410905091207885,547.6527328999947,66,25,female,True,5475,5483,False,False,expiration,expiration
122,0.12,25,down,down,0.8928559999912977,0.6385658356549275,,psi_staircase,cRDM,,0.09195740850285576,0.10142169908305612,0.1433726819423633,549.3360027000308,66,25,female,True,5492,5501,False,False,inspiration,expiration
123,0.12,25,down,down,0.6553111999528483,1.5888727836505867,,psi_staircase,cRDM,,0.08769284441839066,0.09725759711854938,0.14489456289582625,552.0694949000608,66,25,female,True,5520,5527,False,False,trough,inspiration
124,0.12,25,up,up,0.8713509000372142,1.8138199961923356,,psi_staircase,cRDM,,0.08380952286380565,0.09343750805958294,0.1458524595713266,554.8024746000301,66,25,female,True,5547,5556,False,False,expiration,inspiration
125,0.2,25,up,up,0.6597037999890745,0.589642871818709,,psi_staircase,cRDM,,0.08025443584684995,0.08991829294828674,0.14639587603526588,556.5190915000858,66,25,female,True,5564,5571,False,False,expiration,expiration
126,0.12,25,down,down,0.6351526000071317,0.8057779601209191,,psi_staircase,cRDM,,0.07852152511553477,0.08808424282625953,0.14486373523997592,558.2356855000835,66,25,female,True,5581,5587,False,False,inspiration,inspiration
127,0.19,25,down,down,0.765852399985306,0.4922783524553261,,psi_staircase,cRDM,,0.07535824767666713,0.08493927305190196,0.1451410744592941,559.6189797000261,66,25,female,True,5595,5603,False,False,expiration,expiration
128,0.15,25,down,down,0.5709909000433981,1.2849187279307723,,psi_staircase,cRDM,,0.0737300966648925,0.08321657658141175,0.14370882384667216,561.9188992000418,66,25,female,True,5618,5624,False,False,inspiration,expiration
129,0.11,25,up,down,0.5030567999929191,1.5541264387278133,,psi_staircase,cRDM,,0.0715171625141589,0.08094858944471925,0.1428748369589094,564.3188017000211,66,25,female,True,5642,5647,False,False,inspiration,inspiration
130,0.11,25,up,up,0.7528620000230148,0.6734472882141835,,psi_staircase,cRDM,,0.08188329706033533,0.09124769356302884,0.14185940615259868,565.7690053000115,66,25,female,True,5657,5665,False,False,expiration,expiration
131,0.11,25,up,up,0.6278027000371367,0.9113601995180745,,psi_staircase,cRDM,,0.07856999812779421,0.0880060341260644,0.14294465882175447,567.7020146000433,66,25,female,True,5676,5682,False,False,inspiration,inspiration
132,100.0,25,M,up,0.5620790000539273,1.3325789179978615,,psi_staircase,emotion,,100.0,100.0,25.00050000000001,581.8517487000207,66,25,female,True,5818,5824,False,False,expiration,expiration
133,55.0,25,M,down,0.6154301000060514,1.2371368808276335,,psi_staircase,emotion,,54.742809467541896,54.742809467541896,25.00050000000011,584.0014050999889,66,25,female,True,5839,5845,False,False,peak,expiration
134,79.0,25,F,down,0.6011281999526545,1.0139726351693703,,psi_staircase,emotion,,79.636070985635,79.636070985635,25.71326925488641,585.9846771999728,66,25,female,True,5859,5865,False,False,trough,inspiration
135,103.0,25,F,up,0.6662981999106705,1.9139727604001764,,psi_staircase,emotion,,97.61123893914808,97.61123893914808,26.1463337262867,588.8514833999798,66,25,female,True,5888,5895,False,False,expiration,expiration
136,87.0,25,M,down,0.6512995000230148,0.9053414155405576,,psi_staircase,emotion,,85.98876744579668,85.98876744579668,23.003056417783494,590.7844944000243,66,25,female,True,5907,5914,False,False,inspiration,expiration
137,95.0,25,F,up,0.6294775999849662,1.551505758002656,,psi_staircase,emotion,,95.05640406123078,95.05640406123078,22.150603223582724,593.3513305999804,66,25,female,True,5933,5939,False,False,expiration,inspiration
138,84.0,25,M,up,0.5491157999495044,1.2046764225313942,,psi_staircase,emotion,,88.41622646561945,88.41622646561945,20.597853251064073,595.5676808999851,66,25,female,True,5955,5960,False,False,expiration,expiration
139,69.0,25,F,down,0.6606694998918101,1.257798854500656,,psi_staircase,emotion,,80.77555766288957,80.77555766288957,26.333791451230713,597.7511621000012,66,25,female,True,5977,5984,False,False,inspiration,expiration
140,71.0,25,F,down,0.6503158999839798,0.3729480130454437,,psi_staircase,emotion,,84.74879117486184,84.74879117486184,23.77356239496901,599.1675131000811,66,25,female,True,5991,5998,False,False,expiration,expiration
141,100.0,25,M,down,0.5023637999547645,1.04981223106961,,psi_staircase,emotion,,87.29210955575294,87.29210955575294,21.562133495043245,601.2174326999811,66,25,female,True,6011,6016,False,False,inspiration,expiration
142,113.0,25,F,up,0.4441186999902129,1.6279182756178994,,psi_staircase,emotion,,94.11703475576908,94.11703475576908,28.903639894239532,603.7006978000281,66,25,female,True,6036,6040,False,False,inspiration,inspiration
143,111.0,25,F,up,0.4904665000503883,0.3712707515027137,,psi_staircase,emotion,,91.48602090020754,91.48602090020754,27.002867946564997,604.8673171000555,66,25,female,True,6048,6053,False,False,expiration,expiration
144,71.0,25,F,up,0.43587859999388456,1.3916868158323326,,psi_staircase,emotion,,89.55638867549764,89.55638867549764,25.291372727211513,607.0839177999877,66,25,female,True,6070,6074,False,False,inspiration,inspiration
145,61.0,25,M,down,0.6292997000273317,1.4438490963124808,,psi_staircase,emotion,,83.89307316758699,83.89307316758699,31.01907965746784,609.3004952999763,66,25,female,True,6092,6098,False,False,expiration,expiration
146,62.0,25,M,down,0.4466865999856964,0.3568688400144209,,psi_staircase,emotion,,85.72328575993184,85.72328575993184,29.72077411474671,610.6671001000797,66,25,female,True,6106,6110,False,False,inspiration,inspiration
147,110.0,25,F,up,0.6140459999442099,1.500268562530375,,psi_staircase,emotion,,87.18328723606069,87.18328723606069,28.511125938145547,612.9836716999997,66,25,female,True,6129,6135,False,False,expiration,expiration
148,62.0,25,F,down,0.6022111000493169,1.3418714977892952,,psi_staircase,emotion,,85.76346623705227,85.76346623705227,27.197015453758944,615.2835913000163,66,25,female,True,6152,6158,False,False,expiration,expiration
149,109.0,25,M,up,0.6952876000432298,1.9089543851317827,,psi_staircase,emotion,,86.88994654544882,86.88994654544882,25.987147752376483,618.1335076000541,66,25,female,True,6180,6187,False,False,inspiration,expiration
150,64.0,25,M,down,0.7427318999543786,1.3315390825833386,,psi_staircase,emotion,,85.75508865905648,85.75508865905648,24.710253301127292,620.5500538999912,66,25,female,True,6205,6212,False,False,expiration,inspiration
151,108.0,25,M,up,0.6133370000170544,1.5629300854485226,,psi_staircase,emotion,,86.70314041843235,86.70314041843235,23.539236832992817,623.2664485999849,66,25,female,True,6232,6238,False,False,expiration,expiration
152,65.0,25,M,down,0.6039881999604404,1.8951558804568944,,psi_staircase,emotion,,85.78979871305282,85.78979871305282,22.35502441671915,626.1667998000047,66,25,female,True,6261,6267,False,False,expiration,expiration
153,106.0,25,F,down,0.7111626999685541,1.324311114027793,,psi_staircase,emotion,,86.56385586926676,86.56385586926676,21.285002213410454,628.466682300088,66,25,female,True,6284,6291,False,False,inspiration,expiration
154,115.0,25,F,up,0.6577690999256447,1.4332370988692953,,psi_staircase,emotion,,90.16121594505294,90.16121594505294,26.190258340486864,630.9830260999734,66,25,female,True,6309,6316,False,False,inspiration,inspiration
155,114.0,25,F,up,0.6018995000049472,1.2247365425243912,,psi_staircase,emotion,,89.33221440621952,89.33221440621952,25.119485187025138,633.2329218999947,66,25,female,True,6331,6337,False,False,expiration,expiration
156,66.0,25,M,down,0.7712088999105617,0.911430877457172,,psi_staircase,emotion,,88.63748570936066,88.63748570936066,24.142571792485214,635.0995426999871,66,25,female,True,6350,6358,False,False,inspiration,expiration
157,113.0,25,M,up,0.4740895999129862,1.9582298163783132,,psi_staircase,emotion,,89.34428960502115,89.34428960502115,23.1865623074409,638.1827462000074,66,25,female,True,6381,6386,False,False,inspiration,expiration
158,67.0,25,F,down,0.6111701000481844,1.229714576876847,,psi_staircase,emotion,,88.75664099656592,88.75664099656592,22.30056069552218,640.2826812000712,66,25,female,True,6402,6408,False,False,expiration,inspiration
159,111.0,25,F,up,0.5845993000548333,1.5126357772772592,,psi_staircase,emotion,,89.36840351051866,89.36840351051866,21.440207313647363,642.7492444000673,66,25,female,True,6426,6432,False,False,expiration,expiration
160,69.0,25,M,down,0.5819490998983383,0.9183544536899146,,psi_staircase,emotion,,88.83655808368981,88.83655808368981,20.64713159024895,644.6158424000022,66,25,female,True,6445,6451,False,False,inspiration,expiration
161,71.0,25,M,down,0.6646909000119194,1.0336306017733514,,psi_staircase,emotion,,89.40569794833858,89.40569794833858,19.878396649487406,646.5990956000752,66,25,female,True,6465,6472,False,False,expiration,inspiration
162,109.0,25,F,up,0.7050879000453278,0.853701675536098,,psi_staircase,emotion,,89.94671532528767,89.94671532528767,19.178529341210037,648.4656976000406,66,25,female,True,6484,6491,False,False,expiration,expiration
163,73.0,25,M,down,1.1156230999622494,0.572369634159748,,psi_staircase,emotion,,89.45446476238666,89.45446476238666,18.50280033682917,650.0821898999857,66,25,female,True,6500,6511,False,False,inspiration,expiration
164,107.0,25,F,up,0.5009662000229582,1.2772967647071125,,psi_staircase,emotion,,89.98376789907302,89.98376789907302,17.885776129698648,652.8488182000582,66,25,female,True,6528,6533,False,False,expiration,inspiration
165,75.0,25,M,down,0.6323278999188915,1.8919099967065407,,psi_staircase,emotion,,89.51260164635052,89.51260164635052,17.300318941143793,655.6154590999939,66,25,female,True,6555,6561,False,False,expiration,inspiration
166,77.0,25,F,up,0.7361193000106141,0.8204866111548348,,psi_staircase,emotion,,90.04267592374802,90.04267592374802,16.7562527472464,657.4486542000668,66,25,female,True,6574,6581,False,False,expiration,expiration
167,106.0,25,M,up,0.5245152000570671,1.621217528280659,,psi_staircase,emotion,,88.11968441314579,88.11968441314579,18.526764830234534,660.1652911000419,66,25,female,True,6601,6606,False,False,peak,expiration
168,105.0,25,F,up,0.5906131999799982,1.1220914370383814,,psi_staircase,emotion,,87.69047560768986,87.69047560768986,17.9636463097636,662.1652049000842,66,25,female,True,6621,6627,False,False,inspiration,inspiration
169,70.0,25,M,down,0.6210685999831185,1.5388451187186505,,psi_staircase,emotion,,87.29109434188732,87.29109434188732,17.455530604403858,664.6317774000345,66,25,female,True,6645,6651,False,False,expiration,inspiration
170,103.0,25,M,up,0.5701288999989629,1.9310680290439963,,psi_staircase,emotion,,87.66592885170061,87.66592885170061,16.978182085975487,667.5316492000129,66,25,female,True,6674,6680,False,False,expiration,trough
171,71.0,25,F,down,0.5712930000154302,1.0947432576725251,,psi_staircase,emotion,,87.2591372855059,87.2591372855059,16.530893096608327,669.548524599988,66,25,female,True,6695,6701,False,False,expiration,expiration
172,102.0,25,F,up,0.7957510000560433,1.306896198561741,,psi_staircase,emotion,,87.61249722907247,87.61249722907247,16.11604282290322,671.848036200041,66,25,female,True,6718,6726,False,False,inspiration,expiration
173,100.0,25,F,up,0.6246601999737322,0.8982688418971214,,psi_staircase,emotion,,87.22066827275354,87.22066827275354,15.72140055636023,673.8981247000629,66,25,female,True,6738,6744,False,False,inspiration,inspiration
174,73.0,25,M,down,0.6283982000313699,1.2066570945826631,,psi_staircase,emotion,,86.80796123665442,86.80796123665442,15.357797903520794,676.081362200086,66,25,female,True,6760,6766,False,False,expiration,expiration
175,99.0,25,M,up,0.7295731999911368,1.1134317167476633,,psi_staircase,emotion,,87.17391190172978,87.17391190172978,15.002430887128742,678.181279100012,66,25,female,True,6781,6788,False,False,expiration,expiration
176,97.0,25,F,up,0.5393012999556959,1.784499911363005,,psi_staircase,emotion,,86.76675837225979,86.76675837225979,14.673440055618393,681.0645142000867,66,25,female,True,6810,6815,False,False,inspiration,expiration
177,96.0,25,F,up,0.5696467000525445,0.3351793180264152,,psi_staircase,emotion,,86.327760952236,86.327760952236,14.368508209387054,682.3311133000534,66,25,female,True,6822,6828,False,False,expiration,expiration
178,95.0,25,F,up,0.5900749999564141,1.041999439529045,,psi_staircase,emotion,,85.88875832908552,85.88875832908552,14.078556853166127,684.2977302999934,66,25,female,True,6842,6848,False,False,inspiration,expiration
179,94.0,25,M,up,0.5468165000202134,0.3671850631761928,,psi_staircase,emotion,,85.447067795443,85.447067795443,13.79962457364186,685.6309982000383,66,25,female,True,6855,6860,False,False,expiration,expiration
180,93.0,25,M,up,0.5328793999506161,0.6510870429104498,,psi_staircase,emotion,,85.00035437021458,85.00035437021458,13.527747947326198,687.1809353000717,66,25,female,True,6871,6876,False,False,inspiration,inspiration
181,92.0,25,M,down,0.7355558000272141,0.6069445308490262,,psi_staircase,emotion,,84.54659430009107,84.54659430009107,13.258804433095625,688.7141956000122,66,25,female,True,6886,6893,False,False,expiration,expiration
182,0.07550963608205885,25,down,down,0.7661146000027657,0.6919910103550349,,experiment,cRDM,0.0,,,,694.830669200048,66,25,female,True,6947,6955,False,False,expiration,expiration
183,0.07550963608205885,25,up,down,1.1462842000182718,1.9613397288297765,,experiment,cRDM,0.0,,,,697.8305334000615,66,25,female,True,6977,6988,False,False,expiration,expiration
184,0.07550963608205885,25,down,down,1.0392801000270993,0.838674236076485,,experiment,cRDM,0.0,,,,700.0805158000439,66,25,female,True,7000,7010,False,False,inspiration,expiration
185,0.07550963608205885,25,up,up,1.3703588000498712,0.4033692226265455,,experiment,cRDM,0.0,,,,701.7804009000537,66,25,female,True,7017,7031,False,False,expiration,expiration
186,0.07550963608205885,25,down,down,0.8414005999220535,0.5011903570601336,,experiment,cRDM,0.0,,,,703.9136456000851,66,25,female,True,7038,7046,False,False,inspiration,expiration
187,0.07550963608205885,25,down,down,0.9355123999994248,0.6637952454831662,,experiment,cRDM,0.0,,,,705.6802705000156,66,25,female,True,7056,7065,False,False,expiration,trough
188,0.07550963608205885,25,up,up,0.7622733999742195,0.9336273890897158,,experiment,cRDM,0.0,,,,707.8135051000862,66,25,female,True,7077,7085,False,False,expiration,expiration
189,0.07550963608205885,25,down,down,1.0335606000153348,0.3073389058758467,,experiment,cRDM,0.0,,,,709.1301320000784,66,25,female,True,7090,7100,False,False,expiration,inspiration
190,0.07550963608205885,25,up,up,1.0141192000592127,1.7699649025008195,,experiment,cRDM,0.0,,,,712.1966925000306,66,25,female,True,7121,7131,False,False,expiration,inspiration
191,0.07550963608205885,25,up,down,1.1248578999657184,1.1601425598993171,,experiment,cRDM,0.0,,,,714.629930700059,66,25,female,True,7145,7156,False,False,expiration,expiration
192,0.07550963608205885,25,down,down,0.7106006999965757,1.6508252987756198,,experiment,cRDM,0.0,,,,717.6632168000798,66,25,female,True,7176,7183,False,False,expiration,expiration
193,0.07550963608205885,25,up,down,1.1870153999188915,1.032054749174394,,experiment,cRDM,0.0,,,,719.6797631999942,66,25,female,True,7196,7208,False,False,inspiration,expiration
194,0.07550963608205885,25,up,up,1.3845164000522343,0.6085983768977188,,experiment,cRDM,0.0,,,,721.746318200021,66,25,female,True,7216,7230,False,False,expiration,inspiration
195,0.07550963608205885,25,up,up,0.9581264000153168,0.5788794940980306,,experiment,cRDM,0.0,,,,723.9796372000128,66,25,female,True,7239,7249,False,False,expiration,expiration
196,0.07550963608205885,25,down,down,0.9265801999717952,0.4353991625282839,,experiment,cRDM,0.0,,,,725.6461847000755,66,25,female,True,7255,7264,False,False,inspiration,inspiration
197,0.07550963608205885,25,down,down,0.945308400085196,1.2529435970034348,,experiment,cRDM,0.0,,,,728.079458000022,66,25,female,True,7280,7289,False,False,trough,inspiration
198,0.07550963608205885,25,up,up,0.8737725999671966,1.904418128307477,,experiment,cRDM,0.0,,,,731.1959996999941,66,25,female,True,7311,7320,False,False,trough,inspiration
199,0.07550963608205885,25,up,down,1.2388471000595018,0.5551615560644794,,experiment,cRDM,0.0,,,,732.8959378000583,66,25,female,True,7328,7340,False,False,expiration,expiration
200,0.07550963608205885,25,down,down,1.049223200068809,0.7710643440179237,,experiment,cRDM,0.0,,,,735.1625510000157,66,25,female,True,7351,7361,False,False,inspiration,expiration
201,0.07550963608205885,25,down,down,0.9796961999963968,0.953499730390142,,experiment,cRDM,0.0,,,,737.4291086000158,66,25,female,True,7373,7383,False,False,expiration,inspiration
202,0.07550963608205885,25,up,up,0.8254222000250593,1.3305913918294698,,experiment,cRDM,0.0,,,,740.0123537000037,66,25,female,True,7399,7407,False,False,expiration,expiration
203,0.07550963608205885,25,down,down,0.8994772000005469,0.9134869797818056,,experiment,cRDM,0.0,,,,742.0122737999773,66,25,female,True,7419,7428,False,False,inspiration,expiration
204,0.07550963608205885,25,up,down,0.8179099999833852,0.8131527911233722,,experiment,cRDM,0.0,,,,743.9788983999753,66,25,female,True,7439,7447,False,False,expiration,inspiration
205,0.07550963608205885,25,down,up,0.7503544999053702,1.2340200384731514,,experiment,cRDM,0.0,,,,746.2954518999904,66,25,female,True,7462,7470,False,False,expiration,expiration
206,0.07550963608205885,25,down,down,0.6320911999791861,1.7700608848864066,,experiment,cRDM,0.0,,,,749.0787022000877,66,25,female,True,7490,7496,False,False,expiration,expiration
207,0.07550963608205885,25,up,down,0.5315709999995306,1.5885421814928409,,experiment,cRDM,0.0,,,,751.545191799989,66,25,female,True,7515,7520,False,False,inspiration,peak
208,0.07550963608205885,25,up,down,0.5173696000128984,1.603972756934532,,experiment,cRDM,0.0,,,,753.9454292000737,66,25,female,True,7539,7544,False,False,expiration,inspiration
209,0.07550963608205885,25,down,up,0.714974100003019,0.424317581736928,,experiment,cRDM,0.0,,,,755.1618224000557,66,25,female,True,7551,7558,False,False,peak,expiration
210,0.07550963608205885,25,up,up,0.7540095000294968,1.0663462997803517,,experiment,cRDM,0.0,,,,757.2117054000264,66,25,female,True,7571,7579,False,False,trough,inspiration
211,0.07550963608205885,25,down,down,1.0541487000882626,0.8868747736003101,,experiment,cRDM,0.0,,,,759.1116263000295,66,25,female,True,7590,7601,False,False,expiration,expiration
212,0.07550963608205885,25,up,down,0.7875600000843406,1.09911741004461,,experiment,cRDM,0.0,,,,761.5282102000201,66,25,female,True,7614,7622,False,False,inspiration,expiration
213,0.07550963608205885,25,down,down,0.8029500000411645,0.9612250450677742,,experiment,cRDM,0.0,,,,763.5448025000514,66,25,female,True,7634,7642,False,False,expiration,inspiration
214,0.07550963608205885,25,up,up,0.5797388000646606,1.814841872048968,,experiment,cRDM,0.0,,,,766.4280273000478,66,25,female,True,7663,7669,False,False,expiration,expiration
215,0.07550963608205885,25,down,up,0.7958510000025854,1.2194374786565123,,experiment,cRDM,0.0,,,,768.4779587000377,66,25,female,True,7684,7692,False,False,inspiration,expiration
216,0.07550963608205885,25,up,up,0.8015518999891356,1.5129199276409435,,experiment,cRDM,0.0,,,,771.061250800034,66,25,female,True,7710,7718,False,False,inspiration,expiration
217,0.07550963608205885,25,down,up,0.9583410000195728,1.0599492803565354,,experiment,cRDM,0.0,,,,773.1944613000377,66,25,female,True,7731,7741,False,False,expiration,inspiration
218,0.07550963608205885,25,up,down,0.939093100023456,0.453629997969849,,experiment,cRDM,0.0,,,,774.8777337999782,66,25,female,True,7748,7757,False,False,expiration,expiration
219,0.07550963608205885,25,down,down,0.8757685999153182,0.8893029720833769,,experiment,cRDM,0.0,,,,776.9610109999776,66,25,female,True,7769,7778,False,False,inspiration,expiration
220,0.07550963608205885,25,up,down,1.0675622000126168,0.6059240380514814,,experiment,cRDM,0.0,,,,778.6942742000101,66,25,female,True,7786,7797,False,False,expiration,expiration
221,0.07550963608205885,25,down,down,0.79798229993321,1.777259331604956,,experiment,cRDM,0.0,,,,781.8108315999852,66,25,female,True,7817,7825,False,False,expiration,expiration
222,0.07550963608205885,25,down,up,1.1974171000765637,0.7621813295650117,,experiment,cRDM,0.0,,,,783.6443403000012,66,25,female,True,7836,7848,False,False,inspiration,expiration
223,0.07550963608205885,25,up,up,0.6560855999123305,0.9073308598305109,,experiment,cRDM,0.0,,,,786.0106545999879,66,25,female,True,7859,7866,False,False,expiration,inspiration
224,0.07550963608205885,25,down,down,0.5825977999484167,1.9060262985195169,,experiment,cRDM,0.0,,,,788.8272074999986,66,25,female,True,7887,7893,False,False,expiration,expiration
225,0.07550963608205885,25,up,down,1.0763128000544384,0.5813193175907199,,experiment,cRDM,0.0,,,,790.2604917000281,66,25,female,True,7902,7913,False,False,inspiration,expiration
226,0.07550963608205885,25,up,down,1.0401661000214515,0.3427010385523658,,experiment,cRDM,0.0,,,,791.9436317000074,66,25,female,True,7919,7929,False,False,expiration,inspiration
227,0.07550963608205885,25,down,down,0.6888108000857756,1.7884803117408092,,experiment,cRDM,0.0,,,,795.0269876000239,66,25,female,True,7949,7956,False,False,expiration,expiration
228,0.07550963608205885,25,down,up,0.6438876999309286,1.4326061209424228,,experiment,cRDM,0.0,,,,797.426899000071,66,25,female,True,7973,7979,False,False,inspiration,expiration
229,0.07550963608205885,25,up,down,0.931561000063084,0.30917565707396305,,experiment,cRDM,0.0,,,,798.6602306000423,66,25,female,True,7986,7995,False,False,expiration,expiration
230,0.07550963608205885,25,down,down,0.6986939000198618,1.0716173661187902,,experiment,cRDM,0.0,,,,800.9100976000772,66,25,female,True,8008,8015,False,False,inspiration,expiration
231,0.07550963608205885,25,up,down,0.4990832000039518,1.8159627564698544,,experiment,cRDM,0.0,,,,803.6766829000552,66,25,female,True,8036,8041,False,False,inspiration,inspiration
232,0.07550963608205885,25,up,down,1.5491719000274315,0.9834430445879068,,experiment,cRDM,0.0,,,,805.4265923000639,66,25,female,True,8053,8068,False,False,expiration,inspiration
233,0.07550963608205885,25,up,down,1.390262600034475,0.8775274621318472,,experiment,cRDM,0.0,,,,808.1265003000152,66,25,female,True,8080,8094,False,False,expiration,expiration
234,0.07550963608205885,25,up,down,0.666334499954246,0.39836671683409136,,experiment,cRDM,0.0,,,,810.1764270000857,66,25,female,True,8101,8108,False,False,expiration,inspiration
235,0.07550963608205885,25,up,down,0.7371037999400869,1.951586973240712,,experiment,cRDM,0.0,,,,813.0596990999767,66,25,female,True,8130,8137,False,False,expiration,inspiration
236,0.07550963608205885,25,down,down,1.1118097999133172,1.4811163432785108,,experiment,cRDM,0.0,,,,815.5429123999784,66,25,female,True,8155,8166,False,False,expiration,expiration
237,0.07550963608205885,25,down,up,0.5346072000684217,0.7872663871456467,,experiment,cRDM,0.0,,,,817.7261540000328,66,25,female,True,8176,8181,False,False,inspiration,inspiration
238,0.07550963608205885,25,down,up,0.6376770999049768,0.4508086551945168,,experiment,cRDM,0.0,,,,818.9760879999957,66,25,female,True,8189,8195,False,False,expiration,expiration
239,0.07550963608205885,25,up,up,0.7074463000753894,1.239260611714302,,experiment,cRDM,0.0,,,,821.1093943000305,66,25,female,True,8210,8217,False,False,inspiration,expiration
240,0.07550963608205885,25,down,down,0.7068242999957874,0.9953317415558354,,experiment,cRDM,0.0,,,,823.0759467000607,66,25,female,True,8230,8237,False,False,expiration,inspiration
241,0.07550963608205885,25,down,down,0.6915616999613121,0.9490190716926912,,experiment,cRDM,0.0,,,,825.0092331999913,66,25,female,True,8249,8256,False,False,expiration,expiration
242,0.07550963608205885,25,down,down,0.6829850000794977,1.127467954327272,,experiment,cRDM,0.0,,,,827.0758057000348,66,25,female,True,8270,8277,False,False,inspiration,peak
243,0.07550963608205885,25,up,up,0.5667661000043154,1.8890701371304144,,experiment,cRDM,0.0,,,,829.9090015999973,66,25,female,True,8298,8304,False,False,trough,inspiration
244,0.07550963608205885,25,down,down,0.6971585999708623,1.0877042377247044,,experiment,cRDM,0.0,,,,831.8256123000757,66,25,female,True,8317,8324,False,False,expiration,expiration
245,0.07550963608205885,25,up,up,0.6482088000047952,1.337418423185881,,experiment,cRDM,0.0,,,,834.1255442000693,66,25,female,True,8340,8346,False,False,inspiration,expiration
246,0.07550963608205885,25,up,up,0.9468757000286132,0.5358322403096636,,experiment,cRDM,0.0,,,,835.5588845000602,66,25,female,True,8355,8364,False,False,expiration,inspiration
247,0.07550963608205885,25,down,down,0.5597299999790266,1.6259892446716044,,experiment,cRDM,0.0,,,,838.392069900059,66,25,female,True,8383,8389,False,False,expiration,expiration
248,0.07550963608205885,25,up,up,0.5695412000641227,1.5545132840505975,,experiment,cRDM,0.0,,,,840.7753098000541,66,25,female,True,8407,8413,False,False,peak,expiration
249,0.07550963608205885,25,down,down,0.5141756000230089,0.9105203183348792,,experiment,cRDM,0.0,,,,842.5085828000447,66,25,female,True,8424,8429,False,False,expiration,inspiration
250,0.07550963608205885,25,up,up,0.6469099000096321,0.6621214497268084,,experiment,cRDM,0.0,,,,843.941855299985,66,25,female,True,8439,8445,False,False,expiration,expiration
251,0.07550963608205885,25,down,down,0.7209543000208214,0.632849683159675,,experiment,cRDM,0.0,,,,845.4918033999858,66,25,female,True,8454,8461,False,False,expiration,inspiration
252,0.07550963608205885,25,up,up,0.7540219000075012,0.6131937747733397,,experiment,cRDM,0.0,,,,847.0917348000221,66,25,female,True,8470,8478,False,False,inspiration,expiration
253,0.07550963608205885,25,down,down,0.6038077999837697,1.6777891189644054,,experiment,cRDM,0.0,,,,849.7749741000589,66,25,female,True,8497,8503,False,False,inspiration,inspiration
254,0.07550963608205885,25,down,down,0.8983100999612361,0.5000772099093957,,experiment,cRDM,0.0,,,,851.1414473999757,66,25,female,True,8511,8520,False,False,expiration,expiration
255,0.07550963608205885,25,down,down,0.7469369999598712,0.6729868225324005,,experiment,cRDM,0.0,,,,852.9748275000603,66,25,female,True,8529,8536,False,False,inspiration,peak
256,0.07550963608205885,25,down,down,0.8283527999883518,1.3042938727486977,,experiment,cRDM,0.0,,,,855.2914372000376,66,25,female,True,8552,8560,False,False,expiration,inspiration
257,0.07550963608205885,25,down,down,0.5807157000526786,1.8915407660767944,,experiment,cRDM,0.0,,,,858.258016900043,66,25,female,True,8582,8588,False,False,expiration,inspiration
258,0.07550963608205885,25,up,up,0.6241303000133485,0.6356590662778501,,experiment,cRDM,0.0,,,,859.7245965000475,66,25,female,True,8596,8602,False,False,inspiration,expiration
259,0.07550963608205885,25,up,up,0.6296997999306768,1.6223536044944915,,experiment,cRDM,0.0,,,,862.2410811000738,66,25,female,True,8622,8628,False,False,inspiration,inspiration
260,0.07550963608205885,25,up,up,0.4746507999952882,0.5549039891994049,,experiment,cRDM,0.0,,,,863.6911299000494,66,25,female,True,8636,8641,False,False,expiration,expiration
261,0.07550963608205885,25,up,down,0.6283867000602186,1.7502302336436777,,experiment,cRDM,0.0,,,,866.1743695000188,66,25,female,True,8661,8667,False,False,peak,expiration
262,91.0,25,M,down,0.8480883999727666,1.6104113584207052,,experiment,emotion,0.0,,,,885.773658500053,66,25,female,True,8857,8865,False,False,expiration,expiration
263,80.0,25,M,down,0.6472038000356406,0.9472769039206336,,experiment,emotion,0.0,,,,887.8735839000437,66,25,female,True,8878,8884,False,False,inspiration,inspiration
264,87.0,25,F,down,0.6786336000077426,1.8732166276001128,,experiment,emotion,0.0,,,,890.6901420999783,66,25,female,True,8906,8913,False,False,expiration,expiration
265,91.0,25,F,down,0.8963472000323236,1.2384499449111863,,experiment,emotion,0.0,,,,892.8734009000473,66,25,female,True,8928,8937,False,False,inspiration,expiration
266,87.0,25,M,down,0.7004719999385998,1.9729341775598492,,experiment,emotion,0.0,,,,896.0232802000827,66,25,female,True,8959,8966,False,False,inspiration,expiration
267,83.0,25,F,down,0.7179069999838248,1.4457569447106362,,experiment,emotion,0.0,,,,898.4398241000017,66,25,female,True,8983,8990,False,False,inspiration,inspiration
268,80.0,25,M,up,0.7416486999718472,0.7843805156455139,,experiment,emotion,0.0,,,,900.2231214999921,66,25,female,True,9001,9008,False,False,expiration,expiration
269,83.0,25,M,up,0.7340710000135005,1.4057630291450685,,experiment,emotion,0.0,,,,902.6396785000106,66,25,female,True,9025,9032,False,False,inspiration,expiration
270,91.0,25,F,up,0.6363293000031263,0.6968631188817208,,experiment,emotion,0.0,,,,904.3394155000568,66,25,female,True,9043,9049,False,False,expiration,inspiration
271,83.0,25,F,up,0.6913594999350607,0.39017048047081104,,experiment,emotion,0.0,,,,905.6394626999972,66,25,female,True,9056,9063,False,False,inspiration,expiration
272,87.0,25,F,down,0.6722413999959826,1.6249184733131472,,experiment,emotion,0.0,,,,908.2395047000607,66,25,female,True,9082,9089,False,False,inspiration,expiration
273,91.0,25,F,down,0.6119629999157041,1.3909805583789727,,experiment,emotion,0.0,,,,910.5727751000087,66,25,female,True,9105,9111,False,False,inspiration,inspiration
274,87.0,25,F,down,0.5504546000156552,0.8346412731569426,,experiment,emotion,0.0,,,,912.2893491000868,66,25,female,True,9122,9128,False,False,expiration,expiration
275,80.0,25,F,down,0.5701838000677526,1.4034025676958641,,experiment,emotion,0.0,,,,914.5225846000247,66,25,female,True,9144,9150,False,False,inspiration,expiration
276,83.0,25,M,down,0.626967600081116,1.9909080285030367,,experiment,emotion,0.0,,,,917.355845700018,66,25,female,True,9173,9179,False,False,inspiration,expiration
277,80.0,25,M,down,0.6853279999922961,1.157224526321616,,experiment,emotion,0.0,,,,919.4224218999734,66,25,female,True,9193,9200,False,False,expiration,inspiration
278,91.0,25,M,up,0.8980786999454722,0.4231178899909918,,experiment,emotion,0.0,,,,920.8056889000583,66,25,female,True,9207,9216,False,False,inspiration,expiration
279,80.0,25,M,down,0.7195080999517813,1.9477477825606888,,experiment,emotion,0.0,,,,923.9222366000757,66,25,female,True,9239,9246,False,False,inspiration,expiration
280,87.0,25,F,down,0.6372382999397814,0.3738844210932979,,experiment,emotion,0.0,,,,925.3055397000862,66,25,female,True,9252,9258,False,False,expiration,trough
281,87.0,25,M,up,0.8410022000316529,1.6781839121344175,,experiment,emotion,0.0,,,,927.8887691000708,66,25,female,True,9278,9286,False,False,expiration,expiration
282,83.0,25,M,down,0.7653791999910027,0.3976480991179977,,experiment,emotion,0.0,,,,929.4053708000574,66,25,female,True,9293,9301,False,False,inspiration,inspiration
283,83.0,25,F,down,0.8497605000156909,0.7261222555706481,,experiment,emotion,0.0,,,,931.171976200072,66,25,female,True,9311,9319,False,False,expiration,expiration
284,80.0,25,M,down,0.6365054999478161,1.2632669029580772,,experiment,emotion,0.0,,,,933.5552303000586,66,25,female,True,9335,9341,False,False,inspiration,expiration
285,91.0,25,F,down,0.6025378999765962,0.41969530391184096,,experiment,emotion,0.0,,,,934.9051739000715,66,25,female,True,9348,9354,False,False,expiration,expiration
286,87.0,25,F,up,0.7310085999779403,1.942775638381224,,experiment,emotion,0.0,,,,937.721735100029,66,25,female,True,9376,9383,False,False,expiration,expiration
287,80.0,25,M,up,0.4667904999805614,1.3846900787477403,,experiment,emotion,0.0,,,,940.1049941000527,66,25,female,True,9400,9405,False,False,inspiration,expiration
288,91.0,25,M,up,0.8231739000184461,0.5296580177465996,,experiment,emotion,0.0,,,,941.3715927000158,66,25,female,True,9413,9421,False,False,expiration,expiration
289,91.0,25,F,up,0.748621299979277,1.4305356754170435,,experiment,emotion,0.0,,,,943.8881997000426,66,25,female,True,9438,9445,False,False,expiration,inspiration
290,83.0,25,M,up,0.6946936999447644,1.761458223110356,,experiment,emotion,0.0,,,,946.6880775999743,66,25,female,True,9466,9473,False,False,expiration,expiration
291,80.0,25,F,down,0.6720756000140682,1.1354000647686235,,experiment,emotion,0.0,,,,948.8046601000243,66,25,female,True,9487,9494,False,False,inspiration,expiration
292,83.0,25,F,down,0.499186999979429,1.8533601046497563,,experiment,emotion,0.0,,,,951.6045655000487,66,25,female,True,9515,9520,False,False,inspiration,inspiration
293,87.0,25,F,down,0.4990428999299184,1.6436335867043157,,experiment,emotion,0.0,,,,954.0377276000801,66,25,female,True,9540,9545,False,False,expiration,inspiration
294,80.0,25,M,up,0.6040454999310896,0.3214279230661283,,experiment,emotion,0.0,,,,955.1377018999774,66,25,female,True,9551,9557,False,False,inspiration,expiration
295,91.0,25,M,up,0.4857118000509218,0.5908307992006325,,experiment,emotion,0.0,,,,956.6210312000476,66,25,female,True,9565,9570,False,False,expiration,expiration
296,87.0,25,M,up,0.4914076999993995,0.4722874602749754,,experiment,emotion,0.0,,,,957.8543351000408,66,25,female,True,9578,9583,False,False,inspiration,inspiration
297,91.0,25,F,up,0.5341595999198034,0.669663499601749,,experiment,emotion,0.0,,,,959.287610600004,66,25,female,True,9592,9597,False,False,expiration,expiration
298,80.0,25,F,up,0.3668425000505522,0.5457070600213769,,experiment,emotion,0.0,,,,960.6375995000127,66,25,female,True,9606,9610,False,False,expiration,inspiration
299,87.0,25,M,up,0.9899778999388218,1.9581893943984587,,experiment,emotion,0.0,,,,963.270792700001,66,25,female,True,9632,9642,False,False,expiration,expiration
300,83.0,25,F,up,0.7936792999971658,1.0135342019951423,,experiment,emotion,0.0,,,,965.5540561000817,66,25,female,True,9655,9663,False,False,inspiration,expiration
301,83.0,25,M,down,0.93980300007388,1.1348947642483176,,experiment,emotion,0.0,,,,967.7539646000367,66,25,female,True,9677,9686,False,False,expiration,inspiration
302,87.0,25,M,down,0.5978771999944001,1.7303987602094109,,experiment,emotion,0.0,,,,970.7038582999958,66,25,female,True,9706,9712,False,False,expiration,inspiration
303,91.0,25,M,up,0.9027557999361306,0.4405731051408941,,experiment,emotion,0.0,,,,972.036950699985,66,25,female,True,9720,9729,False,False,inspiration,expiration
304,83.0,25,F,up,0.5806528000393882,0.9789952651633608,,experiment,emotion,0.0,,,,974.187081500073,66,25,female,True,9741,9747,False,False,trough,inspiration
305,80.0,25,F,up,0.5547812000149861,0.55842553257389,,experiment,emotion,0.0,,,,975.5870184000813,66,25,female,True,9755,9761,False,False,expiration,expiration
306,80.0,25,M,down,0.6904678000137211,1.1502745571799535,,experiment,emotion,0.0,,,,977.5702926000812,66,25,female,True,9775,9782,False,False,inspiration,inspiration
307,83.0,25,F,up,0.8935771000105888,1.2914373474160548,,experiment,emotion,0.0,,,,979.8201659000481,66,25,female,True,9797,9806,False,False,expiration,expiration
308,91.0,25,F,up,0.7190446000313386,1.454678056663046,,experiment,emotion,0.0,,,,982.4366686000722,66,25,female,True,9824,9831,False,False,expiration,expiration
309,87.0,25,M,down,0.6491422998951748,1.8976258554233472,,experiment,emotion,0.0,,,,985.3365953000031,66,25,female,True,9853,9859,False,False,inspiration,expiration
310,80.0,25,M,up,0.6325178000843152,0.7594253468153708,,experiment,emotion,0.0,,,,987.0032731000101,66,25,female,True,9869,9875,False,False,expiration,expiration
311,91.0,25,F,up,0.7413734000874683,0.9488313839798694,,experiment,emotion,0.0,,,,988.8363674000137,66,25,female,True,9888,9895,False,False,inspiration,expiration
312,87.0,25,M,down,0.6846251001115888,1.7591786679516663,,experiment,emotion,0.0,,,,991.603108100011,66,25,female,True,9915,9922,False,False,inspiration,inspiration
313,87.0,25,F,up,0.7260508999461308,0.7183417451220399,,experiment,emotion,0.0,,,,993.2696860000723,66,25,female,True,9932,9939,False,False,expiration,expiration
314,80.0,25,F,down,0.6888120999792591,0.8305056058952986,,experiment,emotion,0.0,,,,995.1029604000504,66,25,female,True,9950,9957,False,False,inspiration,peak
315,83.0,25,F,up,0.44184270000550896,1.7281741506341974,,experiment,emotion,0.0,,,,997.80285810004,66,25,female,True,9977,9981,False,False,expiration,inspiration
316,91.0,25,M,up,0.5246229000622407,1.4799548419938031,,experiment,emotion,0.0,,,,999.9861196000128,66,25,female,True,9999,10004,False,False,expiration,expiration
317,83.0,25,M,up,0.5430310999508947,0.4598328768739228,,experiment,emotion,0.0,,,,1001.2527369000017,66,25,female,True,10012,10017,False,False,inspiration,inspiration
318,83.0,25,F,up,0.6400811999337748,1.7311158774797033,,experiment,emotion,0.0,,,,1003.8026494000806,66,25,female,True,10037,10043,False,False,expiration,expiration
319,83.0,25,F,down,0.6891611000755802,1.1871640842747226,,experiment,emotion,0.0,,,,1005.9025713000447,66,25,female,True,10058,10065,False,False,expiration,expiration
320,91.0,25,M,down,0.5502663999795914,1.579935489690068,,experiment,emotion,0.0,,,,1008.4524653999832,66,25,female,True,10084,10090,False,False,inspiration,expiration
321,87.0,25,M,up,0.5510052000172436,1.0061688809450733,,experiment,emotion,0.0,,,,1010.2857360000487,66,25,female,True,10102,10108,False,False,expiration,expiration
322,80.0,25,M,down,0.7357298999559134,1.0095132350034828,,experiment,emotion,0.0,,,,1012.1190021000804,66,25,female,True,10120,10127,False,False,inspiration,expiration
323,80.0,25,M,down,0.4891535999486223,1.3612296259084926,,experiment,emotion,0.0,,,,1014.4855816999916,66,25,female,True,10144,10149,False,False,inspiration,inspiration
324,87.0,25,M,down,0.6235075000440702,0.6024094894799511,,experiment,emotion,0.0,,,,1015.8522128000624,66,25,female,True,10158,10164,False,False,expiration,expiration
325,91.0,25,F,down,0.6470746999839321,1.4325826173848668,,experiment,emotion,0.0,,,,1018.168777700048,66,25,female,True,10181,10187,False,False,inspiration,expiration
326,91.0,25,F,down,0.475696999928914,0.5339077634626491,,experiment,emotion,0.0,,,,1019.6020665999968,66,25,female,True,10195,10200,False,False,expiration,expiration
327,80.0,25,M,down,0.4841178000206128,0.8657058611675474,,experiment,emotion,0.0,,,,1021.2186481000391,66,25,female,True,10211,10216,False,False,inspiration,peak
328,91.0,25,F,up,0.7624259000876918,1.5026532660377951,,experiment,emotion,0.0,,,,1023.4852630000096,66,25,female,True,10234,10242,False,False,expiration,inspiration
329,83.0,25,F,up,0.5351450999733061,0.5749884373700906,,experiment,emotion,0.0,,,,1025.1185107000638,66,25,female,True,10250,10255,False,False,inspiration,expiration
330,87.0,25,F,up,0.6453020999906585,1.1959447128033776,,experiment,emotion,0.0,,,,1027.1184534999775,66,25,female,True,10270,10276,False,False,expiration,inspiration
331,83.0,25,M,up,0.9749947000527754,0.4186684010745705,,experiment,emotion,0.0,,,,1028.4517370000247,66,25,female,True,10284,10294,False,False,peak,expiration
332,80.0,25,F,down,0.6464776999782771,1.7266536397549008,,experiment,emotion,0.0,,,,1031.4183051000582,66,25,female,True,10313,10319,False,False,inspiration,inspiration
333,87.0,25,F,down,0.5358687000116333,0.6582809921777373,,experiment,emotion,0.0,,,,1032.9849028000608,66,25,female,True,10329,10334,False,False,expiration,expiration
334,83.0,25,F,down,0.4001967000076547,0.8715260501876125,,experiment,emotion,0.0,,,,1034.6681627000216,66,25,female,True,10346,10350,False,False,inspiration,inspiration
335,87.0,25,M,down,0.6666330000152811,1.255752030058095,,experiment,emotion,0.0,,,,1036.6180862999754,66,25,female,True,10365,10372,False,False,expiration,expiration
336,80.0,25,M,down,0.7600285999942571,0.7425545902669886,,experiment,emotion,0.0,,,,1038.2847066000104,66,25,female,True,10382,10390,False,False,inspiration,inspiration
337,91.0,25,F,up,0.8562421000096947,0.9080323096552588,,experiment,emotion,0.0,,,,1040.234501900035,66,25,female,True,10402,10411,False,False,expiration,expiration
338,87.0,25,M,up,0.6837733999127522,0.31686606677048657,,experiment,emotion,0.0,,,,1041.6679577999748,66,25,female,True,10416,10423,False,False,inspiration,inspiration
339,91.0,25,F,up,0.7035331999650225,0.7242867540683156,,experiment,emotion,0.0,,,,1043.3511914000846,66,25,female,True,10433,10440,False,False,expiration,expiration
340,80.0,25,M,down,0.7336266000056639,1.5742440900510937,,experiment,emotion,0.0,,,,1045.9010996000143,66,25,female,True,10458,10465,False,False,inspiration,expiration
341,83.0,25,M,down,0.4220779000315815,1.147613983256094,,experiment,emotion,0.0,,,,1048.0676738000477,66,25,female,True,10480,10484,False,False,expiration,inspiration
342,0.07550963608205885,25,up,down,1.1364426999352872,1.0286050344030129,,experiment,cRDM,1.0,,,,1058.017306499998,66,25,female,True,10579,10590,False,False,inspiration,expiration
343,0.07550963608205885,25,up,up,0.5881098998943344,0.7830617878880446,,experiment,cRDM,1.0,,,,1060.2005869999994,66,25,female,True,10601,10607,False,False,expiration,expiration
344,0.07550963608205885,25,down,down,0.5279680000385271,0.4289137071876875,,experiment,cRDM,1.0,,,,1061.4838612000458,66,25,female,True,10614,10619,False,False,inspiration,inspiration
345,0.07550963608205885,25,down,down,0.853582700015977,0.8827842319439291,,experiment,cRDM,1.0,,,,1063.167136300006,66,25,female,True,10631,10640,False,False,expiration,expiration
346,0.07550963608205885,25,up,up,0.5929490999551489,0.957386012721182,,experiment,cRDM,1.0,,,,1065.2337234000445,66,25,female,True,10652,10658,False,False,inspiration,inspiration
347,0.07550963608205885,25,down,down,0.5541596000548452,1.9493360891919065,,experiment,cRDM,1.0,,,,1068.033574400004,66,25,female,True,10680,10686,False,False,expiration,expiration
348,0.07550963608205885,25,up,down,0.5118531999178231,1.7155519204547802,,experiment,cRDM,1.0,,,,1070.5668860999867,66,25,female,True,10705,10710,False,False,expiration,expiration
349,0.07550963608205885,25,up,up,0.4570132000371814,1.6209267677336514,,experiment,cRDM,1.0,,,,1072.9667713000672,66,25,female,True,10729,10734,False,False,inspiration,expiration
350,0.07550963608205885,25,down,down,0.6000396999297664,0.3803859624042572,,experiment,cRDM,1.0,,,,1074.0667171999812,66,25,female,True,10740,10746,False,False,expiration,expiration
351,0.07550963608205885,25,down,up,0.4857100999215618,0.9744216566382752,,experiment,cRDM,1.0,,,,1075.9000088999746,66,25,female,True,10758,10763,False,False,inspiration,inspiration
352,0.07550963608205885,25,down,up,0.9284515000181272,0.6733367819513342,,experiment,cRDM,1.0,,,,1077.3332315000007,66,25,female,True,10773,10782,False,False,expiration,expiration
353,0.07550963608205885,25,down,down,0.6761223999783397,0.5542662203855994,,experiment,cRDM,1.0,,,,1079.0665511999978,66,25,female,True,10790,10797,False,False,inspiration,inspiration
354,0.07550963608205885,25,down,up,1.102868999936618,0.644253166342313,,experiment,cRDM,1.0,,,,1080.649859099998,66,25,female,True,10806,10817,False,False,expiration,expiration
355,0.07550963608205885,25,down,down,0.5748509999830276,1.4148014239783877,,experiment,cRDM,1.0,,,,1083.4329324000282,66,25,female,True,10834,10840,False,False,inspiration,expiration
356,0.07550963608205885,25,up,up,0.7221404999727383,0.9666470490756888,,experiment,cRDM,1.0,,,,1085.2496133000825,66,25,female,True,10852,10859,False,False,expiration,expiration
357,0.07550963608205885,25,up,up,0.6024854000424966,1.1264038179140072,,experiment,cRDM,1.0,,,,1087.36623220006,66,25,female,True,10873,10879,False,False,inspiration,expiration
358,0.07550963608205885,25,up,up,0.9212416999507697,0.9640345166937454,,experiment,cRDM,1.0,,,,1089.1995095000602,66,25,female,True,10891,10900,False,False,expiration,expiration
359,0.07550963608205885,25,up,down,0.7656260000076145,1.2248938546075814,,experiment,cRDM,1.0,,,,1091.6160799000645,66,25,female,True,10915,10923,False,False,expiration,expiration
360,0.07550963608205885,25,down,up,0.33376499998848885,1.8012165640160724,,experiment,cRDM,1.0,,,,1094.432678100071,66,25,female,True,10944,10947,False,False,inspiration,inspiration
361,0.07550963608205885,25,up,up,0.4557572000194341,0.9012765750167362,,experiment,cRDM,1.0,,,,1096.015932700015,66,25,female,True,10959,10964,False,False,expiration,expiration
362,0.07550963608205885,25,up,up,0.6078605999937281,0.4722259823281365,,experiment,cRDM,1.0,,,,1097.215858999989,66,25,female,True,10971,10977,False,False,trough,inspiration
363,0.07550963608205885,25,down,down,0.7214349000714719,1.5470379085384676,,experiment,cRDM,1.0,,,,1099.6322832000442,66,25,female,True,10996,11003,False,False,expiration,expiration
364,0.07550963608205885,25,up,up,0.6086527000879869,1.5302777320536938,,experiment,cRDM,1.0,,,,1102.1490677000256,66,25,female,True,11021,11027,False,False,peak,expiration
365,0.07550963608205885,25,down,down,0.7057146000443026,0.38098886406359744,,experiment,cRDM,1.0,,,,1103.3990076000337,66,25,female,True,11033,11040,False,False,expiration,expiration
366,0.07550963608205885,25,down,up,0.5161778000183403,1.462667900706686,,experiment,cRDM,1.0,,,,1105.8155428000027,66,25,female,True,11057,11062,False,False,expiration,expiration
367,0.07550963608205885,25,up,up,0.5335510999429971,0.6877333337253916,,experiment,cRDM,1.0,,,,1107.2821954999818,66,25,female,True,11072,11077,False,False,expiration,inspiration
368,0.07550963608205885,25,up,up,0.6329979000147432,0.9777958243230699,,experiment,cRDM,1.0,,,,1109.0487872000083,66,25,female,True,11090,11096,False,False,expiration,expiration
369,0.07550963608205885,25,down,up,0.6748292999109253,1.7064268564293126,,experiment,cRDM,1.0,,,,1111.6318934999872,66,25,female,True,11116,11123,False,False,inspiration,expiration
370,0.07550963608205885,25,up,up,0.783510799985379,0.4443208227883698,,experiment,cRDM,1.0,,,,1113.0152806000553,66,25,female,True,11129,11137,False,False,expiration,expiration
371,0.07550963608205885,25,down,down,0.589477299945429,0.3212449902582609,,experiment,cRDM,1.0,,,,1114.3652455999984,66,25,female,True,11143,11149,False,False,expiration,inspiration
372,0.07550963608205885,25,down,down,0.747158500016667,0.33014286335197063,,experiment,cRDM,1.0,,,,1115.5485576000065,66,25,female,True,11155,11162,False,False,inspiration,expiration
373,0.07550963608205885,25,down,down,0.4840350999729708,1.073009015783752,,experiment,cRDM,1.0,,,,1117.6317331000464,66,25,female,True,11176,11181,False,False,inspiration,inspiration
374,0.07550963608205885,25,up,up,0.6242460999637842,0.8800606146355922,,experiment,cRDM,1.0,,,,1119.2484504000752,66,25,female,True,11192,11198,False,False,expiration,expiration
375,0.07550963608205885,25,up,up,0.7683749999850988,1.6195597663268697,,experiment,cRDM,1.0,,,,1121.748338000034,66,25,female,True,11217,11225,False,False,inspiration,expiration
376,0.07550963608205885,25,up,up,0.6628364999778569,1.7982827093938114,,experiment,cRDM,1.0,,,,1124.5648998999968,66,25,female,True,11245,11252,False,False,inspiration,inspiration
377,0.07550963608205885,25,down,down,0.697392400004901,1.5537098944610899,,experiment,cRDM,1.0,,,,1127.031350400066,66,25,female,True,11270,11277,False,False,expiration,expiration
378,0.07550963608205885,25,down,down,0.8084176999982446,1.9785055909975655,,experiment,cRDM,1.0,,,,1129.9812906000298,66,25,female,True,11299,11307,False,False,expiration,expiration
379,0.07550963608205885,25,up,down,1.023747899918817,1.8030334503700864,,experiment,cRDM,1.0,,,,1132.8479207999774,66,25,female,True,11328,11338,False,False,expiration,expiration
380,0.07550963608205885,25,down,down,0.7116515999659896,1.8419180514876832,,experiment,cRDM,1.0,,,,1135.9810998999749,66,25,female,True,11359,11366,False,False,inspiration,expiration
381,0.07550963608205885,25,up,down,0.5594140000175685,1.7598792308726128,,experiment,cRDM,1.0,,,,1138.7143427000847,66,25,female,True,11386,11392,False,False,inspiration,inspiration
382,0.07550963608205885,25,up,down,0.5051646999781951,1.3574550344821688,,experiment,cRDM,1.0,,,,1140.8976057000689,66,25,female,True,11408,11413,False,False,expiration,expiration
383,0.07550963608205885,25,up,down,0.6798641999484971,1.2287869328424976,,experiment,cRDM,1.0,,,,1142.880852799979,66,25,female,True,11428,11435,False,False,inspiration,inspiration
384,0.07550963608205885,25,down,down,0.5902042000088841,0.6347249191778239,,experiment,cRDM,1.0,,,,1144.4475017000225,66,25,female,True,11444,11450,False,False,expiration,expiration
385,0.07550963608205885,25,down,down,1.8100591000402344,1.425404245532872,,experiment,cRDM,1.0,,,,1146.730651400052,66,25,female,True,11467,11485,False,False,peak,inspiration
386,0.07550963608205885,25,up,down,0.8584697999758646,1.4934436675048641,,experiment,cRDM,1.0,,,,1150.2972621000372,66,25,female,True,11502,11511,False,False,expiration,expiration
387,0.07550963608205885,25,down,down,0.496855599922128,0.5992908390203966,,experiment,cRDM,1.0,,,,1152.0138472000835,66,25,female,True,11519,11524,False,False,inspiration,inspiration
388,0.07550963608205885,25,down,down,0.6002662999089807,1.6969695034431052,,experiment,cRDM,1.0,,,,1154.4804425999755,66,25,female,True,11544,11550,False,False,trough,inspiration
389,0.07550963608205885,25,up,down,0.5130078000947833,1.4248495434888384,,experiment,cRDM,1.0,,,,1156.7637000000104,66,25,female,True,11567,11572,False,False,expiration,expiration
390,0.07550963608205885,25,up,up,0.7657270999625325,0.4043211027144786,,experiment,cRDM,1.0,,,,1157.947015600046,66,25,female,True,11579,11587,False,False,inspiration,inspiration
391,0.07550963608205885,25,down,down,0.671567999990657,0.5554370417130221,,experiment,cRDM,1.0,,,,1159.530133399996,66,25,female,True,11595,11602,False,False,inspiration,expiration
392,0.07550963608205885,25,up,up,0.8102373000001535,1.7870406384328223,,experiment,cRDM,1.0,,,,1162.263477700064,66,25,female,True,11622,11630,False,False,expiration,expiration
393,0.07550963608205885,25,down,down,0.5709002000512555,0.8110372128316423,,experiment,cRDM,1.0,,,,1164.146807000041,66,25,female,True,11641,11647,False,False,inspiration,inspiration
394,0.07550963608205885,25,down,down,0.7259314999682829,0.3731219834096591,,experiment,cRDM,1.0,,,,1165.3467386000555,66,25,female,True,11653,11660,False,False,inspiration,inspiration
395,0.07550963608205885,25,down,down,0.5814883999992162,1.828817778358098,,experiment,cRDM,1.0,,,,1168.163258500048,66,25,female,True,11681,11687,False,False,expiration,expiration
396,0.07550963608205885,25,up,down,0.4428286999464035,0.6203720813287885,,experiment,cRDM,1.0,,,,1169.6298703000648,66,25,female,True,11696,11700,False,False,inspiration,inspiration
397,0.07550963608205885,25,up,down,0.5778957000002265,0.9832506365755308,,experiment,cRDM,1.0,,,,1171.3298061999958,66,25,female,True,11713,11719,False,False,expiration,expiration
398,0.07550963608205885,25,down,down,0.42216700001154095,1.663166890897421,,experiment,cRDM,1.0,,,,1173.8295434999745,66,25,female,True,11738,11742,False,False,inspiration,inspiration
399,0.07550963608205885,25,down,down,0.6304832000751048,0.6702793313381761,,experiment,cRDM,1.0,,,,1175.1963543000165,66,25,female,True,11751,11757,False,False,expiration,expiration
400,0.07550963608205885,25,up,down,0.7497921000467613,1.5268741595500643,,experiment,cRDM,1.0,,,,1177.612913900055,66,25,female,True,11775,11782,False,False,inspiration,inspiration
401,0.07550963608205885,25,up,down,0.6553810000186786,1.3156973240842542,,experiment,cRDM,1.0,,,,1179.929326000041,66,25,female,True,11799,11806,False,False,expiration,expiration
402,0.07550963608205885,25,up,up,0.9529632000485436,1.1136003995357455,,experiment,cRDM,1.0,,,,1181.9627494000595,66,25,female,True,11819,11829,False,False,inspiration,expiration
403,0.07550963608205885,25,up,up,0.7320818000007421,1.729768566010231,,experiment,cRDM,1.0,,,,1184.9126423000125,66,25,female,True,11848,11855,False,False,inspiration,inspiration
404,0.07550963608205885,25,up,down,0.6808442000765353,0.9377492540668382,,experiment,cRDM,1.0,,,,1186.8459375000093,66,25,female,True,11868,11875,False,False,expiration,expiration
405,0.07550963608205885,25,down,down,0.8676685000536963,0.8429186221863578,,experiment,cRDM,1.0,,,,1188.62903750001,66,25,female,True,11886,11895,False,False,inspiration,expiration
406,0.07550963608205885,25,down,up,1.0002728999825194,1.303544593438287,,experiment,cRDM,1.0,,,,1191.0624333000744,66,25,female,True,11910,11920,False,False,trough,inspiration
407,0.07550963608205885,25,up,up,0.6707276999950409,1.7623117730487448,,experiment,cRDM,1.0,,,,1194.0789793999866,66,25,female,True,11940,11947,False,False,trough,inspiration
408,0.07550963608205885,25,down,up,1.0064613999566063,1.4504662637281749,,experiment,cRDM,1.0,,,,1196.4622055999935,66,25,female,True,11964,11974,False,False,expiration,expiration
409,0.07550963608205885,25,down,down,0.5529492000350729,1.241593218904825,,experiment,cRDM,1.0,,,,1198.978796200012,66,25,female,True,11989,11995,False,False,inspiration,expiration
410,0.07550963608205885,25,down,down,0.5203211000189185,1.6509220753450442,,experiment,cRDM,1.0,,,,1201.4453820000635,66,25,female,True,12014,12019,False,False,inspiration,inspiration
411,0.07550963608205885,25,up,down,0.6360541000030935,0.9423919323568716,,experiment,cRDM,1.0,,,,1203.178650100017,66,25,female,True,12031,12037,False,False,expiration,expiration
412,0.07550963608205885,25,down,down,0.6877725999802351,1.2819524596765195,,experiment,cRDM,1.0,,,,1205.3619181000395,66,25,female,True,12053,12060,False,False,inspiration,expiration
413,0.07550963608205885,25,down,down,0.8048428000183776,0.3422810717307413,,experiment,cRDM,1.0,,,,1206.6618560000788,66,25,female,True,12066,12074,False,False,expiration,inspiration
414,0.07550963608205885,25,down,down,0.6226262999698521,1.8151996059919264,,experiment,cRDM,1.0,,,,1209.5450777000515,66,25,female,True,12095,12101,False,False,expiration,expiration
415,0.07550963608205885,25,up,down,0.41937609994784003,1.4025022768765818,,experiment,cRDM,1.0,,,,1211.8283531999914,66,25,female,True,12118,12122,False,False,expiration,expiration
416,0.07550963608205885,25,up,down,0.5211023000301793,0.9018246498209,,experiment,cRDM,1.0,,,,1213.411627700087,66,25,female,True,12134,12139,False,False,inspiration,inspiration
417,0.07550963608205885,25,down,down,0.6738180000102147,0.4089348446236003,,experiment,cRDM,1.0,,,,1214.5948837000176,66,25,female,True,12145,12152,False,False,inspiration,expiration
418,0.07550963608205885,25,up,down,0.6315557999769226,1.755147149205274,,experiment,cRDM,1.0,,,,1217.278119900031,66,25,female,True,12172,12178,False,False,inspiration,inspiration
419,0.07550963608205885,25,down,up,0.8069771999726072,0.8135947069073879,,experiment,cRDM,1.0,,,,1218.9947215000866,66,25,female,True,12189,12197,False,False,expiration,expiration
420,0.07550963608205885,25,up,down,0.6717443000525236,1.6170222913503012,,experiment,cRDM,1.0,,,,1221.6779617000138,66,25,female,True,12216,12223,False,False,expiration,expiration
421,0.07550963608205885,25,up,up,0.7027884999988601,0.4596413846212165,,experiment,cRDM,1.0,,,,1223.0779127000133,66,25,female,True,12230,12237,False,False,expiration,expiration
422,91.0,25,M,down,0.8944326000055298,0.3849395119018731,,experiment,emotion,1.0,,,,1257.7932984000074,66,25,female,True,12577,12586,False,False,inspiration,inspiration
423,80.0,25,M,down,0.5472448000218719,0.8674509135383413,,experiment,emotion,1.0,,,,1259.826422000071,66,25,female,True,12598,12603,False,False,expiration,expiration
424,87.0,25,F,down,0.5179234000388533,1.1521704008054108,,experiment,emotion,1.0,,,,1261.8097994000418,66,25,female,True,12617,12622,False,False,inspiration,inspiration
425,91.0,25,F,down,0.6482798999641091,1.921045209271996,,experiment,emotion,1.0,,,,1264.5264129000716,66,25,female,True,12645,12651,False,False,inspiration,inspiration
426,87.0,25,M,down,0.7871437000576407,1.979022006911856,,experiment,emotion,1.0,,,,1267.4095723000355,66,25,female,True,12674,12682,False,False,inspiration,expiration
427,83.0,25,F,down,1.1036684999708086,1.2322083136464366,,experiment,emotion,1.0,,,,1269.726026999997,66,25,female,True,12697,12708,False,False,expiration,expiration
428,80.0,25,M,down,0.9898805000120774,0.5451953441258381,,experiment,emotion,1.0,,,,1271.6428133000156,66,25,female,True,12716,12726,False,False,expiration,inspiration
429,83.0,25,M,down,0.8239829000085592,1.2323182284002598,,experiment,emotion,1.0,,,,1274.142710700049,66,25,female,True,12741,12749,False,False,expiration,expiration
430,91.0,25,F,down,0.7784369000000879,0.7164070259534474,,experiment,emotion,1.0,,,,1275.9592828999741,66,25,female,True,12759,12767,False,False,expiration,inspiration
431,83.0,25,F,down,0.5965119999600574,1.2659959157674496,,experiment,emotion,1.0,,,,1278.2592024999906,66,25,female,True,12782,12788,False,False,expiration,expiration
432,87.0,25,F,down,0.7688476999755949,0.3305382315240189,,experiment,emotion,1.0,,,,1279.4758481000315,66,25,female,True,12794,12802,False,False,expiration,expiration
433,91.0,25,F,up,1.0797448999946937,0.9872035575850008,,experiment,emotion,1.0,,,,1281.508952400065,66,25,female,True,12815,12826,False,False,inspiration,expiration
434,87.0,25,F,up,0.6388329999754205,1.644695987186431,,experiment,emotion,1.0,,,,1284.5088929000776,66,25,female,True,12845,12851,False,False,inspiration,inspiration
435,80.0,25,F,down,1.0351566999452189,1.992688062231575,,experiment,emotion,1.0,,,,1287.4255425999872,66,25,female,True,12874,12884,False,False,inspiration,inspiration
436,83.0,25,M,down,1.2099137998884544,1.6194295532719272,,experiment,emotion,1.0,,,,1290.3588243999984,66,25,female,True,12903,12915,False,False,trough,peak
437,80.0,25,M,down,0.5466235000640154,1.1613050837048302,,experiment,emotion,1.0,,,,1292.9920267000564,66,25,female,True,12929,12934,False,False,expiration,trough
438,91.0,25,M,up,0.5780940999975428,1.7850593408412534,,experiment,emotion,1.0,,,,1295.6085913000861,66,25,female,True,12956,12962,False,False,expiration,expiration
439,80.0,25,M,down,0.9095798999769612,1.9193180520497668,,experiment,emotion,1.0,,,,1298.3751331000822,66,25,female,True,12983,12992,False,False,expiration,expiration
440,87.0,25,F,up,0.8499385999748483,1.4911937919885874,,experiment,emotion,1.0,,,,1301.0417454000562,66,25,female,True,13010,13018,False,False,expiration,expiration
441,87.0,25,M,down,1.1128716999664905,1.8713414844794511,,experiment,emotion,1.0,,,,1304.0248189000413,66,25,female,True,13040,13051,False,False,expiration,expiration
442,83.0,25,M,up,0.9759080000221728,1.4071093000424573,,experiment,emotion,1.0,,,,1306.8247885999735,66,25,female,True,13068,13078,False,False,inspiration,expiration
443,83.0,25,F,up,0.7822539999615401,0.6127460746984682,,experiment,emotion,1.0,,,,1308.691428399994,66,25,female,True,13086,13094,False,False,expiration,inspiration
444,80.0,25,M,down,0.9679975000908598,1.4242375436834094,,experiment,emotion,1.0,,,,1311.174689300009,66,25,female,True,13111,13121,False,False,expiration,expiration
445,91.0,25,F,down,0.9164217000361532,0.9709009457996601,,experiment,emotion,1.0,,,,1313.391283600009,66,25,female,True,13133,13142,False,False,inspiration,expiration
446,87.0,25,F,up,0.8717961000511423,1.4864882201178289,,experiment,emotion,1.0,,,,1316.0578607000646,66,25,female,True,13160,13169,False,False,expiration,inspiration
447,80.0,25,M,down,0.8616088000126183,1.0418290250182365,,experiment,emotion,1.0,,,,1318.241090000025,66,25,female,True,13182,13191,False,False,expiration,expiration
448,91.0,25,M,up,1.021045699948445,1.5801730926557362,,experiment,emotion,1.0,,,,1320.9576315000886,66,25,female,True,13209,13219,False,False,expiration,expiration
449,91.0,25,F,up,0.7786400000331923,0.37194177571242093,,experiment,emotion,1.0,,,,1322.6240543000167,66,25,female,True,13226,13234,False,False,expiration,inspiration
450,83.0,25,M,up,1.0188973998883741,1.7731190585506986,,experiment,emotion,1.0,,,,1325.4408484000014,66,25,female,True,13254,13264,False,False,expiration,expiration
451,80.0,25,F,down,0.9122756000142545,1.5196556556175171,,experiment,emotion,1.0,,,,1328.2574052000418,66,25,female,True,13282,13291,False,False,expiration,expiration
452,83.0,25,F,down,0.8123751999810338,0.6321980919987409,,experiment,emotion,1.0,,,,1330.0573111000706,66,25,female,True,13300,13308,False,False,expiration,inspiration
453,87.0,25,F,down,0.6461309000151232,1.5776929589443554,,experiment,emotion,1.0,,,,1332.7405466000782,66,25,female,True,13327,13333,False,False,expiration,expiration
454,80.0,25,M,down,0.7252239999361336,1.1990824827804236,,experiment,emotion,1.0,,,,1334.840462399996,66,25,female,True,13348,13355,False,False,inspiration,expiration
455,91.0,25,M,down,1.381620300002396,0.9977038146886851,,experiment,emotion,1.0,,,,1336.8570737000555,66,25,female,True,13368,13382,False,False,expiration,inspiration
456,87.0,25,M,down,1.2307163999648765,1.3483516261089308,,experiment,emotion,1.0,,,,1339.8569671000587,66,25,female,True,13398,13410,False,False,expiration,inspiration
457,91.0,25,F,up,0.8658771999180317,0.7964974285378963,,experiment,emotion,1.0,,,,1342.1568616000004,66,25,female,True,13421,13430,False,False,expiration,expiration
458,80.0,25,F,down,1.0119077999843284,1.173543208547448,,experiment,emotion,1.0,,,,1344.4567767999831,66,25,female,True,13444,13454,False,False,inspiration,expiration
459,87.0,25,M,up,0.9285911999177188,1.3359603713452997,,experiment,emotion,1.0,,,,1347.0733516999753,66,25,female,True,13470,13479,False,False,inspiration,expiration
460,83.0,25,F,up,0.7947264999384059,0.4599360902492834,,experiment,emotion,1.0,,,,1348.7399522999767,66,25,female,True,13487,13495,False,False,expiration,expiration
461,83.0,25,M,up,0.8948111000936478,0.5754854030184373,,experiment,emotion,1.0,,,,1350.3898765000051,66,25,female,True,13503,13512,False,False,inspiration,expiration
462,87.0,25,M,up,1.085547500057146,1.709115041602528,,experiment,emotion,1.0,,,,1353.2731335000135,66,25,female,True,13532,13543,False,False,expiration,inspiration
463,91.0,25,M,up,0.7249658000655472,0.3434560642334197,,experiment,emotion,1.0,,,,1354.9897151000332,66,25,female,True,13549,13556,False,False,expiration,expiration
464,83.0,25,F,up,0.6545180999673903,1.2223729291960728,,experiment,emotion,1.0,,,,1357.206209899974,66,25,female,True,13572,13579,False,False,inspiration,inspiration
465,80.0,25,F,down,0.9154757999349384,1.022397957366465,,experiment,emotion,1.0,,,,1359.1562291000735,66,25,female,True,13591,13600,False,False,expiration,expiration
466,80.0,25,M,down,0.7265513999154791,1.507847864628481,,experiment,emotion,1.0,,,,1361.8561319999862,66,25,female,True,13618,13625,False,False,expiration,expiration
467,83.0,25,F,down,0.9973185999551788,0.344328756243216,,experiment,emotion,1.0,,,,1363.1894093999872,66,25,female,True,13631,13641,False,False,expiration,inspiration
468,91.0,25,F,up,0.8507143999449909,1.3719866051831835,,experiment,emotion,1.0,,,,1365.8559890000615,66,25,female,True,13658,13667,False,False,expiration,expiration
469,87.0,25,M,down,0.7681327000027522,1.2416243300226144,,experiment,emotion,1.0,,,,1368.2225467000392,66,25,female,True,13682,13690,False,False,inspiration,expiration
470,80.0,25,M,down,0.696853099972941,1.8954715258756252,,experiment,emotion,1.0,,,,1371.1558001000667,66,25,female,True,13711,13718,False,False,inspiration,inspiration
471,91.0,25,F,up,0.9802824000362308,0.6961100331942484,,experiment,emotion,1.0,,,,1372.822398200049,66,25,female,True,13728,13738,False,False,expiration,expiration
472,87.0,25,M,down,1.0643460999708625,1.3056118983792089,,experiment,emotion,1.0,,,,1375.3723348000785,66,25,female,True,13753,13764,False,False,inspiration,expiration
473,87.0,25,F,up,1.009803400025703,1.570241498486069,,experiment,emotion,1.0,,,,1378.2888704000507,66,25,female,True,13782,13792,False,False,inspiration,peak
474,80.0,25,F,up,0.4398858000058681,1.372598482384264,,experiment,emotion,1.0,,,,1380.938796399976,66,25,female,True,13809,13813,False,False,expiration,expiration
475,83.0,25,F,up,0.6224024000111967,1.7948452752048596,,experiment,emotion,1.0,,,,1383.4553450000242,66,25,female,True,13834,13840,False,False,expiration,expiration
476,91.0,25,M,down,0.6570355999283493,1.1926085648456108,,experiment,emotion,1.0,,,,1385.5386300000828,66,25,female,True,13855,13862,False,False,inspiration,inspiration
477,83.0,25,M,up,0.6051807000767441,0.5617269923044192,,experiment,emotion,1.0,,,,1387.0385473000354,66,25,female,True,13870,13876,False,False,expiration,expiration
478,83.0,25,F,down,0.9098425999982284,0.6551014686313882,,experiment,emotion,1.0,,,,1388.5718473000452,66,25,female,True,13885,13894,False,False,expiration,inspiration
479,83.0,25,F,up,0.9002916000317782,0.5371852625514362,,experiment,emotion,1.0,,,,1390.2884097000353,66,25,female,True,13902,13911,False,False,expiration,expiration
480,91.0,25,M,up,0.6043012000154704,0.4388560674745564,,experiment,emotion,1.0,,,,1391.8883702000605,66,25,female,True,13918,13924,False,False,expiration,inspiration
481,87.0,25,M,up,0.7170152999460697,1.0975486049756968,,experiment,emotion,1.0,,,,1393.8716510999948,66,25,female,True,13938,13945,False,False,expiration,expiration
482,80.0,25,M,down,0.7598379000555724,1.32375396386102,,experiment,emotion,1.0,,,,1396.2048578000395,66,25,female,True,13962,13970,False,False,inspiration,expiration
483,80.0,25,M,up,0.4815821000374854,1.8456174757201824,,experiment,emotion,1.0,,,,1399.088097000029,66,25,female,True,13990,13995,False,False,inspiration,inspiration
484,87.0,25,M,up,0.5034420000156388,1.9867171250901623,,experiment,emotion,1.0,,,,1401.8212337000296,66,25,female,True,14018,14023,False,False,inspiration,inspiration
485,91.0,25,F,down,1.0256944000720978,0.33201386428024543,,experiment,emotion,1.0,,,,1402.9379773000255,66,25,female,True,14029,14039,False,False,expiration,expiration
486,91.0,25,F,up,0.8674873000709341,1.7839351171227709,,experiment,emotion,1.0,,,,1406.0211921000155,66,25,female,True,14060,14069,False,False,peak,expiration
487,80.0,25,M,up,0.9508833000436424,0.5134199446991577,,experiment,emotion,1.0,,,,1407.6877913000062,66,25,female,True,14076,14086,False,False,expiration,expiration
488,91.0,25,F,down,1.0693617999786509,0.3943018858588697,,experiment,emotion,1.0,,,,1409.3043757000705,66,25,female,True,14092,14103,False,False,inspiration,peak
489,83.0,25,F,up,0.4570673999842256,1.2196192695191863,,experiment,emotion,1.0,,,,1411.887632100028,66,25,female,True,14118,14123,False,False,expiration,expiration
490,87.0,25,F,up,0.8598857000470161,0.6909270086266383,,experiment,emotion,1.0,,,,1413.3207877000095,66,25,female,True,14133,14142,False,False,inspiration,expiration
491,83.0,25,M,up,1.0291930000530556,1.5303801857741182,,experiment,emotion,1.0,,,,1415.9874799000102,66,25,female,True,14159,14169,False,False,expiration,inspiration
492,80.0,25,F,down,1.127250300021842,0.3049689515735226,,experiment,emotion,1.0,,,,1417.5874230000188,66,25,female,True,14175,14186,False,False,peak,expiration
493,87.0,25,F,up,0.5777501000557095,1.0273345706576416,,experiment,emotion,1.0,,,,1420.004007200012,66,25,female,True,14199,14205,False,False,inspiration,inspiration
494,83.0,25,F,up,0.541741400025785,0.5964296947886956,,experiment,emotion,1.0,,,,1421.4539374000158,66,25,female,True,14214,14219,False,False,expiration,expiration
495,87.0,25,M,down,0.6237899999832734,0.3420903864215191,,experiment,emotion,1.0,,,,1422.6038766000422,66,25,female,True,14225,14231,False,False,expiration,trough
496,80.0,25,M,up,0.6255528000183403,1.4790525333137683,,experiment,emotion,1.0,,,,1424.9871518000725,66,25,female,True,14249,14255,False,False,expiration,expiration
497,91.0,25,F,up,0.9219697000226006,0.569793086982332,,experiment,emotion,1.0,,,,1426.4537540000165,66,25,female,True,14264,14273,False,False,expiration,inspiration
498,87.0,25,M,down,0.9206354999914764,0.8982408339585692,,experiment,emotion,1.0,,,,1428.5370415999787,66,25,female,True,14285,14294,False,False,expiration,expiration
499,91.0,25,F,up,0.8037773999385536,1.9581755500910012,,experiment,emotion,1.0,,,,1431.6868992000818,66,25,female,True,14316,14324,False,False,expiration,expiration
500,80.0,25,M,down,1.0988948000594974,1.9606649899293662,,experiment,emotion,1.0,,,,1434.7368134000574,66,25,female,True,14347,14358,False,False,inspiration,expiration
501,83.0,25,M,down,0.8270032000727952,1.6120495369161638,,experiment,emotion,1.0,,,,1437.736673300038,66,25,female,True,14377,14385,False,False,inspiration,expiration
502,0.07550963608205885,25,up,down,0.8897483999608085,0.7900540513343963,,experiment,cRDM,2.0,,,,1456.9859469999792,66,25,female,True,14569,14578,False,False,inspiration,expiration
503,0.07550963608205885,25,up,down,0.6290863000322133,0.5049607158309617,,experiment,cRDM,2.0,,,,1458.6525817000077,66,25,female,True,14586,14592,False,False,expiration,inspiration
504,0.07550963608205885,25,down,down,0.6488455000799149,1.0769435722535372,,experiment,cRDM,2.0,,,,1460.6358428000242,66,25,female,True,14606,14612,False,False,expiration,expiration
505,0.07550963608205885,25,down,up,0.815466900006868,1.7490746163552415,,experiment,cRDM,2.0,,,,1463.3022469000425,66,25,female,True,14633,14641,False,False,expiration,expiration
506,0.07550963608205885,25,up,up,0.6786517999134958,1.944431464804652,,experiment,cRDM,2.0,,,,1466.3190120999936,66,25,female,True,14663,14670,False,False,inspiration,expiration
507,0.07550963608205885,25,down,down,0.7787190000526607,0.3460169905963612,,experiment,cRDM,2.0,,,,1467.618952000048,66,25,female,True,14676,14684,False,False,expiration,inspiration
508,0.07550963608205885,25,up,up,0.8731935999821872,1.7346020792284678,,experiment,cRDM,2.0,,,,1470.3854695999762,66,25,female,True,14703,14712,False,False,expiration,inspiration
509,0.07550963608205885,25,up,down,0.9653130000224336,1.465735806814611,,experiment,cRDM,2.0,,,,1472.9853757000528,66,25,female,True,14729,14739,False,False,trough,inspiration
510,0.07550963608205885,25,down,down,0.7229880000231788,0.527533302104358,,experiment,cRDM,2.0,,,,1474.7186743000054,66,25,female,True,14747,14754,False,False,expiration,expiration
511,0.07550963608205885,25,down,up,0.8762118999147788,1.6151173208552605,,experiment,cRDM,2.0,,,,1477.318597399979,66,25,female,True,14773,14782,False,False,expiration,expiration
512,0.07550963608205885,25,down,down,0.8975906999548897,1.0400412991094292,,experiment,cRDM,2.0,,,,1479.5020753000863,66,25,female,True,14795,14804,False,False,inspiration,expiration
513,0.07550963608205885,25,down,down,0.8905696999281645,0.3166270213298668,,experiment,cRDM,2.0,,,,1480.9850936000007,66,25,female,True,14809,14818,False,False,expiration,expiration
514,0.07550963608205885,25,down,down,0.5317400000058115,1.996127321374716,,experiment,cRDM,2.0,,,,1484.1349657999813,66,25,female,True,14841,14846,False,False,expiration,expiration
515,0.07550963608205885,25,down,down,0.6734435999533162,1.4340332589325897,,experiment,cRDM,2.0,,,,1486.3682548999786,66,25,female,True,14863,14870,False,False,inspiration,expiration
516,0.07550963608205885,25,up,down,0.8319134999765083,1.6441761259414795,,experiment,cRDM,2.0,,,,1488.9348051000852,66,25,female,True,14889,14897,False,False,trough,inspiration
517,0.07550963608205885,25,up,down,1.1099148000357673,0.7516694601536188,,experiment,cRDM,2.0,,,,1490.7847251000348,66,25,female,True,14907,14918,False,False,expiration,expiration
518,0.07550963608205885,25,up,up,0.6713230999885127,0.4938319252913346,,experiment,cRDM,2.0,,,,1492.6513336000498,66,25,female,True,14926,14933,False,False,inspiration,inspiration
519,0.07550963608205885,25,up,down,0.7957210000604391,1.2874874391186721,,experiment,cRDM,2.0,,,,1494.8679098000284,66,25,female,True,14948,14956,False,False,expiration,inspiration
520,0.07550963608205885,25,down,down,0.865222999942489,1.4005130555919334,,experiment,cRDM,2.0,,,,1497.3344929000596,66,25,female,True,14973,14982,False,False,expiration,inspiration
521,0.07550963608205885,25,up,up,0.48195740010123705,0.4961329527853229,,experiment,cRDM,2.0,,,,1498.9677565000022,66,25,female,True,14989,14994,False,False,inspiration,expiration
522,0.07550963608205885,25,up,up,0.6019816999323666,1.849730911505076,,experiment,cRDM,2.0,,,,1501.567668600008,66,25,female,True,15015,15021,False,False,inspiration,inspiration
523,0.07550963608205885,25,down,down,0.8477587000234053,1.8804744491783376,,experiment,cRDM,2.0,,,,1504.3008997000286,66,25,female,True,15042,15050,False,False,trough,inspiration
524,0.07550963608205885,25,up,up,0.780175399966538,1.1454544646248666,,experiment,cRDM,2.0,,,,1506.5674829999914,66,25,female,True,15065,15073,False,False,expiration,expiration
525,0.07550963608205885,25,down,down,0.7640000999672338,1.3551690511835088,,experiment,cRDM,2.0,,,,1508.950717000058,66,25,female,True,15089,15097,False,False,expiration,expiration
526,0.07550963608205885,25,down,up,0.6520741999847814,1.5784860953290776,,experiment,cRDM,2.0,,,,1511.550635599997,66,25,female,True,15115,15122,False,False,inspiration,peak
527,0.07550963608205885,25,up,down,0.6647779999766499,0.4141889116551346,,experiment,cRDM,2.0,,,,1512.8839177000336,66,25,female,True,15128,15135,False,False,expiration,expiration
528,0.07550963608205885,25,up,up,0.632481100037694,1.9623908193665731,,experiment,cRDM,2.0,,,,1515.7671569000229,66,25,female,True,15157,15163,False,False,expiration,expiration
529,0.07550963608205885,25,down,down,1.0697238000575453,0.8489663734877944,,experiment,cRDM,2.0,,,,1517.5169770000502,66,25,female,True,15175,15186,False,False,expiration,inspiration
530,0.07550963608205885,25,up,up,0.5996632999740541,0.8042184922468387,,experiment,cRDM,2.0,,,,1519.6669980000006,66,25,female,True,15196,15202,False,False,expiration,expiration
531,0.07550963608205885,25,down,up,0.6270444000838324,0.7134666218362966,,experiment,cRDM,2.0,,,,1521.2336430000141,66,25,female,True,15212,15218,False,False,inspiration,inspiration
532,0.07550963608205885,25,down,down,0.7824768000282347,1.8256836978664184,,experiment,cRDM,2.0,,,,1523.9501791000366,66,25,female,True,15239,15247,False,False,inspiration,inspiration
533,0.07550963608205885,25,down,up,0.7139369999058545,0.58088823482405,,experiment,cRDM,2.0,,,,1525.5667805999985,66,25,female,True,15255,15262,False,False,expiration,expiration
534,0.07550963608205885,25,up,up,0.8902436000062153,0.6867948813793924,,experiment,cRDM,2.0,,,,1527.2333696000278,66,25,female,True,15272,15281,False,False,inspiration,expiration
535,0.07550963608205885,25,up,down,0.6841183999786153,1.0239376542514615,,experiment,cRDM,2.0,,,,1529.416545700049,66,25,female,True,15294,15301,False,False,expiration,inspiration
536,0.07550963608205885,25,up,up,0.6517900000326335,0.9957284107952477,,experiment,cRDM,2.0,,,,1531.3498964000028,66,25,female,True,15313,15320,False,False,expiration,expiration
