,stimLvl,stimTime,rand,response,rt,precedingITI,trialNumber,trialType,stimuli,block,estIntens,estThres,estSlope,trialStart,subject,age,gender,headRest,onset,responsI,manBadOnset,manBadRespons,onset_phase,respons_phase
0,0.9,100,down,,,1.2559670466741932,,introTrial,cRDM,,,,,184.63453439995646,72,23,female,True,1845,0,False,False,inspiration,0
1,150.0,100,F,,,1.0212541119872096,,introTrial,emotion,,,,,189.617670299951,72,23,female,True,1895,0,False,False,expiration,0
2,200.0,25,M,up,0.8451558999950066,0.6387053656128471,,tutorial,emotion,,,,,223.432703199971,72,23,female,True,2233,2241,False,False,inspiration,inspiration
3,200.0,25,M,up,0.6010876000509597,0.6420505007495358,,tutorial,emotion,,,,,225.1827664999873,72,23,female,True,2250,2256,False,False,inspiration,inspiration
4,200.0,25,F,up,0.4808472000295296,0.4498033121022385,,tutorial,emotion,,,,,226.5329695999972,72,23,female,True,2264,2269,False,False,expiration,expiration
5,0.0,25,M,down,0.4595763999968767,1.3186266362023085,,tutorial,emotion,,,,,228.6492984999786,72,23,female,True,2285,2290,False,False,inspiration,inspiration
6,0.0,25,F,down,0.5184213999891654,0.8385901890042922,,tutorial,emotion,,,,,230.23249079997186,72,23,female,True,2301,2306,False,False,expiration,expiration
7,200.0,25,M,up,0.4166082000010647,1.9724315327629056,,tutorial,emotion,,,,,233.0158780000056,72,23,female,True,2328,2332,False,False,expiration,expiration
8,0.0,25,M,up,0.3835318999481387,1.8861362602385885,,tutorial,emotion,,,,,235.61568699998313,72,23,female,True,2354,2358,False,False,expiration,expiration
9,200.0,25,F,up,0.6928451000130735,1.7251605258501217,,tutorial,emotion,,,,,238.04899009998192,72,23,female,True,2379,2386,False,False,inspiration,peak
10,0.0,25,F,down,0.4439352999906987,1.0816172598019993,,tutorial,emotion,,,,,240.0988727999502,72,23,female,True,2399,2403,False,False,expiration,inspiration
11,0.0,25,F,down,0.5763588000554591,1.94475157374444,,tutorial,emotion,,,,,242.7654695999809,72,23,female,True,2426,2432,False,False,expiration,expiration
12,0.9,25,up,up,0.7447553999954835,1.926362509480964,,tutorial,cRDM,,,,,250.93207939999408,72,23,female,True,2508,2515,False,False,expiration,expiration
13,0.9,25,up,up,0.7348089999868535,1.9483934707329151,,tutorial,cRDM,,,,,253.91503669996743,72,23,female,True,2537,2544,False,False,expiration,expiration
14,0.9,25,down,down,0.43053280003368855,1.0078750384065291,,tutorial,cRDM,,,,,255.94831569999226,72,23,female,True,2558,2562,False,False,inspiration,inspiration
15,0.9,25,down,down,0.5672678000410087,0.4188296406180626,,tutorial,cRDM,,,,,257.0816003999789,72,23,female,True,2569,2575,False,False,peak,expiration
16,0.9,25,up,up,0.5279890999663621,1.1257224469566156,,tutorial,cRDM,,,,,259.0648411999573,72,23,female,True,2589,2594,False,False,inspiration,inspiration
17,0.9,25,down,down,0.4167676999932155,1.4231452131113962,,tutorial,cRDM,,,,,261.2814481999958,72,23,female,True,2611,2615,False,False,expiration,expiration
18,0.9,25,up,up,0.6467675000312738,0.787696806600644,,tutorial,cRDM,,,,,262.74806670000544,72,23,female,True,2626,2632,False,False,inspiration,inspiration
19,0.9,25,up,up,0.560565099993255,0.3188664087836289,,tutorial,cRDM,,,,,263.98134080000455,72,23,female,True,2638,2644,False,False,inspiration,expiration
20,0.9,25,down,down,0.4167676000506617,0.9679776554612841,,tutorial,cRDM,,,,,265.7812859999831,72,23,female,True,2656,2660,False,False,expiration,expiration
21,0.9,25,down,down,0.5969252000213601,0.9224687937552822,,tutorial,cRDM,,,,,267.39788780000526,72,23,female,True,2672,2678,False,False,expiration,inspiration
22,100.0,25,M,down,1.1656539000105113,1.1626503035590667,,psi_staircase_training,emotion,,100.0,100.0,25.00050000000001,276.2642196999513,72,23,female,True,2761,2773,False,False,expiration,inspiration
23,145.0,25,M,up,0.714762499963399,1.7260938445428728,,psi_staircase_training,emotion,,145.25719053245996,145.25719053245996,25.000500000000283,279.5140848999726,72,23,female,True,2793,2800,False,False,inspiration,inspiration
24,121.0,25,F,up,0.4794635000289418,1.7175319923853405,,psi_staircase_training,emotion,,120.36392901436103,120.36392901436103,25.71326925488699,282.2973564999993,72,23,female,True,2821,2826,False,False,inspiration,expiration
25,97.0,25,F,down,0.6144587000017054,1.819278438374533,,psi_staircase_training,emotion,,102.38876106084959,102.38876106084959,26.14633372628729,284.9304074999527,72,23,female,True,2848,2854,False,False,inspiration,inspiration
26,113.0,25,M,down,0.6913272999809124,0.7783782423974795,,psi_staircase_training,emotion,,114.01123255420406,114.01123255420406,23.003056417783352,286.68052919994807,72,23,female,True,2865,2872,False,False,expiration,expiration
27,127.0,25,F,down,0.8362397000310011,0.9855329563610582,,psi_staircase_training,emotion,,123.15505271238727,123.15505271238727,23.86267166612523,288.713743100001,72,23,female,True,2885,2893,False,False,inspiration,expiration
28,145.0,25,M,down,0.8105247999774292,0.6397487959934103,,psi_staircase_training,emotion,,133.76245959025556,133.76245959025556,29.226287156732635,290.53029109997436,72,23,female,True,2904,2912,False,False,expiration,trough
29,159.0,25,F,up,0.7471998000401072,0.924818713308458,,psi_staircase_training,emotion,,145.4672174054665,145.4672174054665,34.07518146954166,292.6136327999993,72,23,female,True,2924,2931,False,False,inspiration,expiration
30,156.0,25,F,up,0.7650035999831744,0.7177530165360027,,psi_staircase_training,emotion,,139.79910310307528,139.79910310307528,32.47434818949021,294.4468743999605,72,23,female,True,2943,2951,False,False,expiration,inspiration
31,154.0,25,M,down,0.7433903000201099,0.7371508291936397,,psi_staircase_training,emotion,,135.59900921154042,135.59900921154042,30.972631885178448,296.31346979999216,72,23,female,True,2961,2968,False,False,inspiration,expiration
32,164.0,25,F,down,0.9477526000118814,1.3822405373618472,,psi_staircase_training,emotion,,143.7872215151886,143.7872215151886,34.483905309770385,298.78006699995603,72,23,female,True,2986,2995,False,False,expiration,inspiration
33,171.0,25,F,up,0.7252113999566063,1.2794538232106352,,psi_staircase_training,emotion,,151.72933006160187,151.72933006160187,37.31847104337844,301.34664319996955,72,23,female,True,3012,3019,False,False,expiration,expiration
34,170.0,25,F,up,0.823654500010889,1.1696037168470137,,psi_staircase_training,emotion,,148.47845172640092,148.47845172640092,36.439610533052615,303.6132006999688,72,23,female,True,3034,3042,False,False,inspiration,peak
35,169.0,25,M,up,0.7270141000044532,1.4882729166890405,,psi_staircase_training,emotion,,145.78638676557082,145.78638676557082,35.603483552220546,306.2798051999998,72,23,female,True,3061,3068,False,False,trough,inspiration
36,122.0,25,M,down,0.8008145000203513,1.3012442954350454,,psi_staircase_training,emotion,,143.5352394900417,143.5352394900417,34.814661751436304,308.66302409995114,72,23,female,True,3085,3093,False,False,expiration,expiration
37,124.0,25,F,down,0.8785038000205532,0.50714295822097,,psi_staircase_training,emotion,,145.74593759034127,145.74593759034127,33.93320107995476,310.3463173999917,72,23,female,True,3102,3111,False,False,inspiration,expiration
38,173.0,25,F,up,0.9179973000427708,1.882890596608333,,psi_staircase_training,emotion,,147.67636408615033,147.67636408615033,33.08833419214535,313.46285419998463,72,23,female,True,3133,3142,False,False,inspiration,inspiration
39,123.0,25,M,down,0.7214123000157997,1.050021511474498,,psi_staircase_training,emotion,,146.04450884851175,146.04450884851175,32.103412536036984,315.7794389000046,72,23,female,True,3156,3163,False,False,expiration,expiration
40,174.0,25,M,up,0.8635200000135228,1.9297627401255848,,psi_staircase_training,emotion,,147.58522535823468,147.58522535823468,31.17417806581823,318.77932129998226,72,23,female,True,3186,3195,False,False,expiration,expiration
41,123.0,25,M,down,0.6483032000251114,1.9892884504335517,,psi_staircase_training,emotion,,146.29596562521445,146.29596562521445,30.160207978390282,321.9625496999942,72,23,female,True,3218,3224,False,False,expiration,expiration
42,173.0,25,M,up,0.6686689999769442,0.6341029339603778,,psi_staircase_training,emotion,,147.5726221470186,147.5726221470186,29.18298546333827,323.57914689998137,72,23,female,True,3234,3241,False,False,expiration,inspiration
43,125.0,25,F,down,0.6791974999941885,1.6272329195030766,,psi_staircase_training,emotion,,146.48689443784946,146.48689443784946,28.158120194075664,326.2126355999498,72,23,female,True,3261,3268,False,False,expiration,expiration
44,173.0,25,F,up,0.9031624000053852,0.4697373585309885,,psi_staircase_training,emotion,,147.63591790626137,147.63591790626137,27.155802929981647,327.69563939998625,72,23,female,True,3275,3284,False,False,inspiration,inspiration
45,127.0,25,F,down,0.6725950000109151,0.7548527367256876,,psi_staircase_training,emotion,,146.7576214716939,146.7576214716939,26.160754989483568,329.712259699998,72,23,female,True,3295,3302,False,False,expiration,expiration
46,129.0,25,M,down,0.7346421999973245,0.4055805742861814,,psi_staircase_training,emotion,,147.80561036018713,147.80561036018713,25.161333190923,331.1621979000047,72,23,female,True,3310,3317,False,False,inspiration,peak
47,172.0,25,M,down,0.9006779000046663,0.6938488388471653,,psi_staircase_training,emotion,,148.77262622661655,148.77262622661655,24.21225304671585,332.9621368999942,72,23,female,True,3328,3337,False,False,expiration,trough
48,180.0,25,F,up,0.7152029999997467,0.9615315388801164,,psi_staircase_training,emotion,,152.35100478652006,152.35100478652006,28.959339391469324,335.1787180999527,72,23,female,True,3350,3357,False,False,peak,expiration
49,179.0,25,F,up,0.7801597999641672,0.6319155605304743,,psi_staircase_training,emotion,,151.52950902644378,151.52950902644378,28.026238112805,336.87865639996016,72,23,female,True,3367,3375,False,False,expiration,expiration
50,127.0,25,M,down,0.6942878000554629,1.4872039090635405,,psi_staircase_training,emotion,,150.81763422507646,150.81763422507646,27.153888717508334,339.4785564999911,72,23,female,True,3393,3400,False,False,expiration,expiration
51,178.0,25,M,up,0.8503473000018857,0.8498177313695277,,psi_staircase_training,emotion,,151.5712822970244,151.5712822970244,26.313830089071732,341.37850659998367,72,23,female,True,3412,3421,False,False,expiration,inspiration
52,0.29,25,up,up,0.7968210999970324,0.4412474421484498,,psi_staircase_training,cRDM,,0.25,0.25693124029946324,0.10500000000000002,346.39499079994863,72,23,female,True,3462,3470,False,False,expiration,expiration
53,0.25,25,up,up,0.6683047999977134,1.2359757137773235,,psi_staircase_training,cRDM,,0.21910266653183127,0.2260132002683493,0.10468632033873933,348.7115652999492,72,23,female,True,3485,3492,False,False,expiration,inspiration
54,0.21,25,down,down,0.5233736000373028,1.8959765055104667,,psi_staircase_training,cRDM,,0.1900540959403307,0.19684979615540016,0.10294672984249993,351.5614683000022,72,23,female,True,3514,3519,False,False,expiration,expiration
55,0.18,25,down,up,0.8431827999884263,1.3406008397759062,,psi_staircase_training,cRDM,,0.1635257589279754,0.1701521334256793,0.100381647756865,353.71163429995073,72,23,female,True,3536,3544,False,False,inspiration,expiration
56,0.28,25,up,up,1.0262128000031223,1.5542591284430889,,psi_staircase_training,cRDM,,0.2462894156509761,0.25367687443104303,0.11191116429293203,356.3946010999498,72,23,female,True,3562,3572,False,False,inspiration,expiration
57,0.26,25,down,down,0.6153535000048578,1.8081054869631688,,psi_staircase_training,cRDM,,0.2240209245171441,0.23127202108978026,0.10984543995477343,359.4944919999689,72,23,female,True,3593,3599,False,False,inspiration,inspiration
58,0.23,25,up,up,0.6150873000151478,1.3752759298862849,,psi_staircase_training,cRDM,,0.2047781477371872,0.21182460465655809,0.10674539397966608,361.77775399998063,72,23,female,True,3616,3622,False,False,expiration,expiration
59,0.23,25,down,down,0.5444820999982767,1.776880780750764,,psi_staircase_training,cRDM,,0.1874201716315257,0.19431844658589745,0.10450061445209473,364.4443514999583,72,23,female,True,3643,3648,False,False,inspiration,expiration
60,0.21,25,down,down,0.8499015000415966,1.1445540631490327,,psi_staircase_training,cRDM,,0.17345971586379055,0.18012712878884973,0.10100333084475896,366.41092719999136,72,23,female,True,3662,3670,False,False,expiration,expiration
61,0.17,25,up,up,0.5766376000246964,1.9606534973681864,,psi_staircase_training,cRDM,,0.16045966703622236,0.16702796679355406,0.09950188490409588,369.49417309998535,72,23,female,True,3693,3699,False,False,inspiration,inspiration
62,0.17,25,down,down,0.6482190000242554,1.8924576086553395,,psi_staircase_training,cRDM,,0.14444951683624788,0.15146531287032866,0.10628091824136077,372.2276245999965,72,23,female,True,3721,3727,False,False,expiration,expiration
63,0.16,25,down,down,0.7281528000021353,0.7083628146035426,,psi_staircase_training,cRDM,,0.129450188150751,0.13674374107005438,0.11048860282425356,373.8606438999996,72,23,female,True,3737,3744,False,False,trough,inspiration
64,0.16,25,down,up,0.7382787000387907,1.6600140601461435,,psi_staircase_training,cRDM,,0.1156905289793604,0.12313757205788642,0.1128137951451177,376.51052459998766,72,23,female,True,3763,3770,False,False,inspiration,inspiration
65,0.19,25,up,up,0.7910271000000648,0.5599336566679141,,psi_staircase_training,cRDM,,0.16059756759930446,0.1680496659611478,0.11289037664069253,378.0938026999937,72,23,female,True,3779,3787,False,False,inspiration,inspiration
66,0.16,25,up,down,0.6637521000229754,1.710401329618266,,psi_staircase_training,cRDM,,0.1491683409477305,0.1567653628909072,0.1150857955531169,380.8770553999929,72,23,female,True,3807,3814,False,False,inspiration,expiration
67,0.22,25,down,down,0.6029645000235178,1.397908413544913,,psi_staircase_training,cRDM,,0.18122678406856352,0.18763244962219325,0.0970381712466678,383.22683669999236,72,23,female,True,3831,3837,False,False,expiration,expiration
68,0.21,25,down,down,0.8388167999801226,1.9927361754869573,,psi_staircase_training,cRDM,,0.17404574987396845,0.18009482637836718,0.09163627367111377,386.11000429996056,72,23,female,True,3860,3868,False,False,expiration,expiration
69,0.2,25,up,up,0.6631054000463337,1.7050587350805375,,psi_staircase_training,cRDM,,0.16808263956653735,0.17382946142873207,0.08705747737200394,388.92672789999045,72,23,female,True,3888,3895,False,False,inspiration,expiration
70,0.19,25,up,up,0.678389199951198,0.6758521566218902,,psi_staircase_training,cRDM,,0.16252882532499802,0.16809079357876933,0.08425716630993302,390.5434328999836,72,23,female,True,3904,3911,False,False,expiration,expiration
71,0.16,25,up,down,0.7963108999538235,0.4457523344696545,,psi_staircase_training,cRDM,,0.15654951460485647,0.16211495227104147,0.08430972375819618,391.92651849996764,72,23,female,True,3918,3926,False,False,inspiration,inspiration
72,0.2,25,up,down,0.9232712999801151,1.9738118194224017,,psi_staircase_training,cRDM,,0.17620152676869955,0.18019780593264584,0.06053884933795384,394.9765367999789,72,23,female,True,3948,3957,False,False,expiration,inspiration
73,0.23,25,down,down,0.7057042000233196,1.3100635902907682,,psi_staircase_training,cRDM,,0.19523624473724466,0.2009526368648103,0.0865965032897316,397.4931043999968,72,23,female,True,3973,3980,False,False,expiration,expiration
74,0.23,25,down,down,0.7021530999918468,1.87563653377646,,psi_staircase_training,cRDM,,0.19007053686046416,0.19531513962413535,0.07944945873945825,400.3596693999716,72,23,female,True,4002,4009,False,False,expiration,expiration
75,0.22,25,down,up,0.883228600025177,0.5216531651350828,,psi_staircase_training,cRDM,,0.1864568295595666,0.19124753191561875,0.07257341047956839,401.85961220000166,72,23,female,True,4017,4026,False,False,expiration,inspiration
76,0.25,25,up,up,0.6449499999871477,0.6223255843662335,,psi_staircase_training,cRDM,,0.2061848196383349,0.21375122692143933,0.11462202007157166,403.6428812999511,72,23,female,True,4035,4041,False,False,inspiration,expiration
77,0.24,25,up,up,0.7906778999604285,1.6716745291210977,,psi_staircase_training,cRDM,,0.19968019677403206,0.2068536372006255,0.10866904222764168,406.2261224999674,72,23,female,True,4061,4069,False,False,expiration,inspiration
78,0.24,25,down,down,0.6457795000169426,1.7296929903419165,,psi_staircase_training,cRDM,,0.19442620284244586,0.2011987129937502,0.1025954281143624,409.0260211999994,72,23,female,True,4089,4095,False,False,expiration,expiration
79,0.24,25,down,down,0.6281896999571472,0.7947840166336421,,psi_staircase_training,cRDM,,0.19046154355931436,0.19682390901335226,0.09638222652960264,410.7426191999692,72,23,female,True,4106,4112,False,False,inspiration,inspiration
80,0.2,25,up,up,0.5632825000211596,0.9126395602359084,,psi_staircase_training,cRDM,,0.18757880059598966,0.1935323312644094,0.0901888685395139,412.54255359998206,72,23,female,True,4124,4130,False,False,expiration,expiration
81,0.2,25,up,down,0.7219871999695897,0.6234456715475234,,psi_staircase_training,cRDM,,0.1809453171585237,0.18723108707468888,0.09522189574764177,414.02584019995993,72,23,female,True,4139,4146,False,False,expiration,inspiration
82,100.0,25,M,down,0.7728755999705754,1.1557473031436212,,psi_staircase,emotion,,100.0,100.0,25.00050000000001,428.64194169995613,72,23,female,True,4285,4293,False,False,inspiration,expiration
83,145.0,25,M,up,0.8876248000306077,1.7608118451086443,,psi_staircase,emotion,,145.25719053245996,145.25719053245996,25.000500000000283,431.5251873999951,72,23,female,True,4314,4323,False,False,inspiration,inspiration
84,121.0,25,F,up,0.9056649000267498,1.2415687047219488,,psi_staircase,emotion,,120.36392901436103,120.36392901436103,25.71326925488699,434.00830089999357,72,23,female,True,4339,4348,False,False,expiration,expiration
85,97.0,25,F,down,0.6527742000180297,0.8225243821812074,,psi_staircase,emotion,,102.38876106084959,102.38876106084959,26.14633372628729,436.07502180000296,72,23,female,True,4359,4366,False,False,inspiration,expiration
86,113.0,25,M,down,0.644580899970606,1.3763060959669735,,psi_staircase,emotion,,114.01123255420406,114.01123255420406,23.003056417783352,438.4582501999685,72,23,female,True,4383,4389,False,False,expiration,expiration
87,127.0,25,F,down,0.6926193999825045,0.7574904984167312,,psi_staircase,emotion,,123.15505271238727,123.15505271238727,23.86267166612523,440.20821529999375,72,23,female,True,4400,4407,False,False,inspiration,expiration
88,145.0,25,M,up,0.659703699988313,1.7761640901122868,,psi_staircase,emotion,,133.76245959025556,133.76245959025556,29.226287156732635,443.0080722999992,72,23,female,True,4428,4435,False,False,inspiration,inspiration
89,140.0,25,F,up,0.6881168999825604,0.6430963140355188,,psi_staircase,emotion,,127.93269301967058,127.93269301967058,26.811207544202706,444.6747146999696,72,23,female,True,4445,4452,False,False,expiration,expiration
90,110.0,25,F,down,0.7008995999931358,1.2885207806339638,,psi_staircase,emotion,,123.88610585272785,123.88610585272785,24.78448773292298,447.00790619995684,72,23,female,True,4468,4475,False,False,inspiration,inspiration
91,137.0,25,M,up,0.9242841000086628,1.2154392341385856,,psi_staircase,emotion,,126.7347585660952,126.7347585660952,22.92532271956412,449.2745409999625,72,23,female,True,4491,4500,False,False,expiration,inspiration
92,111.0,25,F,down,0.742660700052511,0.8666025606645029,,psi_staircase,emotion,,123.88369890517951,123.88369890517951,20.899202339967864,451.44112879998283,72,23,female,True,4513,4520,False,False,expiration,expiration
93,134.0,25,F,up,0.7465350000420585,1.0701086509364308,,psi_staircase,emotion,,125.7885378881843,125.7885378881843,19.033043596315803,453.6242485999828,72,23,female,True,4535,4542,False,False,expiration,inspiration
94,117.0,25,F,down,0.8190596000058576,0.3773994188892621,,psi_staircase,emotion,,123.6634519488382,123.6634519488382,17.210675921352436,455.09100169996964,72,23,female,True,4549,4557,False,False,inspiration,expiration
95,136.0,25,M,down,0.8273456000024453,1.2618738702072505,,psi_staircase,emotion,,125.50607039304137,125.50607039304137,15.78959440452799,457.5244864999549,72,23,female,True,4574,4582,False,False,inspiration,inspiration
96,147.0,25,M,up,0.6524373000138439,1.5893386319895657,,psi_staircase,emotion,,129.81637253074922,129.81637253074922,21.836572847636557,460.3074402000057,72,23,female,True,4601,4608,False,False,expiration,expiration
97,146.0,25,F,up,0.9412174999597482,1.907368853972684,,psi_staircase,emotion,,128.48148512949572,128.48148512949572,20.039111869872368,463.2406696999678,72,23,female,True,4631,4640,False,False,inspiration,inspiration
98,113.0,25,F,down,0.7675901000038721,1.5728550652852868,,psi_staircase,emotion,,127.53408440305115,127.53408440305115,18.514909188694663,466.1072377999663,72,23,female,True,4659,4667,False,False,expiration,expiration
99,144.0,25,M,up,1.1772730000084266,0.5430218454320506,,psi_staircase,emotion,,128.51393541136946,128.51393541136946,17.069703878730706,467.7905105999671,72,23,female,True,4676,4688,False,False,expiration,inspiration
100,115.0,25,M,down,0.713829500018619,1.1892147256094787,,psi_staircase,emotion,,127.78926711735102,127.78926711735102,15.785137084553106,470.5070469999919,72,23,female,True,4704,4711,False,False,inspiration,inspiration
101,118.0,25,M,down,0.7014842000207864,0.9800156035468084,,psi_staircase,emotion,,128.59176236356626,128.59176236356626,14.585075470248348,472.5403216999839,72,23,female,True,4724,4731,False,False,inspiration,inspiration
102,141.0,25,M,down,0.820918100012932,1.6664304672985772,,psi_staircase,emotion,,129.34701780209184,129.34701780209184,13.577466603804195,475.2568730000057,72,23,female,True,4751,4759,False,False,expiration,expiration
103,150.0,25,F,down,0.9426500000408852,1.8587106938109408,,psi_staircase,emotion,,132.15912594343462,132.15912594343462,18.041690916571977,478.29010929999635,72,23,female,True,4781,4790,False,False,inspiration,inspiration
104,158.0,25,F,down,0.5815321999834849,1.442496042063657,,psi_staircase,emotion,,135.7566586288961,135.7566586288961,24.74567471403107,481.02325919998117,72,23,female,True,4809,4815,False,False,expiration,expiration
105,167.0,25,F,up,0.6798472999944352,0.7475227887817075,,psi_staircase,emotion,,140.08764655590454,140.08764655590454,31.111164039065738,482.70693539996864,72,23,female,True,4826,4833,False,False,expiration,inspiration
106,166.0,25,M,up,0.715896799985785,0.892806738915354,,psi_staircase,emotion,,138.94959283053532,138.94959283053532,29.914628710006703,484.63989890000084,72,23,female,True,4845,4852,False,False,inspiration,inspiration
107,165.0,25,M,up,1.0073077999986708,0.5556128491173398,,psi_staircase,emotion,,137.98430401181236,137.98430401181236,28.77815128511723,486.25650779996073,72,23,female,True,4861,4871,False,False,trough,peak
108,164.0,25,F,up,0.9581204999703914,1.9802432240069687,,psi_staircase,emotion,,137.1633443206432,137.1633443206432,27.705481342189017,489.5896882999805,72,23,female,True,4894,4904,False,False,inspiration,expiration
109,163.0,25,F,up,0.9515145999612288,1.0840612533286564,,psi_staircase,emotion,,136.46240838505008,136.46240838505008,26.69822367433499,491.9563158999663,72,23,female,True,4918,4928,False,False,expiration,expiration
110,110.0,25,M,down,0.6952108000405133,0.4891933444202108,,psi_staircase,emotion,,135.86073521789422,135.86073521789422,25.756210851388197,493.73954949999467,72,23,female,True,4936,4943,False,False,expiration,inspiration
111,162.0,25,M,up,0.7243289999896659,1.6355827928510902,,psi_staircase,emotion,,136.42247695489203,136.42247695489203,24.845947046361285,496.4394594999612,72,23,female,True,4963,4970,False,False,expiration,expiration
112,111.0,25,F,down,0.6937669999897479,0.739804672000162,,psi_staircase,emotion,,135.90323643024715,135.90323643024715,23.96997668445278,498.2560621000012,72,23,female,True,4981,4988,False,False,expiration,inspiration
113,160.0,25,M,up,0.7701821000082418,1.6507315405816092,,psi_staircase,emotion,,136.3920145127718,136.3920145127718,23.13316738446037,500.97263169998774,72,23,female,True,5008,5016,False,False,expiration,expiration
114,113.0,25,F,down,0.7040133000118658,1.2259147180537775,,psi_staircase,emotion,,135.91751588597066,135.91751588597066,22.326850251804093,503.30578749999404,72,23,female,True,5032,5039,False,False,expiration,expiration
115,159.0,25,M,up,0.7202724000089802,0.4568983175661121,,psi_staircase,emotion,,136.3696874326342,136.3696874326342,21.56181047933917,504.82251309999276,72,23,female,True,5047,5054,False,False,inspiration,inspiration
116,114.0,25,F,down,0.7978035000269301,1.8007608911828488,,psi_staircase,emotion,,135.95091708787322,135.95091708787322,20.84467258919884,507.6890199999907,72,23,female,True,5075,5083,False,False,expiration,expiration
117,157.0,25,M,down,1.3461450000177138,1.0132167229615476,,psi_staircase,emotion,,136.35389441293702,136.35389441293702,20.167960951354374,509.8556394999614,72,23,female,True,5097,5110,False,False,inspiration,inspiration
118,164.0,25,F,up,0.7959511000080965,1.387608978079299,,psi_staircase,emotion,,138.5063667194797,138.5063667194797,23.62985154594893,512.93883249996,72,23,female,True,5128,5136,False,False,inspiration,expiration
119,114.0,25,M,down,0.7396303999703377,0.4810640067240034,,psi_staircase,emotion,,138.11260008999187,138.11260008999187,22.936334474204198,514.5721589999739,72,23,female,True,5144,5151,False,False,expiration,expiration
120,163.0,25,M,up,0.7201139000244439,0.9668052226586249,,psi_staircase,emotion,,138.4947210263555,138.4947210263555,22.284794994708623,516.6387145000043,72,23,female,True,5165,5172,False,False,inspiration,inspiration
121,115.0,25,F,down,0.7005736000137404,1.1855991353982676,,psi_staircase,emotion,,138.1414175462223,138.1414175462223,21.666806659219226,518.9052308999817,72,23,female,True,5188,5195,False,False,expiration,expiration
122,162.0,25,F,up,0.7062760000117123,1.7272424945946507,,psi_staircase,emotion,,138.49254661340285,138.49254661340285,21.084759696438912,521.6885237999959,72,23,female,True,5215,5222,False,False,inspiration,inspiration
123,116.0,25,F,down,0.6858353999559768,0.4554152705821243,,psi_staircase,emotion,,138.17124090791222,138.17124090791222,20.53904851376015,523.2049859999679,72,23,female,True,5231,5238,False,False,expiration,expiration
124,160.0,25,M,up,0.6257431000121869,0.6639077329373123,,psi_staircase,emotion,,138.49795737266015,138.49795737266015,20.02234032341188,524.9050630999845,72,23,female,True,5248,5254,False,False,inspiration,inspiration
125,118.0,25,M,down,0.6664532999857329,0.3224215884742601,,psi_staircase,emotion,,138.1826814066567,138.1826814066567,19.533265447999028,526.1883518999675,72,23,female,True,5260,5267,False,False,inspiration,inspiration
126,159.0,25,F,up,0.7205295999883674,1.6294235942377675,,psi_staircase,emotion,,138.51048335788374,138.51048335788374,19.066656155292357,528.8382772000041,72,23,female,True,5287,5294,False,False,expiration,expiration
127,119.0,25,F,down,0.6868947999901138,1.6379615947681678,,psi_staircase,emotion,,138.2147611938508,138.2147611938508,18.63496187932665,531.5548992999829,72,23,female,True,5314,5321,False,False,inspiration,inspiration
128,120.0,25,F,down,0.9809822000097485,0.44323588914510026,,psi_staircase,emotion,,138.5273524763253,138.5273524763253,18.219199501203367,533.0218072999851,72,23,female,True,5329,5339,False,False,inspiration,inspiration
129,157.0,25,M,up,0.6686522999661975,1.8701432109706349,,psi_staircase,emotion,,138.8278155893683,138.8278155893683,17.83355870974388,536.2211474999784,72,23,female,True,5361,5368,False,False,inspiration,inspiration
130,121.0,25,M,down,0.7212363000144251,0.8136712462229321,,psi_staircase,emotion,,138.52727740741716,138.52727740741716,17.45717848055957,538.0545867999898,72,23,female,True,5379,5386,False,False,inspiration,expiration
131,156.0,25,M,up,0.8409727999824099,1.7756321373385573,,psi_staircase,emotion,,138.81975531737942,138.81975531737942,17.10963246873725,540.8878125000047,72,23,female,True,5407,5415,False,False,expiration,inspiration
132,0.29,25,up,up,0.6254718999844044,0.4460934734926149,,psi_staircase,cRDM,,0.25,0.25693124029946324,0.10500000000000002,546.554308199964,72,23,female,True,5464,5470,False,False,expiration,inspiration
133,0.25,25,up,up,0.41988810000475496,1.0205336021299558,,psi_staircase,cRDM,,0.21910266653183127,0.2260132002683493,0.10468632033873933,548.4708978999988,72,23,female,True,5483,5487,False,False,inspiration,inspiration
134,0.21,25,down,down,0.5166951999999583,0.6003052889764351,,psi_staircase,cRDM,,0.1900540959403307,0.19684979615540016,0.10294672984249993,549.7541640999843,72,23,female,True,5496,5501,False,False,inspiration,expiration
135,0.18,25,down,down,0.490703699993901,0.5738933710623462,,psi_staircase,cRDM,,0.1635257589279754,0.1701521334256793,0.100381647756865,551.1040909999865,72,23,female,True,5509,5514,False,False,expiration,expiration
136,0.15,25,up,up,0.491214299981948,1.562550337735848,,psi_staircase,cRDM,,0.14018955742449365,0.14660133511875031,0.0971307628663642,553.4205942999688,72,23,female,True,5533,5538,False,False,inspiration,peak
137,0.13,25,down,down,0.4869015999720432,1.0294959341516583,,psi_staircase,cRDM,,0.11987606021454796,0.12605547676183335,0.09361076941961036,555.2039375999593,72,23,female,True,5550,5555,False,False,expiration,expiration
138,0.11,25,up,up,0.5389283999684267,1.1408873699518456,,psi_staircase,cRDM,,0.10257735236965487,0.10849103445698656,0.08958521019937955,557.1038883999572,72,23,female,True,5569,5574,False,False,inspiration,expiration
139,0.09,25,down,down,0.4956539000268094,1.0757306325481837,,psi_staircase,cRDM,,0.08784432595859408,0.09348182153209693,0.08540131486476357,558.9871400999837,72,23,female,True,5588,5593,False,False,expiration,expiration
140,0.08,25,down,up,0.5440709000104107,1.9104657976487165,,psi_staircase,cRDM,,0.07518520921180863,0.0805556301471181,0.08135545354720439,561.6537352000014,72,23,female,True,5615,5620,False,False,expiration,expiration
141,0.13,25,up,up,0.6841174999717623,0.4855778308072951,,psi_staircase,cRDM,,0.1145374077699418,0.12103712105675656,0.09846288191283688,562.9536841999507,72,23,female,True,5628,5635,False,False,expiration,inspiration
142,0.13,25,down,down,0.5531868999823928,1.7712949425786837,,psi_staircase,cRDM,,0.1023941484636294,0.10857748278643099,0.09367011903258447,565.6535767999594,72,23,female,True,5655,5661,False,False,expiration,expiration
143,0.12,25,down,up,0.6592853000038303,1.37999003502873,,psi_staircase,cRDM,,0.093157405715179,0.09896538803474302,0.08798398514641666,567.8534900999513,72,23,female,True,5677,5684,False,False,inspiration,peak
144,0.16,25,down,down,0.7694184000138193,1.5197527582980068,,psi_staircase,cRDM,,0.1290085181734406,0.136602985232638,0.11504709211675675,570.3034010999836,72,23,female,True,5701,5709,False,False,expiration,inspiration
145,0.16,25,up,up,0.8321258000214584,0.7551338087029283,,psi_staircase,cRDM,,0.1173317507949223,0.12465379317969215,0.1109201841494908,572.086672299949,72,23,female,True,5719,5727,False,False,peak,expiration
146,0.15,25,up,down,0.7120057999854907,1.5340148131085531,,psi_staircase,cRDM,,0.10843366749217152,0.11543044405032805,0.10599279593052408,574.7197689999592,72,23,female,True,5746,5753,False,False,inspiration,peak
147,0.2,25,down,down,0.9282805000548252,0.8858074725644356,,psi_staircase,cRDM,,0.14409855016609446,0.15281347691523378,0.1320207162245539,576.5865006999811,72,23,female,True,5764,5773,False,False,expiration,expiration
148,0.19,25,down,down,0.6653998999972828,1.796537566879178,,psi_staircase,cRDM,,0.13259126637712648,0.14112390346443188,0.12925924588654691,579.5864048999501,72,23,female,True,5794,5801,False,False,expiration,expiration
149,0.18,25,up,up,0.4885880999499932,1.9237489031913664,,psi_staircase,cRDM,,0.12330393288083467,0.13162155480034854,0.12600202327664015,582.4362811999745,72,23,female,True,5823,5828,False,False,inspiration,expiration
150,0.14,25,up,down,0.8845339000108652,0.598219293279348,,psi_staircase,cRDM,,0.11572233632952808,0.12381126019289072,0.1225375212743451,583.7862338999985,72,23,female,True,5836,5845,False,False,expiration,expiration
151,0.19,25,up,down,1.1886888999724758,1.4601814632595576,,psi_staircase,cRDM,,0.14390715321124453,0.15170733826677835,0.11816347369957345,586.3861255999656,72,23,female,True,5862,5874,False,False,expiration,expiration
152,0.25,25,up,up,0.992070699983742,0.8188520386508253,,psi_staircase,cRDM,,0.1805514960257723,0.18995523484363566,0.14245539516962352,588.6527295999695,72,23,female,True,5885,5895,False,False,inspiration,inspiration
153,0.23,25,down,down,0.6547988000093028,0.5377768043816421,,psi_staircase,cRDM,,0.16892476275656587,0.1781996342304796,0.14050320904850966,590.4360112999566,72,23,female,True,5903,5910,False,False,expiration,expiration
154,0.22,25,down,down,0.6355381000321358,1.8560265557377342,,psi_staircase,cRDM,,0.15898263716357036,0.16810727799379072,0.13822739448916946,593.219239099999,72,23,female,True,5931,5937,False,False,inspiration,expiration
155,0.18,25,down,down,0.8915839000255801,1.1183889611425464,,psi_staircase,cRDM,,0.15061977199988713,0.15957534033127913,0.13566614836149532,595.2191915999865,72,23,female,True,5951,5960,False,False,expiration,expiration
156,0.18,25,up,up,0.5977505999617279,1.3901386719513993,,psi_staircase,cRDM,,0.14192950580985705,0.150895208280746,0.1358196684533131,597.7690599999622,72,23,female,True,5976,5982,False,False,inspiration,expiration
157,0.18,25,up,up,0.8341210000216961,1.5490542509501677,,psi_staircase,cRDM,,0.13446387715597125,0.14337734461373364,0.1350283704833498,600.1856785999844,72,23,female,True,6000,6008,False,False,inspiration,inspiration
158,0.18,25,down,down,0.7852858999976888,1.2062744190836074,,psi_staircase,cRDM,,0.12812460436492362,0.136936679001517,0.13349239051976827,602.4855475999648,72,23,female,True,6023,6031,False,False,expiration,expiration
159,0.13,25,down,down,0.7316053999820724,0.32213508185081274,,psi_staircase,cRDM,,0.12279156798175975,0.13146384502819045,0.1313746242423215,603.8521773999672,72,23,female,True,6037,6044,False,False,expiration,trough
160,0.13,25,up,up,0.5393351000384428,0.4951804500602969,,psi_staircase,cRDM,,0.11545308753563875,0.12446069954655035,0.13645454785616912,605.3354472999928,72,23,female,True,6052,6057,False,False,inspiration,inspiration
161,0.13,25,up,down,1.0898712999769486,0.8731808788897966,,psi_staircase,cRDM,,0.10865979222097256,0.11790987494226915,0.14012768909647452,607.0019216999643,72,23,female,True,6069,6080,False,False,expiration,expiration
162,0.19,25,down,down,0.6660851999768056,0.6441744828580429,,psi_staircase,cRDM,,0.1275686181099299,0.13631367976120387,0.13247722394718794,609.0186840999522,72,23,female,True,6089,6096,False,False,inspiration,inspiration
163,0.13,25,up,up,0.6172116000088863,0.9741564845108388,,psi_staircase,cRDM,,0.12356181579133126,0.13210204527759312,0.1293742616493815,610.9185620999779,72,23,female,True,6108,6114,False,False,expiration,expiration
164,0.13,25,down,down,0.6513171000406146,1.8671408681575343,,psi_staircase,cRDM,,0.11687293751894505,0.1257789739037973,0.1349157986171537,613.6684868999872,72,23,female,True,6135,6142,False,False,expiration,expiration
165,0.13,25,up,up,0.5277128000161609,1.9033324403715135,,psi_staircase,cRDM,,0.1106332049881422,0.11981185681301484,0.1390455964549747,616.5020481999964,72,23,female,True,6164,6169,False,False,inspiration,inspiration
166,0.13,25,down,down,0.7431646999903023,1.4588573294429894,,psi_staircase,cRDM,,0.10489199323683494,0.11426576008899385,0.14200135573901568,618.7516390999663,72,23,female,True,6186,6193,False,False,expiration,expiration
167,0.12,25,up,up,0.6668726999778299,1.130983141988366,,psi_staircase,cRDM,,0.09964589881808382,0.10915337530572884,0.14402689678498554,620.8848810999771,72,23,female,True,6207,6214,False,False,inspiration,expiration
168,0.13,25,down,down,0.7069865000084974,0.720085524400755,,psi_staircase,cRDM,,0.09465535434893116,0.1042826614557258,0.14584218733430926,622.5348192999953,72,23,female,True,6224,6231,False,False,expiration,expiration
169,0.14,25,up,up,0.6104230999480933,1.940139944362078,,psi_staircase,cRDM,,0.09027791620009776,0.09995545213670406,0.14660309402667054,625.4513554999721,72,23,female,True,6253,6259,False,False,expiration,expiration
170,0.17,25,up,up,0.6154604000039399,0.3278692794809195,,psi_staircase,cRDM,,0.08652462224721608,0.09619489256979573,0.1464930286646519,626.6513405999867,72,23,female,True,6265,6271,False,False,expiration,expiration
171,0.11,25,down,down,0.5385225999634713,1.7331447280661418,,psi_staircase,cRDM,,0.0838220671226125,0.09340777121075232,0.1452119513635421,629.2512341999683,72,23,female,True,6291,6296,False,False,inspiration,inspiration
172,0.11,25,down,down,0.8259794999612495,1.9101531844714623,,psi_staircase,cRDM,,0.07989323674762336,0.08954306914856443,0.14618341859786252,631.9678064999753,72,23,female,True,6318,6326,False,False,expiration,expiration
173,0.18,25,down,down,0.7353879999718629,1.2894678129127648,,psi_staircase,cRDM,,0.07626223919800203,0.08595066456061268,0.14676805580566793,634.3344029999571,72,23,female,True,6342,6349,False,False,inspiration,inspiration
174,0.11,25,up,up,0.5179980000248179,1.6581852947110611,,psi_staircase,cRDM,,0.07424120185631683,0.08383755785180813,0.14537331501904704,637.0007722000008,72,23,female,True,6369,6374,False,False,inspiration,inspiration
175,0.18,25,up,up,0.849599999957718,1.0998782404647236,,psi_staircase,cRDM,,0.07100393266840599,0.08061961524933522,0.14566608967167854,638.8841920999694,72,23,female,True,6387,6395,False,False,inspiration,expiration
176,0.17,25,down,down,0.7350059000309557,1.8427703918690028,,psi_staircase,cRDM,,0.06925220443687584,0.07877519831201953,0.14426196664506316,641.8507882999837,72,23,female,True,6417,6424,False,False,inspiration,inspiration
177,0.11,25,down,down,0.7028197000036016,1.1369740893455689,,psi_staircase,cRDM,,0.0674797293187252,0.07691452185386467,0.14292582184264455,643.9840149999945,72,23,female,True,6438,6445,False,False,inspiration,expiration
178,0.17,25,down,down,0.8078712999704294,1.4909697063980851,,psi_staircase,cRDM,,0.06469291863854176,0.07412965432946526,0.1429552583285414,646.4339327999622,72,23,female,True,6463,6471,False,False,expiration,expiration
179,0.12,25,up,up,0.5669097999925725,1.3348592153961556,,psi_staircase,cRDM,,0.06313879593999562,0.07248546134755712,0.14159080126971724,648.833845999965,72,23,female,True,6487,6493,False,False,inspiration,inspiration
180,0.15,25,up,up,0.6230041000526398,0.7235851497367436,,psi_staircase,cRDM,,0.060826879978186164,0.0701410886924598,0.14109912118823328,650.3837805999792,72,23,female,True,6502,6508,False,False,expiration,expiration
181,0.15,25,up,up,0.7947042000014335,1.155826833678458,,psi_staircase,cRDM,,0.05918153888218995,0.06841579911033889,0.1398879972507551,652.4170651999884,72,23,female,True,6523,6531,False,False,inspiration,inspiration
182,145.0,25,F,up,0.90622840001015,0.986800909754445,,experiment,emotion,0.0,,,,658.3834688999922,72,23,female,True,6582,6591,False,False,expiration,expiration
183,131.0,25,M,up,0.7813757999683729,0.5070962088423415,,experiment,emotion,0.0,,,,660.1004207999795,72,23,female,True,6600,6608,False,False,expiration,inspiration
184,140.0,25,F,up,0.6743626999668777,0.4217294583100901,,experiment,emotion,0.0,,,,661.5833893999808,72,23,female,True,6614,6621,False,False,inspiration,inspiration
185,145.0,25,M,up,0.6527835000306368,0.6241191503586538,,experiment,emotion,0.0,,,,663.1499800999883,72,23,female,True,6630,6637,False,False,inspiration,inspiration
186,140.0,25,F,down,0.5999747000169009,1.626252134322561,,experiment,emotion,0.0,,,,665.6998084999504,72,23,female,True,6656,6662,False,False,inspiration,inspiration
187,136.0,25,F,down,0.5233240999514237,1.1227104874269862,,experiment,emotion,0.0,,,,667.7165223999764,72,23,female,True,6676,6681,False,False,inspiration,expiration
188,131.0,25,M,down,0.5824132999987341,1.7024908934213128,,experiment,emotion,0.0,,,,670.2164036000031,72,23,female,True,6701,6707,False,False,expiration,expiration
189,136.0,25,F,down,0.7314206999726593,0.5092170179683605,,experiment,emotion,0.0,,,,671.5663584999858,72,23,female,True,6714,6721,False,False,trough,inspiration
190,145.0,25,M,up,0.86784219997935,0.9784668825551162,,experiment,emotion,0.0,,,,673.5329173999489,72,23,female,True,6734,6743,False,False,expiration,expiration
191,136.0,25,M,down,0.9713542999816128,0.7208765820021741,,experiment,emotion,0.0,,,,675.3994109999621,72,23,female,True,6753,6763,False,False,inspiration,expiration
192,140.0,25,F,up,0.972624599991832,1.7311333727996934,,experiment,emotion,0.0,,,,678.3661366999731,72,23,female,True,6782,6792,False,False,expiration,inspiration
193,145.0,25,M,up,0.7441118999850005,0.920907786557545,,experiment,emotion,0.0,,,,680.5326900999644,72,23,female,True,6804,6811,False,False,inspiration,inspiration
194,140.0,25,M,up,0.7395302000222728,1.3175162339592994,,experiment,emotion,0.0,,,,682.8492542000022,72,23,female,True,6827,6834,False,False,expiration,expiration
195,131.0,25,M,up,0.7732131999800913,1.3157832175098922,,experiment,emotion,0.0,,,,685.1825415999629,72,23,female,True,6850,6858,False,False,inspiration,expiration
196,136.0,25,F,up,0.7123577000456862,1.4583967217249636,,experiment,emotion,0.0,,,,687.6824078999925,72,23,female,True,6875,6882,False,False,expiration,inspiration
197,131.0,25,F,up,0.7594291000277735,0.6098726110937823,,experiment,emotion,0.0,,,,689.2823525999556,72,23,female,True,6891,6899,False,False,inspiration,expiration
198,145.0,25,M,up,0.6288018000195734,0.5014180335217242,,experiment,emotion,0.0,,,,690.8489808999583,72,23,female,True,6907,6913,False,False,expiration,expiration
199,131.0,25,M,up,0.6812290000380017,1.67555412279476,,experiment,emotion,0.0,,,,693.415573599981,72,23,female,True,6933,6940,False,False,expiration,expiration
200,140.0,25,F,up,0.8663613999960944,1.642379173327241,,experiment,emotion,0.0,,,,696.015445899975,72,23,female,True,6959,6968,False,False,inspiration,expiration
201,140.0,25,F,up,0.7176775999832898,0.532066757907552,,experiment,emotion,0.0,,,,697.682037099963,72,23,female,True,6975,6982,False,False,expiration,expiration
202,136.0,25,M,up,0.7271910000126809,1.6820465046641797,,experiment,emotion,0.0,,,,700.3486106999918,72,23,female,True,7002,7009,False,False,expiration,expiration
203,136.0,25,F,up,0.7682060999795794,0.6177320444639379,,experiment,emotion,0.0,,,,701.9485580999752,72,23,female,True,7018,7026,False,False,inspiration,inspiration
204,131.0,25,M,up,0.8349570999853313,1.578851971774862,,experiment,emotion,0.0,,,,704.5817946000025,72,23,female,True,7044,7052,False,False,expiration,expiration
205,145.0,25,F,up,0.8900070000090636,0.3478756777423351,,experiment,emotion,0.0,,,,706.0317470000009,72,23,female,True,7059,7068,False,False,inspiration,inspiration
206,140.0,25,F,up,0.8424494999926537,0.5989514400326454,,experiment,emotion,0.0,,,,707.7983357000047,72,23,female,True,7077,7085,False,False,expiration,expiration
207,131.0,25,M,up,0.8298153000068851,1.6538746380998854,,experiment,emotion,0.0,,,,710.5649118999718,72,23,female,True,7104,7112,False,False,expiration,expiration
208,145.0,25,M,up,0.9778877000208012,1.3469319233861483,,experiment,emotion,0.0,,,,713.0148496999755,72,23,female,True,7129,7139,False,False,inspiration,expiration
209,145.0,25,F,up,0.6763365999795496,0.5127943420420542,,experiment,emotion,0.0,,,,714.7814143999714,72,23,female,True,7146,7153,False,False,expiration,trough
210,136.0,25,M,up,0.7544405999942683,1.1366150721244557,,experiment,emotion,0.0,,,,716.8813370999997,72,23,female,True,7167,7175,False,False,expiration,expiration
211,131.0,25,F,up,0.8497671000077389,0.3296046694004105,,experiment,emotion,0.0,,,,718.2479687999585,72,23,female,True,7181,7189,False,False,expiration,inspiration
212,136.0,25,M,up,0.7189069000305608,0.3819386391650103,,experiment,emotion,0.0,,,,719.7479123999948,72,23,female,True,7196,7203,False,False,inspiration,expiration
213,140.0,25,F,up,0.7692965000169352,0.633558333438889,,experiment,emotion,0.0,,,,721.3645140999579,72,23,female,True,7212,7220,False,False,expiration,inspiration
214,131.0,25,M,down,0.8203358000027947,0.963216487764076,,experiment,emotion,0.0,,,,723.3644399999757,72,23,female,True,7232,7240,False,False,expiration,expiration
215,145.0,25,F,up,0.6957485000020824,1.2818390403438686,,experiment,emotion,0.0,,,,725.7310520999599,72,23,female,True,7256,7263,False,False,inspiration,peak
216,140.0,25,M,up,0.6634555999771692,0.8740857123948227,,experiment,emotion,0.0,,,,727.5642953999923,72,23,female,True,7274,7281,False,False,expiration,inspiration
217,145.0,25,F,up,0.6665512000326999,1.6639259519450844,,experiment,emotion,0.0,,,,730.1641820999794,72,23,female,True,7300,7307,False,False,expiration,expiration
218,131.0,25,M,up,0.659308800008148,0.5477215405323742,,experiment,emotion,0.0,,,,731.6474650999879,72,23,female,True,7315,7322,False,False,inspiration,inspiration
219,140.0,25,F,up,0.7387069000396878,1.788309090746245,,experiment,emotion,0.0,,,,734.3640381000005,72,23,female,True,7342,7349,False,False,expiration,trough
220,136.0,25,M,up,0.8428774999920279,1.8940934447298916,,experiment,emotion,0.0,,,,737.2639123999978,72,23,female,True,7371,7379,False,False,expiration,expiration
221,136.0,25,F,up,0.7125447999569587,1.1759803463143912,,experiment,emotion,0.0,,,,739.5472265999997,72,23,female,True,7394,7401,False,False,inspiration,expiration
222,140.0,25,F,up,0.8573101999936625,1.1084607944184082,,experiment,emotion,0.0,,,,741.6304309999687,72,23,female,True,7415,7424,False,False,inspiration,inspiration
223,145.0,25,M,up,0.9037380000227132,1.6740877781193513,,experiment,emotion,0.0,,,,744.447049499955,72,23,female,True,7443,7452,False,False,expiration,inspiration
224,136.0,25,F,up,0.8278969000093639,1.7267549515678702,,experiment,emotion,0.0,,,,747.3468825999879,72,23,female,True,7472,7480,False,False,expiration,expiration
225,131.0,25,M,up,1.5781448999769054,1.9185523494436032,,experiment,emotion,0.0,,,,750.3966349999538,72,23,female,True,7503,7519,False,False,expiration,inspiration
226,131.0,25,M,up,0.8930780999944545,0.8440216858223819,,experiment,emotion,0.0,,,,753.0966718999553,72,23,female,True,7530,7539,False,False,inspiration,expiration
227,136.0,25,F,up,0.8688057999825105,0.9589258948927128,,experiment,emotion,0.0,,,,755.2299347999506,72,23,female,True,7551,7560,False,False,inspiration,inspiration
228,145.0,25,F,up,0.6689159999950789,0.594482033139082,,experiment,emotion,0.0,,,,756.9798605999678,72,23,female,True,7568,7575,False,False,expiration,expiration
229,140.0,25,M,up,0.7438002999988385,1.5717148673601138,,experiment,emotion,0.0,,,,759.5129370999639,72,23,female,True,7594,7601,False,False,expiration,expiration
230,131.0,25,F,up,0.7883233000175096,0.3832692683672325,,experiment,emotion,0.0,,,,760.8963762999629,72,23,female,True,7607,7615,False,False,expiration,inspiration
231,145.0,25,M,up,0.8464608000358567,0.8901619037220436,,experiment,emotion,0.0,,,,762.8463190000039,72,23,female,True,7627,7635,False,False,expiration,expiration
232,140.0,25,M,up,0.8468351000337861,0.7044728114483345,,experiment,emotion,0.0,,,,764.6629161000018,72,23,female,True,7645,7653,False,False,inspiration,inspiration
233,140.0,25,M,up,0.7793099000118673,1.3047866656889668,,experiment,emotion,0.0,,,,767.0794710000046,72,23,female,True,7669,7677,False,False,expiration,inspiration
234,131.0,25,M,down,1.224346400005743,1.45157965560956,,experiment,emotion,0.0,,,,769.5794034999562,72,23,female,True,7694,7706,False,False,expiration,expiration
235,136.0,25,M,up,0.6844915000256151,1.4972456082231418,,experiment,emotion,0.0,,,,772.579297099961,72,23,female,True,7724,7731,False,False,peak,expiration
236,145.0,25,F,up,0.5912222000188194,1.8273769228672416,,experiment,emotion,0.0,,,,775.362523799995,72,23,female,True,7752,7758,False,False,inspiration,inspiration
237,136.0,25,F,up,0.5099545999546535,1.5189577292923468,,experiment,emotion,0.0,,,,777.7457997999736,72,23,female,True,7776,7781,False,False,expiration,expiration
238,136.0,25,F,up,0.4370834999717772,1.51476065500323,,experiment,emotion,0.0,,,,780.0456864999724,72,23,female,True,7799,7803,False,False,inspiration,inspiration
239,136.0,25,M,up,0.693766099982895,0.478216059745784,,experiment,emotion,0.0,,,,781.2289774999954,72,23,female,True,7811,7818,False,False,inspiration,expiration
240,145.0,25,F,up,0.5968589000403881,0.8303850661360817,,experiment,emotion,0.0,,,,783.0289164999849,72,23,female,True,7829,7835,False,False,expiration,expiration
241,140.0,25,F,up,0.3501676999730989,1.2367738316861363,,experiment,emotion,0.0,,,,785.1621699999669,72,23,female,True,7850,7854,False,False,expiration,expiration
242,131.0,25,F,up,0.4220582999987528,1.1267751932746741,,experiment,emotion,0.0,,,,786.9956884999992,72,23,female,True,7869,7873,False,False,expiration,expiration
243,131.0,25,M,up,0.6130731999874115,1.933895227293025,,experiment,emotion,0.0,,,,789.6286768999997,72,23,female,True,7895,7901,False,False,expiration,expiration
244,140.0,25,F,up,0.492226300004404,0.8721609309431355,,experiment,emotion,0.0,,,,791.3955264999531,72,23,female,True,7913,7918,False,False,inspiration,inspiration
245,145.0,25,M,up,0.2668247999972664,1.847971910548496,,experiment,emotion,0.0,,,,794.0118441999658,72,23,female,True,7939,7942,False,False,expiration,expiration
246,145.0,25,M,up,0.525698299985379,0.7471576982763929,,experiment,emotion,0.0,,,,795.4451047999901,72,23,female,True,7953,7958,False,False,inspiration,inspiration
247,131.0,25,F,up,0.30017150001367554,1.6108244309151518,,experiment,emotion,0.0,,,,797.8450487999944,72,23,female,True,7977,7980,False,False,expiration,expiration
248,145.0,25,M,up,0.540751900000032,0.4115270179816376,,experiment,emotion,0.0,,,,798.9450004999527,72,23,female,True,7988,7993,False,False,inspiration,inspiration
249,136.0,25,F,up,0.5171872000209987,0.5448824366398161,,experiment,emotion,0.0,,,,800.3116009999649,72,23,female,True,8002,8007,False,False,expiration,expiration
250,140.0,25,M,up,0.31682220002403483,0.5735487952958227,,experiment,emotion,0.0,,,,801.6615491999547,72,23,female,True,8015,8018,False,False,expiration,trough
251,136.0,25,F,up,0.4002553999889642,1.0633173848304116,,experiment,emotion,0.0,,,,803.4114862999995,72,23,female,True,8033,8037,False,False,expiration,expiration
252,131.0,25,M,up,0.3166666000033729,1.5828522938431806,,experiment,emotion,0.0,,,,805.6780810999918,72,23,female,True,8055,8058,False,False,inspiration,inspiration
253,140.0,25,F,up,0.2668441000278108,1.622320078531381,,experiment,emotion,0.0,,,,807.9779851000058,72,23,female,True,8078,8081,False,False,expiration,expiration
254,136.0,25,F,up,0.4167812000378035,0.4633251403997657,,experiment,emotion,0.0,,,,809.1279420999927,72,23,female,True,8090,8094,False,False,inspiration,inspiration
255,140.0,25,F,up,0.20022379996953527,1.2826865944853874,,experiment,emotion,0.0,,,,811.0944165999534,72,23,female,True,8110,8112,False,False,expiration,expiration
256,131.0,25,F,up,0.2501756999990903,1.1753180682093154,,experiment,emotion,0.0,,,,812.9611415999824,72,23,female,True,8128,8131,False,False,inspiration,inspiration
257,145.0,25,F,up,0.4766908000456169,0.4979063943318073,,experiment,emotion,0.0,,,,814.1610801999922,72,23,female,True,8140,8145,False,False,expiration,expiration
258,140.0,25,M,up,0.5366884000250138,0.5905554987955748,,experiment,emotion,0.0,,,,815.5110451999934,72,23,female,True,8154,8159,False,False,inspiration,inspiration
259,145.0,25,M,up,0.31683179998071864,0.8493324176502748,,experiment,emotion,0.0,,,,817.1609988999553,72,23,female,True,8170,8173,False,False,inspiration,inspiration
260,131.0,25,M,up,0.3334732000366785,0.39915467356046175,,experiment,emotion,0.0,,,,818.2442950999831,72,23,female,True,8181,8184,False,False,inspiration,inspiration
261,136.0,25,M,up,0.4435035000205971,0.4173446425797155,,experiment,emotion,0.0,,,,819.3442411999569,72,23,female,True,8192,8196,False,False,expiration,expiration
262,0.05764276067112735,25,up,down,0.7151557999895886,0.3853661425554736,,experiment,cRDM,0.0,,,,823.3106309999713,72,23,female,True,8232,8239,False,False,expiration,inspiration
263,0.05764276067112735,25,up,up,0.6847649000119418,1.5448784589405886,,experiment,cRDM,0.0,,,,825.8440016999957,72,23,female,True,8257,8264,False,False,inspiration,inspiration
264,0.05764276067112735,25,down,down,0.5750151000102051,1.922482783418508,,experiment,cRDM,0.0,,,,828.6937124999823,72,23,female,True,8286,8292,False,False,peak,expiration
265,0.05764276067112735,25,down,down,0.7592282999539748,1.1449260912941124,,experiment,cRDM,0.0,,,,830.6604883999679,72,23,female,True,8305,8313,False,False,inspiration,inspiration
266,0.05764276067112735,25,up,down,0.8372406999696977,0.5207422911408999,,experiment,cRDM,0.0,,,,832.2104882999556,72,23,female,True,8321,8329,False,False,expiration,expiration
267,0.05764276067112735,25,down,down,0.7087502999929711,1.7680689052573035,,experiment,cRDM,0.0,,,,835.0769892999671,72,23,female,True,8349,8356,False,False,inspiration,inspiration
268,0.05764276067112735,25,up,down,1.0358593999990262,1.3266178247986156,,experiment,cRDM,0.0,,,,837.3768956999992,72,23,female,True,8372,8382,False,False,inspiration,expiration
269,0.05764276067112735,25,up,up,1.0730268000042995,0.7965554810008653,,experiment,cRDM,0.0,,,,839.4767277999782,72,23,female,True,8394,8405,False,False,expiration,inspiration
270,0.05764276067112735,25,down,down,0.7250817999592982,1.9636622367235037,,experiment,cRDM,0.0,,,,842.7766976999701,72,23,female,True,8427,8434,False,False,expiration,expiration
271,0.05764276067112735,25,down,down,1.006151800043881,1.8120060330039296,,experiment,cRDM,0.0,,,,845.5766177999902,72,23,female,True,8454,8464,False,False,inspiration,expiration
272,0.05764276067112735,25,down,down,1.0595296999672428,0.602363868732309,,experiment,cRDM,0.0,,,,847.4431983999675,72,23,female,True,8473,8484,False,False,expiration,expiration
273,0.05764276067112735,25,down,up,0.6933183000073768,1.512615874255941,,experiment,cRDM,0.0,,,,850.2764210999594,72,23,female,True,8501,8508,False,False,inspiration,expiration
274,0.05764276067112735,25,down,down,0.7979907999979332,1.470922350063398,,experiment,cRDM,0.0,,,,852.7097417999757,72,23,female,True,8526,8534,False,False,expiration,expiration
275,0.05764276067112735,25,down,down,0.7458137000212446,1.1694394794238463,,experiment,cRDM,0.0,,,,854.9429203000036,72,23,female,True,8548,8555,False,False,inspiration,expiration
276,0.05764276067112735,25,up,down,0.804198500001803,0.5976112459466166,,experiment,cRDM,0.0,,,,856.5595311999788,72,23,female,True,8564,8572,False,False,expiration,expiration
277,0.05764276067112735,25,up,down,0.7270714000333101,0.6574210009272752,,experiment,cRDM,0.0,,,,858.2926676999778,72,23,female,True,8582,8589,False,False,inspiration,inspiration
278,0.05764276067112735,25,up,down,0.7081856000004336,1.525137872003642,,experiment,cRDM,0.0,,,,860.7925509999623,72,23,female,True,8607,8614,False,False,expiration,expiration
279,0.05764276067112735,25,up,down,0.7294757000054233,1.9417506592897955,,experiment,cRDM,0.0,,,,863.7092918999842,72,23,female,True,8636,8643,False,False,expiration,expiration
280,0.05764276067112735,25,down,down,0.8975692999665625,0.8066945924386539,,experiment,cRDM,0.0,,,,865.5092309999745,72,23,female,True,8654,8663,False,False,inspiration,inspiration
281,0.05764276067112735,25,up,down,0.8789342999807559,1.8569057931849136,,experiment,cRDM,0.0,,,,868.525748999964,72,23,female,True,8684,8693,False,False,expiration,inspiration
282,0.05764276067112735,25,up,down,0.8876831000088714,0.9367956174074414,,experiment,cRDM,0.0,,,,870.6090488999617,72,23,female,True,8705,8714,False,False,peak,expiration
283,0.05764276067112735,25,down,down,0.9767831999924964,1.8401911651332816,,experiment,cRDM,0.0,,,,873.6089457999915,72,23,female,True,8735,8745,False,False,inspiration,expiration
284,0.05764276067112735,25,up,down,0.8852825000067241,1.834610591446304,,experiment,cRDM,0.0,,,,876.6754522999981,72,23,female,True,8765,8774,False,False,inspiration,expiration
285,0.05764276067112735,25,down,down,0.8293917999835685,1.559941488572174,,experiment,cRDM,0.0,,,,879.3753369000043,72,23,female,True,8792,8800,False,False,expiration,inspiration
286,0.05764276067112735,25,down,down,0.7470919000334106,0.8950126333936329,,experiment,cRDM,0.0,,,,881.3586322999909,72,23,female,True,8812,8819,False,False,inspiration,inspiration
287,0.05764276067112735,25,up,down,0.9611615000176243,1.4541121572854276,,experiment,cRDM,0.0,,,,883.8085483000032,72,23,female,True,8837,8847,False,False,expiration,expiration
288,0.05764276067112735,25,up,down,0.846274400013499,1.7658704937189644,,experiment,cRDM,0.0,,,,886.8084533999789,72,23,female,True,8867,8875,False,False,expiration,expiration
289,0.05764276067112735,25,down,down,0.7967869999702089,1.846014151076936,,experiment,cRDM,0.0,,,,889.7749545999686,72,23,female,True,8896,8904,False,False,inspiration,inspiration
290,0.05764276067112735,25,up,down,0.9077856999938376,1.7771411333911633,,experiment,cRDM,0.0,,,,892.6249259999603,72,23,female,True,8925,8934,False,False,expiration,expiration
291,0.05764276067112735,25,down,down,0.9320218000211752,1.2818277030263383,,experiment,cRDM,0.0,,,,895.0747386000003,72,23,female,True,8950,8959,False,False,expiration,expiration
292,0.05764276067112735,25,down,down,0.9160255999886432,0.6433958046454833,,experiment,cRDM,0.0,,,,896.9247050999547,72,23,female,True,8968,8977,False,False,inspiration,expiration
293,0.05764276067112735,25,down,down,0.9772544999723324,1.075334846349533,,experiment,cRDM,0.0,,,,899.1744990999578,72,23,female,True,8991,9001,False,False,expiration,inspiration
294,0.05764276067112735,25,up,down,0.7642433000146411,0.6634739325042345,,experiment,cRDM,0.0,,,,901.0745493999567,72,23,female,True,9009,9017,False,False,inspiration,expiration
295,0.05764276067112735,25,up,down,0.6035728999995627,1.5956755790190622,,experiment,cRDM,0.0,,,,903.691151099978,72,23,female,True,9036,9042,False,False,inspiration,inspiration
296,0.05764276067112735,25,up,up,0.9250202999683096,1.6383504902838093,,experiment,cRDM,0.0,,,,906.207700799976,72,23,female,True,9061,9070,False,False,expiration,expiration
297,0.05764276067112735,25,down,down,1.2661311999545433,1.7515941991495303,,experiment,cRDM,0.0,,,,909.1575916999718,72,23,female,True,9090,9103,False,False,inspiration,expiration
298,0.05764276067112735,25,down,down,1.0140019999817014,1.6983303304419275,,experiment,cRDM,0.0,,,,912.3907126999692,72,23,female,True,9123,9133,False,False,trough,inspiration
299,0.05764276067112735,25,up,down,0.7753241999889724,1.239497570119152,,experiment,cRDM,0.0,,,,914.9073964999988,72,23,female,True,9148,9156,False,False,expiration,expiration
300,0.05764276067112735,25,down,down,1.082376500009559,1.161262712558725,,experiment,cRDM,0.0,,,,917.1073390999808,72,23,female,True,9170,9181,False,False,inspiration,expiration
301,0.05764276067112735,25,up,down,0.937498199986294,0.8908251953967392,,experiment,cRDM,0.0,,,,919.3572360999533,72,23,female,True,9192,9201,False,False,inspiration,inspiration
302,0.05764276067112735,25,up,down,0.9942469999659806,1.682488239228374,,experiment,cRDM,0.0,,,,922.2404711999698,72,23,female,True,9221,9231,False,False,expiration,inspiration
303,0.05764276067112735,25,up,up,0.8650545999989845,0.880866229080018,,experiment,cRDM,0.0,,,,924.3737287999828,72,23,female,True,9242,9251,False,False,expiration,expiration
304,0.05764276067112735,25,down,down,0.8977641000528821,1.355446079992214,,experiment,cRDM,0.0,,,,926.8569425999884,72,23,female,True,9267,9276,False,False,inspiration,inspiration
305,0.05764276067112735,25,down,down,1.4022338000359014,1.6650603934758281,,experiment,cRDM,0.0,,,,929.673486099986,72,23,female,True,9295,9309,False,False,expiration,inspiration
306,0.05764276067112735,25,up,up,1.0213118999963626,1.2364796796136628,,experiment,cRDM,0.0,,,,932.5733645999572,72,23,female,True,9324,9334,False,False,expiration,expiration
307,0.05764276067112735,25,down,down,1.0320574000361376,0.8086341568900075,,experiment,cRDM,0.0,,,,934.6566603999817,72,23,female,True,9345,9355,False,False,inspiration,expiration
308,0.05764276067112735,25,down,down,0.9371231000404804,0.4976972499869177,,experiment,cRDM,0.0,,,,936.4565943999913,72,23,female,True,9363,9372,False,False,expiration,expiration
309,0.05764276067112735,25,up,down,1.1368511999608018,1.5769449192570557,,experiment,cRDM,0.0,,,,939.2398439999671,72,23,female,True,9391,9402,False,False,expiration,expiration
310,0.05764276067112735,25,up,up,0.9483308999915608,1.3600108204746404,,experiment,cRDM,0.0,,,,942.0064144999487,72,23,female,True,9419,9428,False,False,inspiration,inspiration
311,0.05764276067112735,25,down,up,1.0140913000213914,1.1133869065048156,,experiment,cRDM,0.0,,,,944.3396459999493,72,23,female,True,9442,9452,False,False,expiration,trough
312,0.05764276067112735,25,up,down,0.8304549000458792,0.6853112375942519,,experiment,cRDM,0.0,,,,946.3062596999807,72,23,female,True,9462,9470,False,False,inspiration,expiration
313,0.05764276067112735,25,down,down,0.9676247999886982,1.9536875926377355,,experiment,cRDM,0.0,,,,949.3561116000056,72,23,female,True,9492,9502,False,False,inspiration,inspiration
314,0.05764276067112735,25,down,down,0.9930394000257364,1.1959835262329226,,experiment,cRDM,0.0,,,,951.7726790999876,72,23,female,True,9516,9526,False,False,expiration,expiration
315,0.05764276067112735,25,down,down,1.0345760000054725,0.3638936580503483,,experiment,cRDM,0.0,,,,953.3891548999817,72,23,female,True,9533,9543,False,False,inspiration,expiration
316,0.05764276067112735,25,up,down,0.8808291999739595,1.4032025873411125,,experiment,cRDM,0.0,,,,956.1058930999716,72,23,female,True,9560,9569,False,False,expiration,inspiration
317,0.05764276067112735,25,up,down,0.7466054999968037,1.394596922336088,,experiment,cRDM,0.0,,,,958.6391148999684,72,23,female,True,9585,9592,False,False,expiration,expiration
318,0.05764276067112735,25,down,down,1.2587002999498509,1.287577634006013,,experiment,cRDM,0.0,,,,960.9390102999749,72,23,female,True,9608,9621,False,False,inspiration,expiration
319,0.05764276067112735,25,down,down,0.8514741000253707,1.9229118869658017,,experiment,cRDM,0.0,,,,964.3722386999872,72,23,female,True,9642,9651,False,False,inspiration,expiration
320,0.05764276067112735,25,up,down,0.9565989000257104,1.6792412387891222,,experiment,cRDM,0.0,,,,967.1721169999801,72,23,female,True,9670,9680,False,False,inspiration,inspiration
321,0.05764276067112735,25,up,down,0.8859957000240684,1.744300958394031,,experiment,cRDM,0.0,,,,970.1387434999924,72,23,female,True,9700,9709,False,False,expiration,inspiration
322,0.05764276067112735,25,up,down,1.1773055000230672,1.7898823679130835,,experiment,cRDM,0.0,,,,973.0884111999768,72,23,female,True,9730,9742,False,False,inspiration,expiration
323,0.05764276067112735,25,up,up,1.0349216000176966,1.7948400263387765,,experiment,cRDM,0.0,,,,976.321794699994,72,23,female,True,9762,9772,False,False,expiration,expiration
324,0.05764276067112735,25,up,down,0.9571248999563976,0.9416496779045422,,experiment,cRDM,0.0,,,,978.5715853999718,72,23,female,True,9785,9795,False,False,inspiration,inspiration
325,0.05764276067112735,25,down,down,1.3285134999896397,1.599041580981657,,experiment,cRDM,0.0,,,,981.3882844999898,72,23,female,True,9813,9826,False,False,inspiration,inspiration
326,0.05764276067112735,25,down,down,1.4704189000185581,1.507027825721334,,experiment,cRDM,0.0,,,,984.4712939999879,72,23,female,True,9844,9859,False,False,inspiration,expiration
327,0.05764276067112735,25,up,down,1.470980400044937,1.5005581936560988,,experiment,cRDM,0.0,,,,987.7047279999823,72,23,female,True,9876,9891,False,False,trough,inspiration
328,0.05764276067112735,25,down,down,0.7881082000094466,1.671489482956955,,experiment,cRDM,0.0,,,,991.104600199964,72,23,female,True,9910,9918,False,False,expiration,inspiration
329,0.05764276067112735,25,down,down,0.8788366000517271,0.7315645029364729,,experiment,cRDM,0.0,,,,992.8878557999852,72,23,female,True,9928,9937,False,False,expiration,expiration
330,0.05764276067112735,25,down,down,0.8542790999636054,1.2716963711451663,,experiment,cRDM,0.0,,,,995.3044367999536,72,23,female,True,9952,9961,False,False,inspiration,inspiration
331,0.05764276067112735,25,up,up,1.1537283000070602,0.8378893278181805,,experiment,cRDM,0.0,,,,997.2709888999817,72,23,female,True,9972,9984,False,False,expiration,expiration
332,0.05764276067112735,25,down,down,0.8937623999663629,1.4355727410070582,,experiment,cRDM,0.0,,,,1000.1209429999581,72,23,female,True,10000,10009,False,False,inspiration,expiration
333,0.05764276067112735,25,down,down,1.3839000000152737,1.289006499878036,,experiment,cRDM,0.0,,,,1002.5708070999826,72,23,female,True,10025,10039,False,False,inspiration,expiration
334,0.05764276067112735,25,down,down,1.2084126999834552,0.6690120788284812,,experiment,cRDM,0.0,,,,1004.8872921000003,72,23,female,True,10048,10060,False,False,expiration,expiration
335,0.05764276067112735,25,up,down,1.1187682999880053,1.7619832392737544,,experiment,cRDM,0.0,,,,1008.103962299996,72,23,female,True,10080,10091,False,False,expiration,expiration
336,0.05764276067112735,25,up,up,0.8585287000169046,1.5475352911470808,,experiment,cRDM,0.0,,,,1011.0371806999899,72,23,female,True,10109,10118,False,False,inspiration,expiration
337,0.05764276067112735,25,down,down,0.8296786999562755,1.3254947129799994,,experiment,cRDM,0.0,,,,1013.4870308999672,72,23,female,True,10134,10142,False,False,expiration,inspiration
338,0.05764276067112735,25,up,down,0.9014153000316584,1.935453437605953,,experiment,cRDM,0.0,,,,1016.52031599998,72,23,female,True,10164,10173,False,False,expiration,expiration
339,0.05764276067112735,25,down,down,0.8468061000457965,1.047562205463204,,experiment,cRDM,0.0,,,,1018.7369032999851,72,23,female,True,10186,10194,False,False,inspiration,expiration
340,0.05764276067112735,25,up,down,0.8815889999968931,1.9768687188022944,,experiment,cRDM,0.0,,,,1021.8201166999645,72,23,female,True,10217,10226,False,False,inspiration,inspiration
341,0.05764276067112735,25,up,down,0.8817843999713659,1.3110905967709114,,experiment,cRDM,0.0,,,,1024.270017599978,72,23,female,True,10241,10250,False,False,expiration,trough
342,145.0,25,M,up,0.84400410001399,1.1052538687842497,,experiment,emotion,1.0,,,,1033.41970139998,72,23,female,True,10333,10341,False,False,expiration,inspiration
343,131.0,25,M,up,0.6834816999617033,1.5108813301712243,,experiment,emotion,1.0,,,,1036.0362295999657,72,23,female,True,10359,10366,False,False,inspiration,inspiration
344,140.0,25,F,up,0.5692289999569766,1.806743128338405,,experiment,emotion,1.0,,,,1038.8194745999645,72,23,female,True,10387,10393,False,False,inspiration,inspiration
345,145.0,25,F,up,0.7403354999842122,1.1172657025590564,,experiment,emotion,1.0,,,,1040.7694038999616,72,23,female,True,10406,10413,False,False,expiration,expiration
346,140.0,25,M,up,0.7046964000328444,0.9435155994644341,,experiment,emotion,1.0,,,,1042.736003500002,72,23,female,True,10426,10433,False,False,inspiration,inspiration
347,136.0,25,F,up,0.36677540000528097,0.5899914929734349,,experiment,emotion,1.0,,,,1044.319267899962,72,23,female,True,10442,10446,False,False,expiration,expiration
348,131.0,25,M,down,0.7051929999724962,1.9104813039346298,,experiment,emotion,1.0,,,,1046.9025134999538,72,23,female,True,10468,10475,False,False,trough,inspiration
349,136.0,25,M,down,0.7002751000109129,1.3129773283314223,,experiment,emotion,1.0,,,,1049.2024300000048,72,23,female,True,10491,10498,False,False,expiration,expiration
350,145.0,25,F,up,0.6680112000321969,0.5660468392469773,,experiment,emotion,1.0,,,,1050.735689299996,72,23,female,True,10506,10513,False,False,inspiration,inspiration
351,136.0,25,F,up,0.6788109999615699,0.7042688379980555,,experiment,emotion,1.0,,,,1052.3859043999691,72,23,female,True,10523,10530,False,False,expiration,expiration
352,140.0,25,F,up,0.4708341999794357,1.2159111004014238,,experiment,emotion,1.0,,,,1054.5689101999742,72,23,female,True,10544,10549,True,True,inspiration,inspiration
353,145.0,25,F,up,1.480295000015758,1.990360033080771,,experiment,emotion,1.0,,,,1057.2853700999983,72,23,female,True,10572,10587,True,True,peak,expiration
354,140.0,25,F,up,0.8080250000348315,1.633122834328454,,experiment,emotion,1.0,,,,1060.6686711999937,72,23,female,True,10605,10613,True,True,expiration,expiration
355,131.0,25,F,up,0.6698104000533931,1.290643396037077,,experiment,emotion,1.0,,,,1063.0519569999888,72,23,female,True,10629,10636,True,True,expiration,expiration
356,136.0,25,M,up,1.0081838000332937,1.2867101201126874,,experiment,emotion,1.0,,,,1065.2685124999844,72,23,female,True,10651,10661,True,True,inspiration,expiration
357,131.0,25,M,up,0.7816152999876067,1.391549072564438,,experiment,emotion,1.0,,,,1067.9350705999534,72,23,female,True,10678,10686,True,True,expiration,expiration
358,145.0,25,M,up,0.3001718000159599,1.8931645837699398,,experiment,emotion,1.0,,,,1070.8683431999525,72,23,female,True,10708,10711,False,False,inspiration,inspiration
359,131.0,25,M,up,0.4358519000234081,1.993470527334615,,experiment,emotion,1.0,,,,1073.5348564999877,72,23,female,True,10734,10738,False,False,peak,expiration
360,140.0,25,F,up,0.7132679999922402,1.6875242719613919,,experiment,emotion,1.0,,,,1075.951432699978,72,23,female,True,10758,10765,False,False,inspiration,inspiration
361,140.0,25,M,up,0.7976838999893516,0.8254350053652992,,experiment,emotion,1.0,,,,1077.767996099952,72,23,female,True,10777,10785,False,False,expiration,expiration
362,136.0,25,M,down,0.9067297000437976,1.5701589540272478,,experiment,emotion,1.0,,,,1080.4179530999972,72,23,female,True,10803,10812,False,False,inspiration,peak
363,136.0,25,F,up,0.9351819000439718,1.32796935489923,,experiment,emotion,1.0,,,,1082.9345175999915,72,23,female,True,10828,10837,False,False,expiration,expiration
364,131.0,25,M,down,0.8770823000231758,1.9419744128792584,,experiment,emotion,1.0,,,,1086.067629600002,72,23,female,True,10860,10869,False,False,expiration,expiration
365,145.0,25,F,up,1.0076900999993086,1.6737390684435371,,experiment,emotion,1.0,,,,1088.901006,72,23,female,True,10888,10898,False,False,inspiration,expiration
366,140.0,25,F,up,0.8098142999806441,1.6291740728994046,,experiment,emotion,1.0,,,,1091.8008813000051,72,23,female,True,10917,10925,False,False,inspiration,inspiration
367,131.0,25,M,up,0.7142221999820322,0.4352796859017958,,experiment,emotion,1.0,,,,1093.3174705999554,72,23,female,True,10932,10939,False,False,expiration,expiration
368,145.0,25,M,up,0.6972813000320457,0.31780613351434484,,experiment,emotion,1.0,,,,1094.6174388999934,72,23,female,True,10945,10952,False,False,expiration,inspiration
369,145.0,25,F,up,0.744990199978929,0.4276635868714427,,experiment,emotion,1.0,,,,1096.0007108999996,72,23,female,True,10959,10966,False,False,inspiration,expiration
370,136.0,25,M,up,0.40017989999614656,1.2230892360146066,,experiment,emotion,1.0,,,,1098.250614899967,72,23,female,True,10981,10985,False,False,expiration,expiration
371,131.0,25,F,up,0.4564719999907538,0.9212360584990079,,experiment,emotion,1.0,,,,1099.8672295999713,72,23,female,True,10998,11003,False,False,inspiration,expiration
372,136.0,25,F,up,0.7372379999724217,1.710761345763081,,experiment,emotion,1.0,,,,1102.3004718999728,72,23,female,True,11022,11029,False,False,expiration,inspiration
373,140.0,25,F,up,0.6635800999938511,0.5497437763918416,,experiment,emotion,1.0,,,,1103.867097499955,72,23,female,True,11037,11044,False,False,inspiration,inspiration
374,131.0,25,M,up,0.6933562000049278,1.1186162243307158,,experiment,emotion,1.0,,,,1105.900339099986,72,23,female,True,11058,11065,False,False,peak,expiration
375,145.0,25,M,up,0.7314340000157245,0.9670911076720567,,experiment,emotion,1.0,,,,1107.8502618999921,72,23,female,True,11077,11084,False,False,expiration,expiration
376,140.0,25,M,up,0.8148322000051849,0.6717518758066199,,experiment,emotion,1.0,,,,1109.5168629999969,72,23,female,True,11094,11102,False,False,expiration,inspiration
377,145.0,25,F,up,0.9872251999913716,0.6911710354398282,,experiment,emotion,1.0,,,,1111.2834779999685,72,23,female,True,11112,11122,False,False,inspiration,inspiration
378,131.0,25,F,up,1.0759586999774908,0.8813272098536455,,experiment,emotion,1.0,,,,1113.4167421999737,72,23,female,True,11133,11144,False,False,inspiration,expiration
379,140.0,25,M,up,0.8696816000156105,0.535078220147313,,experiment,emotion,1.0,,,,1115.3000082999934,72,23,female,True,11152,11161,False,False,expiration,expiration
380,136.0,25,F,up,0.8951686999644153,1.2502913139599223,,experiment,emotion,1.0,,,,1117.7165741999634,72,23,female,True,11176,11185,False,False,inspiration,inspiration
381,136.0,25,M,down,0.914744600013364,0.30580770000727875,,experiment,emotion,1.0,,,,1119.1829856999684,72,23,female,True,11191,11200,False,False,inspiration,inspiration
382,140.0,25,M,up,0.7032378999865614,0.8449724226775592,,experiment,emotion,1.0,,,,1121.2164535999764,72,23,female,True,11211,11218,False,False,inspiration,inspiration
383,145.0,25,M,down,0.7513342999736778,1.0338853068645966,,experiment,emotion,1.0,,,,1123.216358799953,72,23,female,True,11231,11239,False,False,inspiration,inspiration
384,136.0,25,F,up,0.7454581000492908,1.6741958025800006,,experiment,emotion,1.0,,,,1125.9162689999796,72,23,female,True,11258,11265,False,False,expiration,expiration
385,131.0,25,F,down,0.6039476000005379,1.324911748489504,,experiment,emotion,1.0,,,,1128.2826909999712,72,23,female,True,11282,11288,False,False,inspiration,inspiration
386,131.0,25,M,up,0.9175970000214876,1.2931565967152845,,experiment,emotion,1.0,,,,1130.4660887999926,72,23,female,True,11303,11312,False,False,expiration,expiration
387,136.0,25,F,down,0.5920225000008941,1.7647059302115422,,experiment,emotion,1.0,,,,1133.4326648999706,72,23,female,True,11333,11339,False,False,expiration,inspiration
388,145.0,25,F,up,0.7197715000365861,1.3042703056784528,,experiment,emotion,1.0,,,,1135.6159167999867,72,23,female,True,11355,11362,False,False,expiration,expiration
389,140.0,25,M,up,0.7645289999782108,1.448527002402935,,experiment,emotion,1.0,,,,1138.04915539996,72,23,female,True,11379,11387,False,False,inspiration,inspiration
390,131.0,25,M,down,0.6233264000038616,1.9304336412484489,,experiment,emotion,1.0,,,,1141.0323659999995,72,23,female,True,11409,11415,False,False,inspiration,inspiration
391,145.0,25,F,down,1.0237049999996088,1.5275218492185831,,experiment,emotion,1.0,,,,1143.4489892999989,72,23,female,True,11433,11443,False,False,inspiration,expiration
392,140.0,25,M,down,0.8258134000352584,1.7977056041899249,,experiment,emotion,1.0,,,,1146.5488636999507,72,23,female,True,11464,11472,False,False,inspiration,inspiration
393,140.0,25,F,up,0.8839260999811813,0.892556649051377,,experiment,emotion,1.0,,,,1148.5487820999695,72,23,female,True,11484,11493,False,False,expiration,expiration
394,131.0,25,F,down,0.914333099965006,1.3046180877009002,,experiment,emotion,1.0,,,,1151.015346399974,72,23,female,True,11509,11518,False,False,inspiration,expiration
395,136.0,25,F,down,0.6480387999908999,0.4870458596748098,,experiment,emotion,1.0,,,,1152.6986481999631,72,23,female,True,11526,11532,False,False,expiration,expiration
396,145.0,25,M,up,0.8061650000163354,0.8771000332440575,,experiment,emotion,1.0,,,,1154.4985188999565,72,23,female,True,11544,11552,False,False,inspiration,inspiration
397,136.0,25,M,up,0.9502340999897568,1.6072864482704068,,experiment,emotion,1.0,,,,1157.1984587999762,72,23,female,True,11571,11581,False,False,expiration,expiration
398,136.0,25,F,up,0.6853222000063397,1.282755847909577,,experiment,emotion,1.0,,,,1159.6983498999616,72,23,female,True,11596,11603,False,False,inspiration,expiration
399,136.0,25,F,down,0.6503652000101283,1.5901550938799098,,experiment,emotion,1.0,,,,1162.2483091999893,72,23,female,True,11621,11628,False,False,expiration,inspiration
400,145.0,25,M,up,0.7742154000443406,1.7056036710386149,,experiment,emotion,1.0,,,,1164.8814575999859,72,23,female,True,11648,11656,False,False,expiration,expiration
401,140.0,25,M,down,0.6286059999838471,0.860444413045713,,experiment,emotion,1.0,,,,1166.7980948999755,72,23,female,True,11667,11673,False,False,inspiration,inspiration
402,131.0,25,M,down,0.7613028999767266,0.7214563394355242,,experiment,emotion,1.0,,,,1168.4313672999851,72,23,female,True,11683,11691,False,False,expiration,expiration
403,131.0,25,M,down,0.5744236999889836,1.665653528466822,,experiment,emotion,1.0,,,,1171.1312640999674,72,23,female,True,11710,11716,False,False,expiration,expiration
404,140.0,25,M,down,0.6324378999997862,0.3648974329710269,,experiment,emotion,1.0,,,,1172.3312253999754,72,23,female,True,11722,11728,False,False,inspiration,inspiration
405,145.0,25,F,up,0.7128962000133471,1.4020301925533585,,experiment,emotion,1.0,,,,1174.6478059999645,72,23,female,True,11745,11752,False,False,inspiration,inspiration
406,145.0,25,F,up,0.8813092000200413,1.2229331052813333,,experiment,emotion,1.0,,,,1176.8643760999546,72,23,female,True,11767,11776,False,False,inspiration,expiration
407,131.0,25,M,down,0.7704627999919467,1.8484377774670129,,experiment,emotion,1.0,,,,1179.8642596999996,72,23,female,True,11797,11805,False,False,expiration,expiration
408,145.0,25,F,down,0.4637796000461094,0.7707691226753617,,experiment,emotion,1.0,,,,1181.680886099988,72,23,female,True,11816,11821,False,False,inspiration,inspiration
409,136.0,25,F,up,0.63487799995346,0.7585362496691429,,experiment,emotion,1.0,,,,1183.1808308999753,72,23,female,True,11831,11837,False,False,inspiration,expiration
410,140.0,25,F,up,0.5666590000037104,1.7035312897808392,,experiment,emotion,1.0,,,,1185.8140670999999,72,23,female,True,11857,11863,False,False,expiration,expiration
411,136.0,25,M,up,0.4793802000349388,1.498360958353108,,experiment,emotion,1.0,,,,1188.1472985,72,23,female,True,11880,11885,False,False,inspiration,expiration
412,131.0,25,F,down,0.7351309000514448,1.5227811184577422,,experiment,emotion,1.0,,,,1190.4305497999885,72,23,female,True,11903,11910,False,False,expiration,inspiration
413,140.0,25,F,up,0.7449662999715656,0.5340893039146345,,experiment,emotion,1.0,,,,1191.9637304999633,72,23,female,True,11919,11926,False,False,inspiration,expiration
414,136.0,25,F,down,0.6739490999607369,1.3317196635397104,,experiment,emotion,1.0,,,,1194.313749199966,72,23,female,True,11942,11949,False,False,expiration,trough
415,140.0,25,M,up,0.6513202000060119,0.5150323443120866,,experiment,emotion,1.0,,,,1195.7803548999946,72,23,female,True,11957,11964,False,False,inspiration,expiration
416,131.0,25,M,up,0.7363874000147916,1.0886181595005693,,experiment,emotion,1.0,,,,1197.7802896999638,72,23,female,True,11977,11984,False,False,expiration,expiration
417,145.0,25,F,up,0.5605072999605909,0.3948585361769623,,experiment,emotion,1.0,,,,1199.1802340999714,72,23,female,True,11991,11997,False,False,inspiration,inspiration
418,140.0,25,M,up,0.5797737999819219,0.3806343431451164,,experiment,emotion,1.0,,,,1200.3968568999553,72,23,female,True,12003,12009,False,False,inspiration,inspiration
419,145.0,25,F,up,0.28350910003064195,0.7125549554150489,,experiment,emotion,1.0,,,,1201.946796299948,72,23,female,True,12018,12021,False,False,expiration,expiration
420,131.0,25,M,up,0.300189399975352,0.3758869897752382,,experiment,emotion,1.0,,,,1203.0134050999768,72,23,female,True,12029,12032,False,False,expiration,expiration
421,136.0,25,M,,,1.4136703989695707,,experiment,emotion,1.0,,,,1205.1466676999698,72,23,female,True,12050,0,False,False,inspiration,0
422,0.05764276067112735,25,up,up,1.3082199999480508,1.7310358115042417,,experiment,cRDM,1.0,,,,1219.629484199977,72,23,female,True,12195,12208,False,False,expiration,expiration
423,0.05764276067112735,25,up,down,0.7966486999648623,1.8979374859058031,,experiment,cRDM,1.0,,,,1223.0960235999664,72,23,female,True,12230,12238,False,False,expiration,expiration
424,0.05764276067112735,25,down,down,0.8070575000019744,0.7055705123816555,,experiment,cRDM,1.0,,,,1224.862613299978,72,23,female,True,12248,12256,False,False,expiration,inspiration
425,0.05764276067112735,25,down,down,0.6384747999836691,0.5021668868051086,,experiment,cRDM,1.0,,,,1226.4292293000035,72,23,female,True,12263,12269,False,False,inspiration,expiration
426,0.05764276067112735,25,up,down,0.6396282000350766,0.9486953217330668,,experiment,cRDM,1.0,,,,1228.2790463999845,72,23,female,True,12282,12288,False,False,expiration,expiration
427,0.05764276067112735,25,down,down,0.7583154999883845,1.6348441014178554,,experiment,cRDM,1.0,,,,1230.812408800004,72,23,female,True,12307,12315,False,False,inspiration,expiration
428,0.05764276067112735,25,up,up,0.9266586999874562,1.5459130496268274,,experiment,cRDM,1.0,,,,1233.3790141999486,72,23,female,True,12333,12342,False,False,expiration,trough
429,0.05764276067112735,25,up,down,0.7041270000045188,1.4784315543954407,,experiment,cRDM,1.0,,,,1236.045545400004,72,23,female,True,12359,12366,False,False,inspiration,peak
430,0.05764276067112735,25,down,down,0.7520646000048146,1.4651464072983518,,experiment,cRDM,1.0,,,,1238.4786251999906,72,23,female,True,12384,12392,False,False,inspiration,inspiration
431,0.05764276067112735,25,down,down,0.5750102999736555,0.4856497954771343,,experiment,cRDM,1.0,,,,1239.9786818999564,72,23,female,True,12399,12405,False,False,peak,expiration
432,0.05764276067112735,25,down,down,0.7823265999904834,1.7927106989420498,,experiment,cRDM,1.0,,,,1242.595334899961,72,23,female,True,12425,12433,False,False,inspiration,inspiration
433,0.05764276067112735,25,down,up,0.7367606000043452,0.4683474334158639,,experiment,cRDM,1.0,,,,1244.1119033999855,72,23,female,True,12440,12447,False,False,expiration,expiration
434,0.05764276067112735,25,down,down,0.7668639000039548,0.7442501993950491,,experiment,cRDM,1.0,,,,1245.8618479999714,72,23,female,True,12457,12465,False,False,expiration,inspiration
435,0.05764276067112735,25,down,down,0.5865841999766417,1.2422083386245504,,experiment,cRDM,1.0,,,,1248.1450899000047,72,23,female,True,12480,12486,False,False,inspiration,inspiration
436,0.05764276067112735,25,up,down,0.7419219999574125,1.1245933773493662,,experiment,cRDM,1.0,,,,1250.1117251999674,72,23,female,True,12500,12507,False,False,expiration,expiration
437,0.05764276067112735,25,up,down,0.69673279998824,1.4449978782497863,,experiment,cRDM,1.0,,,,1252.5449582999572,72,23,female,True,12524,12531,False,False,expiration,expiration
438,0.05764276067112735,25,up,up,0.6961419999715872,1.711248681662593,,experiment,cRDM,1.0,,,,1255.2115144999698,72,23,female,True,12551,12558,False,False,inspiration,expiration
439,0.05764276067112735,25,up,up,0.9252003000001424,0.7923915433330347,,experiment,cRDM,1.0,,,,1256.9614249999868,72,23,female,True,12568,12577,False,False,expiration,inspiration
440,0.05764276067112735,25,down,down,0.6266216000076383,0.8841289647110895,,experiment,cRDM,1.0,,,,1259.0280529999873,72,23,female,True,12589,12595,False,False,inspiration,inspiration
441,0.05764276067112735,25,up,up,0.6924544000066817,1.7458609651643922,,experiment,cRDM,1.0,,,,1261.6612429999516,72,23,female,True,12615,12622,False,False,expiration,inspiration
442,0.05764276067112735,25,up,up,0.7764862000476569,0.4942542002126414,,experiment,cRDM,1.0,,,,1263.1112150999836,72,23,female,True,12630,12638,False,False,inspiration,inspiration
443,0.05764276067112735,25,down,down,0.6589900000253692,1.7326587101355049,,experiment,cRDM,1.0,,,,1265.8777136999995,72,23,female,True,12658,12665,False,False,expiration,expiration
444,0.05764276067112735,25,up,up,0.7316776000079699,0.7283704080234914,,experiment,cRDM,1.0,,,,1267.5110674999887,72,23,female,True,12674,12681,False,False,expiration,inspiration
445,0.05764276067112735,25,down,down,0.7276998000452295,0.6051183979378492,,experiment,cRDM,1.0,,,,1269.1109857999836,72,23,female,True,12690,12697,False,False,inspiration,inspiration
446,0.05764276067112735,25,down,up,0.9743587999837472,1.8903391922188133,,experiment,cRDM,1.0,,,,1271.9942387999615,72,23,female,True,12719,12729,False,False,expiration,expiration
447,0.05764276067112735,25,up,up,0.6303796999854967,1.0318955687199107,,experiment,cRDM,1.0,,,,1274.2773370999496,72,23,female,True,12742,12748,False,False,inspiration,peak
448,0.05764276067112735,25,up,down,0.6494538999977522,1.1996909090879804,,experiment,cRDM,1.0,,,,1276.3772392999965,72,23,female,True,12763,12769,False,False,trough,inspiration
449,0.05764276067112735,25,down,down,0.5380072999978438,1.0225197829660668,,experiment,cRDM,1.0,,,,1278.3106620999754,72,23,female,True,12782,12787,False,False,inspiration,inspiration
450,0.05764276067112735,25,up,up,0.7993225999525748,1.345980016032024,,experiment,cRDM,1.0,,,,1280.4604070999776,72,23,female,True,12804,12812,False,False,expiration,expiration
451,0.05764276067112735,25,down,down,0.6317817000090145,0.3671897032585165,,experiment,cRDM,1.0,,,,1281.8938249999776,72,23,female,True,12818,12824,False,False,expiration,expiration
452,0.05764276067112735,25,down,down,0.5855121000204235,0.7859407699346661,,experiment,cRDM,1.0,,,,1283.577147999953,72,23,female,True,12835,12841,False,False,inspiration,inspiration
453,0.05764276067112735,25,down,up,0.6416395999840461,1.3610871581030854,,experiment,cRDM,1.0,,,,1285.7770619999499,72,23,female,True,12857,12863,False,False,expiration,expiration
454,0.05764276067112735,25,up,up,0.9750139000243508,0.64985419112388,,experiment,cRDM,1.0,,,,1287.3436513000051,72,23,female,True,12872,12882,False,False,expiration,inspiration
455,0.05764276067112735,25,up,down,1.0687986999982968,0.5573985899388582,,experiment,cRDM,1.0,,,,1289.126913599961,72,23,female,True,12890,12901,False,False,inspiration,inspiration
456,0.05764276067112735,25,up,up,0.9855468000168912,1.2621265083138782,,experiment,cRDM,1.0,,,,1291.710158999951,72,23,female,True,12916,12926,False,False,expiration,expiration
457,0.05764276067112735,25,down,down,0.6686386999790557,1.4833887127756964,,experiment,cRDM,1.0,,,,1294.460031399969,72,23,female,True,12943,12950,False,False,inspiration,inspiration
458,0.05764276067112735,25,down,down,0.9560026000253856,1.1797620549745222,,experiment,cRDM,1.0,,,,1296.5766625999822,72,23,female,True,12965,12975,False,False,inspiration,peak
459,0.05764276067112735,25,up,up,0.8261074999463744,1.4184628020321397,,experiment,cRDM,1.0,,,,1299.2265434999715,72,23,female,True,12991,12999,False,False,expiration,expiration
460,0.05764276067112735,25,down,down,0.5961890000035055,1.5163327597689489,,experiment,cRDM,1.0,,,,1301.8264702999734,72,23,female,True,13017,13023,False,False,inspiration,expiration
461,0.05764276067112735,25,up,up,0.7295989000122063,0.7665910878843998,,experiment,cRDM,1.0,,,,1303.443055199983,72,23,female,True,13033,13040,False,False,expiration,expiration
462,0.05764276067112735,25,up,down,0.7940469000022858,1.1758597557567492,,experiment,cRDM,1.0,,,,1305.6096504000016,72,23,female,True,13055,13063,False,False,expiration,inspiration
463,0.05764276067112735,25,up,up,0.6657818999956362,1.4614471937335791,,experiment,cRDM,1.0,,,,1308.1428789999918,72,23,female,True,13080,13087,False,False,expiration,expiration
464,0.05764276067112735,25,down,up,0.6172052000183612,1.9366368436237376,,experiment,cRDM,1.0,,,,1311.0094311999856,72,23,female,True,13109,13115,False,False,inspiration,inspiration
465,0.05764276067112735,25,down,down,0.6920288000255823,1.8432770475922289,,experiment,cRDM,1.0,,,,1313.7426535999984,72,23,female,True,13136,13143,False,False,inspiration,inspiration
466,0.05764276067112735,25,up,up,0.7045404000091366,1.2597236153739568,,experiment,cRDM,1.0,,,,1315.9591168999905,72,23,female,True,13159,13166,False,False,expiration,expiration
467,0.05764276067112735,25,down,down,1.0374749000184238,0.7893507097577681,,experiment,cRDM,1.0,,,,1317.7092105000047,72,23,female,True,13176,13186,False,False,expiration,inspiration
468,0.05764276067112735,25,down,up,1.0158629000070505,1.2240903985457483,,experiment,cRDM,1.0,,,,1320.2257913999492,72,23,female,True,13201,13211,False,False,inspiration,inspiration
469,0.05764276067112735,25,up,down,0.7083311000023969,1.9837770485530768,,experiment,cRDM,1.0,,,,1323.4923074999824,72,23,female,True,13234,13241,False,False,expiration,expiration
470,0.05764276067112735,25,up,down,0.6017466000048444,1.5331535182397562,,experiment,cRDM,1.0,,,,1326.0089084999636,72,23,female,True,13259,13265,False,False,inspiration,peak
471,0.05764276067112735,25,down,down,0.6355935999890789,1.5695868831320308,,experiment,cRDM,1.0,,,,1328.4421264999546,72,23,female,True,13283,13289,False,False,expiration,inspiration
472,0.05764276067112735,25,up,up,0.8422962999902666,1.8962076183517331,,experiment,cRDM,1.0,,,,1331.2253625000012,72,23,female,True,13311,13319,False,False,inspiration,peak
473,0.05764276067112735,25,down,down,0.8547289000125602,1.1060356494845398,,experiment,cRDM,1.0,,,,1333.441923699982,72,23,female,True,13333,13342,False,False,trough,inspiration
474,0.05764276067112735,25,down,down,0.7752625999855809,0.30844969248417226,,experiment,cRDM,1.0,,,,1334.8583844999664,72,23,female,True,13348,13356,False,False,inspiration,inspiration
475,0.05764276067112735,25,down,down,0.8158391999895684,1.5945857662177938,,experiment,cRDM,1.0,,,,1337.4918188999873,72,23,female,True,13374,13382,False,False,inspiration,expiration
476,0.05764276067112735,25,up,down,1.127467499987688,1.7785011163486817,,experiment,cRDM,1.0,,,,1340.3581888999906,72,23,female,True,13403,13414,False,False,expiration,inspiration
477,0.05764276067112735,25,up,up,1.1200402000104075,0.8965028616863246,,experiment,cRDM,1.0,,,,1342.6416119999485,72,23,female,True,13425,13436,False,False,expiration,expiration
478,0.05764276067112735,25,down,down,0.6519922000006773,1.9498820288167358,,experiment,cRDM,1.0,,,,1345.9746741999988,72,23,female,True,13459,13466,False,False,inspiration,inspiration
479,0.05764276067112735,25,down,down,0.7640409999876283,0.6906170572257053,,experiment,cRDM,1.0,,,,1347.574655299948,72,23,female,True,13475,13483,False,False,inspiration,inspiration
480,0.05764276067112735,25,up,down,0.73781829996733,1.5540307239007098,,experiment,cRDM,1.0,,,,1350.1578359999694,72,23,female,True,13501,13508,False,False,inspiration,expiration
481,0.05764276067112735,25,up,down,0.7076975999516435,1.0376961910916551,,experiment,cRDM,1.0,,,,1352.2079526999732,72,23,female,True,13521,13528,False,False,expiration,expiration
482,0.05764276067112735,25,up,up,0.9134380000177772,0.5645789022742032,,experiment,cRDM,1.0,,,,1353.7411908999784,72,23,female,True,13536,13545,False,False,inspiration,inspiration
483,0.05764276067112735,25,up,up,0.7102029999950901,1.0022982607808084,,experiment,cRDM,1.0,,,,1355.924448899983,72,23,female,True,13558,13565,False,False,expiration,expiration
484,0.05764276067112735,25,up,up,0.8036771999904886,1.5322071701905482,,experiment,cRDM,1.0,,,,1358.4410297999855,72,23,female,True,13583,13591,False,False,inspiration,inspiration
485,0.05764276067112735,25,down,down,1.3267056999611668,0.9425803402353894,,experiment,cRDM,1.0,,,,1360.44094999996,72,23,female,True,13603,13616,False,False,expiration,expiration
486,0.05764276067112735,25,down,down,0.68811220000498,0.32923099776281817,,experiment,cRDM,1.0,,,,1362.357541699952,72,23,female,True,13623,13630,False,False,expiration,expiration
487,0.05764276067112735,25,up,down,0.7421707000466995,0.5497407195317577,,experiment,cRDM,1.0,,,,1363.8574768999824,72,23,female,True,13638,13645,False,False,expiration,expiration
488,0.05764276067112735,25,down,down,1.180246600008104,1.7018674666161226,,experiment,cRDM,1.0,,,,1366.5574028999545,72,23,female,True,13665,13677,False,False,expiration,expiration
489,0.05764276067112735,25,down,down,0.6834012999897823,1.958180584913184,,experiment,cRDM,1.0,,,,1369.9572478999617,72,23,female,True,13698,13705,False,False,inspiration,inspiration
490,0.05764276067112735,25,down,down,0.7360974000184797,1.084281717330796,,experiment,cRDM,1.0,,,,1371.9905640999789,72,23,female,True,13719,13726,False,False,expiration,expiration
491,0.05764276067112735,25,up,down,0.6549109999905339,1.0406791571079417,,experiment,cRDM,1.0,,,,1374.0237839999609,72,23,female,True,13739,13746,False,False,expiration,inspiration
492,0.05764276067112735,25,down,down,0.7352359999786131,0.8892346057385891,,experiment,cRDM,1.0,,,,1375.8237244999618,72,23,female,True,13757,13764,False,False,peak,expiration
493,0.05764276067112735,25,down,down,0.6826631000149064,0.8875097878267952,,experiment,cRDM,1.0,,,,1377.7069871999554,72,23,female,True,13776,13783,False,False,expiration,trough
494,0.05764276067112735,25,down,down,0.9369690000312404,1.8998101851055935,,experiment,cRDM,1.0,,,,1380.5566888999892,72,23,female,True,13805,13814,False,False,expiration,expiration
495,0.05764276067112735,25,up,up,1.0458508000010625,0.7609591710793815,,experiment,cRDM,1.0,,,,1382.5068017999874,72,23,female,True,13824,13834,False,False,inspiration,peak
496,0.05764276067112735,25,up,down,0.653398800001014,0.8700147648197802,,experiment,cRDM,1.0,,,,1384.6732528999564,72,23,female,True,13846,13853,False,False,expiration,trough
497,0.05764276067112735,25,down,down,0.7983843000256456,1.6339883986933357,,experiment,cRDM,1.0,,,,1387.2233069999493,72,23,female,True,13871,13879,False,False,expiration,expiration
498,0.05764276067112735,25,up,down,0.7406395000289194,1.9911847107022351,,experiment,cRDM,1.0,,,,1390.2730089999966,72,23,female,True,13902,13909,False,False,inspiration,expiration
499,0.05764276067112735,25,down,down,0.8662375000421889,1.8771485107748618,,experiment,cRDM,1.0,,,,1393.156399999978,72,23,female,True,13930,13939,False,False,inspiration,inspiration
500,0.05764276067112735,25,up,up,0.8999914000160061,1.7990879097117172,,experiment,cRDM,1.0,,,,1396.0896744999918,72,23,female,True,13960,13969,False,False,expiration,inspiration
501,0.05764276067112735,25,up,down,0.9814117000205442,1.2571668888892429,,experiment,cRDM,1.0,,,,1398.5062201999826,72,23,female,True,13984,13994,False,False,inspiration,inspiration
502,145.0,25,M,up,0.8309425999759696,1.5694615235372424,,experiment,emotion,2.0,,,,1428.9717196999698,72,23,female,True,14289,14297,False,False,expiration,expiration
503,131.0,25,M,down,0.8096482999972068,1.6144108835998408,,experiment,emotion,2.0,,,,1431.7049945999752,72,23,female,True,14316,14324,False,False,inspiration,inspiration
504,140.0,25,F,down,0.8657526999595575,1.7546340735663604,,experiment,emotion,2.0,,,,1434.5549135999756,72,23,female,True,14345,14354,False,False,inspiration,inspiration
505,145.0,25,F,down,0.6709926999756135,1.6661322585902114,,experiment,emotion,2.0,,,,1437.3546441999497,72,23,female,True,14373,14380,False,False,expiration,expiration
506,140.0,25,M,down,0.713974500016775,1.5035517469633752,,experiment,emotion,2.0,,,,1439.8046954000022,72,23,female,True,14397,14404,False,False,inspiration,inspiration
507,136.0,25,F,down,0.654404999979306,1.701693080826074,,experiment,emotion,2.0,,,,1442.5212475999726,72,23,female,True,14424,14431,False,False,expiration,expiration
508,131.0,25,M,down,0.6917340999934822,0.6517641156839484,,experiment,emotion,2.0,,,,1444.0878752999704,72,23,female,True,14440,14447,False,False,inspiration,inspiration
509,136.0,25,M,up,0.9498807999771088,1.8375460933006165,,experiment,emotion,2.0,,,,1446.8877679999566,72,23,female,True,14468,14477,False,False,expiration,expiration
510,145.0,25,F,down,1.2202919999836013,0.7487089693953749,,experiment,emotion,2.0,,,,1448.8543548999587,72,23,female,True,14487,14499,False,False,inspiration,expiration
511,136.0,25,F,down,0.7710832000011578,1.9968089913217453,,experiment,emotion,2.0,,,,1452.337541899993,72,23,female,True,14522,14530,False,False,inspiration,inspiration
512,140.0,25,F,up,1.0311305999639444,1.2524887556439706,,experiment,emotion,2.0,,,,1454.6374634999665,72,23,female,True,14545,14555,False,False,expiration,expiration
513,145.0,25,F,down,0.6915808999910951,1.2768499976610048,,experiment,emotion,2.0,,,,1457.204063399986,72,23,female,True,14571,14578,False,False,expiration,expiration
514,140.0,25,F,down,0.8376546000363305,0.6303745309302503,,experiment,emotion,2.0,,,,1458.8039899999856,72,23,female,True,14587,14595,False,False,inspiration,inspiration
515,131.0,25,F,down,0.6560036999871954,0.4063549427548505,,experiment,emotion,2.0,,,,1460.3206374999716,72,23,female,True,14602,14609,False,False,inspiration,inspiration
516,136.0,25,M,down,1.1424676000024192,0.3833365919087317,,experiment,emotion,2.0,,,,1461.637205899984,72,23,female,True,14615,14626,False,False,inspiration,inspiration
517,131.0,25,M,down,0.6478016000473872,0.6095107617640052,,experiment,emotion,2.0,,,,1463.653840199986,72,23,female,True,14636,14642,False,False,expiration,expiration
518,145.0,25,M,up,1.2431907000136562,0.40098888396975535,,experiment,emotion,2.0,,,,1464.9704548000007,72,23,female,True,14649,14661,False,False,inspiration,expiration
519,131.0,25,M,up,1.1989261000417173,1.609074030475499,,experiment,emotion,2.0,,,,1468.1036639999948,72,23,female,True,14680,14692,False,False,inspiration,peak
520,140.0,25,F,up,1.0124197999830358,1.3449927789154146,,experiment,emotion,2.0,,,,1470.9202283999764,72,23,female,True,14708,14718,False,False,expiration,expiration
521,140.0,25,M,up,0.7181858000112697,1.3182778255512326,,experiment,emotion,2.0,,,,1473.5034494999563,72,23,female,True,14734,14741,False,False,inspiration,expiration
522,136.0,25,M,up,0.6352675999514759,1.0929450630285549,,experiment,emotion,2.0,,,,1475.6033710999766,72,23,female,True,14755,14761,False,False,expiration,expiration
523,136.0,25,F,up,0.7844235000084154,0.35522341757376275,,experiment,emotion,2.0,,,,1476.8532169999673,72,23,female,True,14768,14776,False,False,inspiration,inspiration
524,131.0,25,M,up,0.811037799983751,0.7348341538673777,,experiment,emotion,2.0,,,,1478.6365856999764,72,23,female,True,14785,14793,False,False,expiration,expiration
525,145.0,25,F,up,0.8474448000197299,0.3103200666590553,,experiment,emotion,2.0,,,,1480.0531899000052,72,23,female,True,14800,14808,False,False,expiration,trough
526,140.0,25,F,up,0.8161972999805585,1.3150417774135277,,experiment,emotion,2.0,,,,1482.4864404999537,72,23,female,True,14824,14832,False,False,expiration,expiration
527,131.0,25,M,up,0.7846281999954954,0.9659228861995768,,experiment,emotion,2.0,,,,1484.553006699949,72,23,female,True,14845,14853,False,False,inspiration,inspiration
528,145.0,25,M,up,0.8193373000249267,1.526034654836107,,experiment,emotion,2.0,,,,1487.1362599999993,72,23,female,True,14870,14878,False,False,expiration,expiration
529,145.0,25,F,up,0.719453799945768,1.5469209583783463,,experiment,emotion,2.0,,,,1489.7861849999756,72,23,female,True,14897,14904,False,False,inspiration,expiration
530,136.0,25,M,down,1.1829712999751791,0.86841611905126,,experiment,emotion,2.0,,,,1491.652666399954,72,23,female,True,14916,14928,False,False,expiration,inspiration
531,131.0,25,F,down,0.7836749000125565,1.1340904176572988,,experiment,emotion,2.0,,,,1494.2360051999567,72,23,female,True,14941,14949,False,False,peak,expiration
532,136.0,25,F,down,0.6740490999654867,1.665348942054854,,experiment,emotion,2.0,,,,1496.9525478999713,72,23,female,True,14969,14976,False,False,inspiration,inspiration
533,140.0,25,F,up,0.7828461999888532,1.9212142159592385,,experiment,emotion,2.0,,,,1499.8357808999717,72,23,female,True,14997,15005,False,False,expiration,expiration
534,131.0,25,M,down,1.5309091999661175,0.7863906067331229,,experiment,emotion,2.0,,,,1501.6857387999771,72,23,female,True,15016,15031,False,False,inspiration,expiration
535,145.0,25,M,,,0.9313261367463684,,experiment,emotion,2.0,,,,1504.4356221999624,72,23,female,True,15043,0,False,False,expiration,0
536,140.0,25,M,up,0.8054649999830872,1.378546920123763,,experiment,emotion,2.0,,,,1508.5021502999589,72,23,female,True,15084,15092,False,False,inspiration,peak
537,145.0,25,F,up,0.7512725000269711,1.6071287959556506,,experiment,emotion,2.0,,,,1511.1853824999996,72,23,female,True,15111,15119,False,False,inspiration,inspiration
538,131.0,25,F,up,0.9387194999726488,0.7312586593169793,,experiment,emotion,2.0,,,,1512.9519120999612,72,23,female,True,15129,15138,False,False,expiration,expiration
