,stimLvl,stimTime,rand,response,rt,precedingITI,trialNumber,trialType,stimuli,block,estIntens,estThres,estSlope,trialStart,subject,age,gender,headRest,onset,responsI,manBadOnset,manBadRespons,onset_phase,respons_phase
0,0.9,100,down,,,0.5180464496738959,,introTrial,cRDM,,,,,214.45396340000028,76,24,male,True,2143,0,False,False,expiration,0
1,150.0,100,F,,,0.5888934934114461,,introTrial,emotion,,,,,219.0036253000003,76,24,male,True,2189,0,False,False,expiration,0
2,200.0,25,M,up,1.0667339000001448,1.4395029371733756,,tutorial,emotion,,,,,261.2021850000001,76,24,male,True,2611,2622,False,False,inspiration,expiration
3,200.0,25,F,up,0.5961797999998453,0.500713695984921,,tutorial,emotion,,,,,263.0687558,76,24,male,True,2629,2635,False,False,expiration,expiration
4,200.0,25,F,up,0.7579319999999825,0.5519240375956809,,tutorial,emotion,,,,,264.50195770000033,76,24,male,True,2644,2652,False,False,inspiration,inspiration
5,0.0,25,M,down,0.4811937999998008,0.9439599380261998,,tutorial,emotion,,,,,266.5186521999999,76,24,male,True,2664,2669,False,False,expiration,expiration
6,0.0,25,M,down,0.5457351000000017,1.406294314532736,,tutorial,emotion,,,,,268.70215520000005,76,24,male,True,2686,2691,False,False,peak,expiration
7,200.0,25,F,up,0.6554729999998017,1.8460768458010373,,tutorial,emotion,,,,,271.36846190000006,76,24,male,True,2712,2719,False,False,inspiration,inspiration
8,0.0,25,M,down,0.7022014999997737,0.8430443700932664,,tutorial,emotion,,,,,273.1517226000001,76,24,male,True,2730,2737,False,False,expiration,expiration
9,200.0,25,F,up,0.6980962000002364,1.8708018095457195,,tutorial,emotion,,,,,276.0018826999999,76,24,male,True,2759,2766,False,False,inspiration,expiration
10,0.0,25,M,down,0.556352699999934,0.3729872912828319,,tutorial,emotion,,,,,277.3515820000003,76,24,male,True,2772,2778,False,False,expiration,expiration
11,0.0,25,F,down,0.6227250000001732,1.428884293176058,,tutorial,emotion,,,,,279.61815090000033,76,24,male,True,2795,2801,False,False,peak,expiration
12,0.9,25,up,up,0.686716400000023,1.1854927573936116,,tutorial,cRDM,,,,,297.4841836999999,76,24,male,True,2973,2980,False,False,expiration,expiration
13,0.9,25,up,up,0.8348172999999406,0.9395281158085856,,tutorial,cRDM,,,,,299.3841010999999,76,24,male,True,2992,3000,False,False,trough,inspiration
14,0.9,25,down,down,0.6083812000001672,1.5055817670887215,,tutorial,cRDM,,,,,302.00055180000027,76,24,male,True,3019,3025,False,False,expiration,expiration
15,0.9,25,down,down,0.578259700000217,0.4495926533746418,,tutorial,cRDM,,,,,303.3506189,76,24,male,True,3032,3038,False,False,inspiration,inspiration
16,0.9,25,up,up,0.5656371999998555,0.8223186353746894,,tutorial,cRDM,,,,,305.0172391000001,76,24,male,True,3049,3055,False,False,expiration,expiration
17,0.9,25,down,down,0.6104593000000023,1.4807957972639223,,tutorial,cRDM,,,,,307.3504693,76,24,male,True,3072,3078,False,False,peak,expiration
18,0.9,25,up,up,0.6018816000000697,1.5514786600337902,,tutorial,cRDM,,,,,309.7670360000002,76,24,male,True,3096,3102,False,False,expiration,inspiration
19,0.9,25,up,up,0.6109013999998751,0.9153042677581896,,tutorial,cRDM,,,,,311.5669984000001,76,24,male,True,3114,3120,False,False,peak,expiration
20,0.9,25,down,down,0.4726237999998375,1.6019621790393328,,tutorial,cRDM,,,,,314.0502734000001,76,24,male,True,3139,3144,False,False,inspiration,inspiration
21,0.9,25,down,down,0.7570812999997543,1.1695387852534147,,tutorial,cRDM,,,,,315.9668177000003,76,24,male,True,3158,3166,False,False,expiration,expiration
22,100.0,25,M,down,1.163691799999924,1.3611377546680403,,psi_staircase_training,emotion,,100.0,100.0,25.00050000000001,368.5981749000002,76,24,male,True,3685,3697,False,False,expiration,expiration
23,145.0,25,M,up,0.9320872000002964,0.9026676672657568,,psi_staircase_training,emotion,,145.25719053245996,145.25719053245996,25.000500000000283,371.0147857000002,76,24,male,True,3709,3718,False,False,expiration,expiration
24,121.0,25,F,up,0.9019388000001528,1.6000428218214964,,psi_staircase_training,emotion,,120.36392901436103,120.36392901436103,25.71326925488699,373.89795580000015,76,24,male,True,3738,3747,False,False,inspiration,expiration
25,97.0,25,F,up,1.1380705999999918,1.2404640407158616,,psi_staircase_training,emotion,,102.38876106084959,102.38876106084959,26.14633372628729,376.39785939999996,76,24,male,True,3763,3774,False,False,expiration,expiration
26,73.0,25,M,down,0.8653819000001022,0.8654064129576549,,psi_staircase_training,emotion,,82.84358992132628,82.84358992132628,31.43229144782805,378.76450920000025,76,24,male,True,3786,3795,False,False,inspiration,peak
27,84.0,25,F,down,0.9271557000001848,0.8888571672656571,,psi_staircase_training,emotion,,94.9613577591715,94.9613577591715,29.694064005486627,380.89775760000015,76,24,male,True,3808,3817,False,False,expiration,expiration
28,112.0,25,M,up,0.6809422999999697,0.8920031957894334,,psi_staircase_training,emotion,,101.83848744414509,101.83848744414509,27.875884705401482,383.08098340000015,76,24,male,True,3830,3837,False,False,inspiration,expiration
29,84.0,25,F,down,0.9890267999999196,1.03449249723722,,psi_staircase_training,emotion,,96.52149301196151,96.52149301196151,26.16750556784959,385.13092499999993,76,24,male,True,3850,3860,False,False,expiration,expiration
30,112.0,25,F,up,0.887800999999854,1.2452696316712963,,psi_staircase_training,emotion,,100.4399405768832,100.4399405768832,24.06105184598652,387.71416370000003,76,24,male,True,3876,3885,False,False,expiration,expiration
31,86.0,25,M,down,1.4568613999999798,1.5066099933210289,,psi_staircase_training,emotion,,97.27117883264343,97.27117883264343,21.995508974138584,390.4640543,76,24,male,True,3903,3918,False,False,inspiration,expiration
32,109.0,25,F,up,1.485942400000113,0.5006770556920253,,psi_staircase_training,emotion,,99.8380683730314,99.8380683730314,19.86449481087272,392.7639807000001,76,24,male,True,3926,3941,False,False,inspiration,expiration
33,89.0,25,F,up,1.3071324000002278,1.6997313166248704,,psi_staircase_training,emotion,,97.57882283297954,97.57882283297954,17.856501798714334,396.3138465000001,76,24,male,True,3962,3975,False,False,inspiration,expiration
34,76.0,25,F,down,0.7257363999997324,0.6142164200737406,,psi_staircase_training,emotion,,92.69357162067158,92.69357162067158,22.871454661283487,398.5971175,76,24,male,True,3985,3992,False,False,expiration,expiration
35,78.0,25,M,down,1.3285666000001584,0.7428079048581069,,psi_staircase_training,emotion,,94.38778220626736,94.38778220626736,20.870664995229827,400.43036269999993,76,24,male,True,4003,4016,False,False,inspiration,expiration
36,109.0,25,M,up,0.7503492999999253,1.6595692363818064,,psi_staircase_training,emotion,,95.589178393808,95.589178393808,19.14693168673489,403.7635705000001,76,24,male,True,4036,4044,False,False,inspiration,expiration
37,107.0,25,F,up,0.7301072000000204,1.2367444251868502,,psi_staircase_training,emotion,,94.2493335712992,94.2493335712992,17.40432003584725,406.0968175000002,76,24,male,True,4060,4067,False,False,expiration,inspiration
38,81.0,25,F,up,0.5753644000001259,0.42900783777393336,,psi_staircase_training,emotion,,93.20840142239149,93.20840142239149,15.90884774580953,407.6134809,76,24,male,True,4075,4081,False,False,peak,expiration
39,71.0,25,M,down,0.7154829999999492,0.5173864641773491,,psi_staircase_training,emotion,,89.4855475353957,89.4855475353957,22.105033016395772,409.06337140000005,76,24,male,True,4089,4096,False,False,expiration,expiration
40,72.0,25,M,down,1.0853551000000152,1.855987705264424,,psi_staircase_training,emotion,,90.61444405558241,90.61444405558241,20.473994198251642,411.9965510000001,76,24,male,True,4119,4130,False,False,expiration,expiration
41,108.0,25,M,down,1.252101500000208,0.6516076364049915,,psi_staircase_training,emotion,,91.4473167564534,91.4473167564534,19.073994109768226,414.0798125000002,76,24,male,True,4140,4153,False,False,inspiration,expiration
42,118.0,25,M,up,1.1591252000002896,1.3573722828866914,,psi_staircase_training,emotion,,94.842231222695,94.842231222695,24.6411552825327,417.0297628000003,76,24,male,True,4169,4181,False,False,expiration,inspiration
43,71.0,25,F,down,0.9119500000001608,1.1944672875862663,,psi_staircase_training,emotion,,94.03887655952805,94.03887655952805,23.430251066911605,419.7129808,76,24,male,True,4196,4205,False,False,expiration,expiration
44,116.0,25,F,up,1.2870448999997282,1.7397746816547082,,psi_staircase_training,emotion,,94.7348791622503,94.7348791622503,22.283071741680306,422.71288180000016,76,24,male,True,4226,4239,False,False,expiration,expiration
45,73.0,25,F,down,0.6151449999997567,0.4728720860576445,,psi_staircase_training,emotion,,94.05026476119691,94.05026476119691,21.171659685198275,424.8127920000002,76,24,male,True,4247,4253,False,False,inspiration,inspiration
46,114.0,25,M,up,0.601155800000015,1.1873144706079928,,psi_staircase_training,emotion,,94.64263155118809,94.64263155118809,20.143315551292325,426.9627041000003,76,24,male,True,4268,4274,False,False,expiration,expiration
47,75.0,25,M,down,1.0478834999998978,0.3139780519988137,,psi_staircase_training,emotion,,94.04627927796349,94.04627927796349,19.16184888387864,428.2460112000003,76,24,male,True,4281,4291,False,False,inspiration,inspiration
48,112.0,25,F,up,0.6730333999998948,1.41403945322949,,psi_staircase_training,emotion,,94.56466932668293,94.56466932668293,18.27072598638571,431.0458943000003,76,24,male,True,4309,4316,False,False,expiration,expiration
49,76.0,25,F,down,0.7031096999999136,0.8301980856665605,,psi_staircase_training,emotion,,94.02899346423868,94.02899346423868,17.427538753196586,432.89578609999984,76,24,male,True,4328,4335,False,False,inspiration,expiration
50,110.0,25,M,down,1.2958856000000196,1.1184173397584127,,psi_staircase_training,emotion,,94.46938690904959,94.46938690904959,16.6827783423997,435.07907449999993,76,24,male,True,4349,4362,False,False,expiration,inspiration
51,118.0,25,M,up,0.7203244000002087,1.9215585069054129,,psi_staircase_training,emotion,,96.82203880832623,96.82203880832623,20.04137559828773,438.64561469999984,76,24,male,True,4385,4392,False,False,expiration,expiration
52,0.29,25,up,up,1.0721807999998418,0.3014960846071677,,psi_staircase_training,cRDM,,0.25,0.25693124029946324,0.10500000000000002,446.3286785,76,24,male,True,4462,4473,False,False,expiration,inspiration
53,0.25,25,up,up,1.2679282999997668,0.3862773379897672,,psi_staircase_training,cRDM,,0.21910266653183127,0.2260132002683493,0.10468632033873933,448.06194630000033,76,24,male,True,4479,4492,False,False,expiration,expiration
54,0.21,25,down,down,0.5970622999998341,1.3524406644589777,,psi_staircase_training,cRDM,,0.1900540959403307,0.19684979615540016,0.10294672984249993,450.96183539999987,76,24,male,True,4508,4514,False,False,inspiration,expiration
55,0.18,25,down,down,1.1911269999995966,0.5011868011016298,,psi_staircase_training,cRDM,,0.1635257589279754,0.1701521334256793,0.100381647756865,452.3617914000001,76,24,male,True,4522,4534,False,False,expiration,expiration
56,0.15,25,up,up,0.5319556000004013,1.3170132548457736,,psi_staircase_training,cRDM,,0.14018955742449365,0.14660133511875031,0.0971307628663642,455.14501879999983,76,24,male,True,4550,4555,False,False,peak,expiration
57,0.13,25,down,up,0.6740695999997115,0.5438000601751757,,psi_staircase_training,cRDM,,0.11987606021454796,0.12605547676183335,0.09361076941961036,456.4948236000001,76,24,male,True,4564,4571,False,False,expiration,expiration
58,0.21,25,up,up,0.8043557999999393,1.823949514707115,,psi_staircase_training,cRDM,,0.1822197442013377,0.18935685454542567,0.10811868493251764,459.26157259999985,76,24,male,True,4591,4599,False,False,expiration,expiration
59,0.19,25,down,down,0.4234062000000449,0.8842250821507134,,psi_staircase_training,cRDM,,0.16346732969558295,0.17035613631435872,0.104357180493002,461.21148790000007,76,24,male,True,4611,4615,False,False,trough,inspiration
60,0.17,25,down,up,0.5915618999997605,1.9566795730008777,,psi_staircase_training,cRDM,,0.1479762083426976,0.15459564791025282,0.10027659186006296,463.8613419000003,76,24,male,True,4637,4643,False,False,expiration,expiration
61,0.23,25,up,down,0.5489647999997942,1.2515024844621143,,psi_staircase_training,cRDM,,0.19983788989911155,0.20728400900917465,0.1127997981280737,465.97794930000015,76,24,male,True,4658,4663,False,False,inspiration,peak
62,0.32,25,down,down,0.5936101000002054,1.3994654440868703,,psi_staircase_training,cRDM,,0.2671059537612564,0.27570425518136243,0.13025398198660762,468.21122689999993,76,24,male,True,4681,4687,False,False,expiration,expiration
63,0.3,25,down,down,0.6841105000003154,0.7546342625012838,,psi_staircase_training,cRDM,,0.2483310128242561,0.25692942604377944,0.1302556756140536,469.82782660000015,76,24,male,True,4697,4704,False,False,inspiration,peak
64,0.28,25,down,down,0.6003674999997202,1.5931878708266642,,psi_staircase_training,cRDM,,0.2317126938956408,0.24023139504064775,0.1290481330296685,472.3946606,76,24,male,True,4723,4729,False,False,expiration,expiration
65,0.26,25,up,down,0.8658854999998766,0.9919511497079874,,psi_staircase_training,cRDM,,0.2169531841920876,0.22536415027585205,0.12741607571499972,474.26098189999993,76,24,male,True,4741,4750,False,False,inspiration,expiration
66,0.32,25,up,down,0.5126570000002175,1.2561754773811218,,psi_staircase_training,cRDM,,0.27006092906380874,0.2787794254317893,0.13207479168033534,476.64423459999983,76,24,male,True,4765,4770,False,False,expiration,trough
67,0.39,25,down,down,0.8114681000001838,1.5544543283352232,,psi_staircase_training,cRDM,,0.3277173050601661,0.33696840628308106,0.1401431181777512,478.97745890000033,76,24,male,True,4789,4797,False,False,expiration,expiration
68,0.37,25,down,down,0.5744798999999148,0.6589225611815961,,psi_staircase_training,cRDM,,0.3138031714059152,0.32314647591230633,0.14153988763699893,480.727406,76,24,male,True,4806,4812,False,False,expiration,inspiration
69,0.36,25,up,down,0.6895542000002024,0.3406460274312303,,psi_staircase_training,cRDM,,0.30041422814287844,0.3098051021073611,0.14226050802870546,481.9273685000003,76,24,male,True,4818,4825,False,False,inspiration,expiration
70,0.41,25,up,down,1.082334400000036,1.4775482357889007,,psi_staircase_training,cRDM,,0.35069084639293724,0.3600979886555647,0.14250695328689916,484.36058490000005,76,24,male,True,4842,4853,False,False,trough,inspiration
71,0.45,25,up,up,0.5923029000000497,0.37778022878749307,,psi_staircase_training,cRDM,,0.3942247898150216,0.403459899909942,0.13990087171580645,486.11054199999984,76,24,male,True,4860,4866,False,False,expiration,expiration
72,0.44,25,up,up,1.1450015000000349,0.3462830502761392,,psi_staircase_training,cRDM,,0.3854155671076956,0.3947931442068976,0.1420590764242384,487.32718019999993,76,24,male,True,4872,4883,False,False,expiration,inspiration
73,0.4,25,down,down,0.4885033000000476,1.1021991686065242,,psi_staircase_training,cRDM,,0.3765863068905563,0.38607727415205495,0.1437768017557446,489.86038920000016,76,24,male,True,4897,4902,False,False,expiration,expiration
74,0.4,25,down,down,0.8012312999999267,0.4607743601113824,,psi_staircase_training,cRDM,,0.36550749818011785,0.3753500426299826,0.1491027756339406,491.09369400000014,76,24,male,True,4910,4918,False,False,inspiration,inspiration
75,0.4,25,down,down,0.7983868000001166,1.8641727325494664,,psi_staircase_training,cRDM,,0.3549056758866521,0.3649815493390784,0.15263743093522275,494.04358980000006,76,24,male,True,4939,4947,False,False,expiration,inspiration
76,0.4,25,up,down,1.3584067000001596,1.6653355148071756,,psi_staircase_training,cRDM,,0.344934460195589,0.35514649450885993,0.15470010511343593,496.7935207,76,24,male,True,4967,4981,False,False,expiration,expiration
77,0.4,25,up,down,0.6222487000000001,1.6104870500791513,,psi_staircase_training,cRDM,,0.38012008007051024,0.3901038153631148,0.15124164802144466,500.0267013000001,76,24,male,True,4999,5005,False,False,expiration,expiration
78,0.46,25,down,down,0.9908910999997717,0.5845433907348724,,psi_staircase_training,cRDM,,0.4066655432668557,0.4158526107013288,0.1391730828744129,501.51001380000025,76,24,male,True,5014,5024,False,False,expiration,inspiration
79,0.46,25,down,down,0.5890853999999308,1.5404816568026185,,psi_staircase_training,cRDM,,0.40158075970060414,0.4106532258212393,0.13743701004572834,504.3099138000002,76,24,male,True,5042,5048,False,False,expiration,expiration
80,0.46,25,up,up,1.3113776000000144,0.6520084835142264,,psi_staircase_training,cRDM,,0.3970649671958105,0.4059567906693644,0.13470049001121245,505.8264973,76,24,male,True,5057,5070,False,False,expiration,expiration
81,0.46,25,up,up,0.8831507999998394,1.992536258220991,,psi_staircase_training,cRDM,,0.393102771910069,0.4017638623928385,0.13120516118323225,509.40972120000015,76,24,male,True,5093,5102,False,False,expiration,expiration
82,100.0,25,M,up,1.0662418000001708,0.6335955124864845,,psi_staircase,emotion,,100.0,100.0,25.00050000000001,546.8416371000003,76,24,male,True,5467,5478,False,False,inspiration,expiration
83,55.0,25,M,down,0.6137370000001283,1.2576798300210117,,psi_staircase,emotion,,54.742809467541896,54.742809467541896,25.00050000000011,549.5082336999999,76,24,male,True,5494,5500,False,False,expiration,expiration
84,79.0,25,F,down,0.6557606000001215,1.413597991899383,,psi_staircase,emotion,,79.636070985635,79.636070985635,25.71326925488641,551.9081312000003,76,24,male,True,5518,5525,False,False,inspiration,expiration
85,103.0,25,F,up,1.1231856999997945,0.8653309900090684,,psi_staircase,emotion,,97.61123893914808,97.61123893914808,26.1463337262867,553.7747107000001,76,24,male,True,5536,5547,False,False,expiration,expiration
86,87.0,25,M,down,1.3782697999999982,1.3243016348514944,,psi_staircase,emotion,,85.98876744579668,85.98876744579668,23.003056417783494,556.5746079999999,76,24,male,True,5564,5578,False,False,expiration,expiration
87,95.0,25,F,up,0.965457299999798,0.39969118795994574,,psi_staircase,emotion,,95.05640406123078,95.05640406123078,22.150603223582724,558.6914595000003,76,24,male,True,5586,5596,False,False,trough,inspiration
88,84.0,25,M,down,0.9091483000001972,1.1611822509674818,,psi_staircase,emotion,,88.41622646561945,88.41622646561945,20.597853251064073,561.1577766999999,76,24,male,True,5610,5619,False,False,expiration,inspiration
89,92.0,25,F,down,0.8649135999999089,1.8235008993964748,,psi_staircase,emotion,,92.48012886422012,92.48012886422012,17.547034846052448,564.2409627000002,76,24,male,True,5641,5650,False,False,expiration,expiration
90,103.0,25,F,up,0.9783124999999018,0.9528811298754613,,psi_staircase,emotion,,96.8905074648852,96.8905074648852,18.870841324428707,566.4075863000003,76,24,male,True,5663,5673,False,False,inspiration,expiration
91,99.0,25,M,down,0.7520962999997209,1.1045051337631888,,psi_staircase,emotion,,93.80492701211605,93.80492701211605,15.11241007381393,568.8408174000001,76,24,male,True,5687,5695,False,False,inspiration,inspiration
92,111.0,25,F,down,1.126526499999727,1.8569023455168103,,psi_staircase,emotion,,98.53990789904086,98.53990789904086,22.93176653364061,571.8074283000002,76,24,male,True,5717,5728,False,False,inspiration,inspiration
93,124.0,25,F,down,0.8687310000000252,1.8894976634151917,,psi_staircase,emotion,,105.57150043081852,105.57150043081852,31.346984380291914,575.1741885000001,76,24,male,True,5751,5760,False,False,expiration,inspiration
94,134.0,25,F,up,0.650816599999871,1.1644095573700626,,psi_staircase,emotion,,113.42227628252995,113.42227628252995,36.467689850488924,577.5571576000002,76,24,male,True,5774,5781,False,False,expiration,expiration
95,133.0,25,M,up,0.5677720999997291,0.4990362510190613,,psi_staircase,emotion,,110.31054496023684,110.31054496023684,35.253737941398605,579.0570940000002,76,24,male,True,5789,5795,False,False,inspiration,inspiration
96,132.0,25,M,up,0.5891747999999097,1.8254638925406328,,psi_staircase,emotion,,107.84349954233528,107.84349954233528,34.095500876674976,581.8236889,76,24,male,True,5817,5823,False,False,expiration,expiration
97,131.0,25,F,up,0.599083999999948,1.6146954290139508,,psi_staircase,emotion,,105.84025282149412,105.84025282149412,32.98985785985522,584.3738364999998,76,24,male,True,5843,5849,False,False,expiration,expiration
98,78.0,25,F,down,0.7360659999999369,1.583890148111347,,psi_staircase,emotion,,104.18676118296088,104.18676118296088,31.93506182037281,586.9068276000003,76,24,male,True,5868,5875,False,False,inspiration,expiration
99,130.0,25,M,up,0.7164981000000807,1.6465595571664513,,psi_staircase,emotion,,105.54824428086584,105.54824428086584,30.92315004750221,589.6233811000002,76,24,male,True,5895,5902,False,False,expiration,inspiration
100,78.0,25,M,down,0.5328822999999829,0.3214271319066594,,psi_staircase,emotion,,104.16616385999909,104.16616385999909,29.81339592505075,590.9900433000003,76,24,male,True,5909,5914,False,False,peak,expiration
101,130.0,25,M,up,0.8516004000002795,0.5643988273454934,,psi_staircase,emotion,,105.25966138589504,105.25966138589504,28.7708042262919,592.4232765000003,76,24,male,True,5923,5932,False,False,expiration,expiration
102,128.0,25,M,up,0.7238446000001204,1.4451693271180817,,psi_staircase,emotion,,104.14055304861216,104.14055304861216,27.658128388448933,595.0730395999999,76,24,male,True,5950,5957,False,False,expiration,expiration
103,79.0,25,F,down,0.6997873000000254,1.8778667003373828,,psi_staircase,emotion,,103.16209455049315,103.16209455049315,26.606916198455345,598.0230928999998,76,24,male,True,5979,5986,False,False,inspiration,expiration
104,127.0,25,F,up,0.9238964999999552,0.6589963365660672,,psi_staircase,emotion,,104.07064542487156,104.07064542487156,25.52144850454393,599.7230245000002,76,24,male,True,5996,6005,False,False,expiration,inspiration
105,80.0,25,F,down,0.5189754000002722,0.5357737127458659,,psi_staircase,emotion,,103.24074853841852,103.24074853841852,24.50650782973528,601.5229491,76,24,male,True,6014,6019,False,False,expiration,expiration
106,125.0,25,M,up,0.9083356999999525,1.722238640799123,,psi_staircase,emotion,,103.99774776166107,103.99774776166107,23.488551269226857,604.1395269,76,24,male,True,6040,6049,False,False,inspiration,expiration
107,81.0,25,M,down,0.6455046000000948,1.1236859373920849,,psi_staircase,emotion,,103.25080522580392,103.25080522580392,22.53058643919748,606.5394103000002,76,24,male,True,6064,6070,False,False,inspiration,inspiration
108,123.0,25,F,up,0.541848100000152,0.4729360186427596,,psi_staircase,emotion,,103.88512326633534,103.88512326633534,21.604441573011712,608.0060444000002,76,24,male,True,6079,6084,False,False,expiration,expiration
109,83.0,25,F,down,0.8196499999999105,1.4304691392402895,,psi_staircase,emotion,,103.19798018720749,103.19798018720749,20.72237185663154,610.3392721,76,24,male,True,6102,6110,False,False,inspiration,peak
110,120.0,25,M,up,0.5859946000000491,0.7941967561996256,,psi_staircase,emotion,,103.76412116538046,103.76412116538046,19.886936157341108,612.3059063999998,76,24,male,True,6122,6128,False,False,expiration,expiration
111,118.0,25,M,up,0.6117949000004046,1.5028757718855068,,psi_staircase,emotion,,103.07720715639431,103.07720715639431,19.07847356824617,614.7391250000002,76,24,male,True,6146,6152,False,False,expiration,expiration
112,85.0,25,F,down,0.6521641999997883,1.5061616755171676,,psi_staircase,emotion,,102.41529015495527,102.41529015495527,18.332720709448463,617.2057256000003,76,24,male,True,6171,6178,False,False,inspiration,peak
113,115.0,25,M,up,0.5936610999997356,1.1142178347150762,,psi_staircase,emotion,,102.92657932163885,102.92657932163885,17.59814275674268,619.3223049000002,76,24,male,True,6192,6198,False,False,expiration,expiration
114,113.0,25,F,up,0.5397775999999794,1.313192868238784,,psi_staircase,emotion,,102.22464025414206,102.22464025414206,16.911766178204164,621.5891398000002,76,24,male,True,6215,6220,False,False,inspiration,expiration
115,111.0,25,M,up,0.5764213000002201,1.579738711126337,,psi_staircase,emotion,,101.5191857672155,101.5191857672155,16.26243231566565,624.0554660000003,76,24,male,True,6239,6245,False,False,inspiration,inspiration
116,109.0,25,F,down,0.8804893000001357,1.0743790981728123,,psi_staircase,emotion,,100.80030338349272,100.80030338349272,15.637667557276757,626.0553872999999,76,24,male,True,6259,6268,False,False,expiration,expiration
117,85.0,25,M,down,0.6013701000001674,1.4192073988797709,,psi_staircase,emotion,,102.58462279466141,102.58462279466141,17.11620423298551,628.6886354000002,76,24,male,True,6286,6292,False,False,expiration,expiration
118,86.0,25,F,down,0.6260687999997572,1.5029393407408609,,psi_staircase,emotion,,102.99754080541176,102.99754080541176,16.499616849773194,631.1218597999999,76,24,male,True,6310,6316,False,False,inspiration,inspiration
119,118.0,25,M,up,0.622125700000197,1.3256679424237972,,psi_staircase,emotion,,103.36791461056609,103.36791461056609,15.950670587500117,633.4217788999998,76,24,male,True,6333,6339,False,False,expiration,inspiration
120,88.0,25,M,down,0.7035495000000083,1.9974196687495156,,psi_staircase,emotion,,102.98022181114857,102.98022181114857,15.458980368694649,636.3883744,76,24,male,True,6363,6370,False,False,expiration,expiration
121,116.0,25,F,up,0.8573218000001361,1.9896480524016185,,psi_staircase,emotion,,103.34368489865486,103.34368489865486,14.975164735756055,639.4215661000002,76,24,male,True,6393,6402,False,False,expiration,expiration
122,115.0,25,F,up,1.3737071999998989,1.5668274471100467,,psi_staircase,emotion,,102.93921781665371,102.93921781665371,14.529947535257199,642.1881587000003,76,24,male,True,6421,6435,False,False,expiration,expiration
123,89.0,25,F,down,0.6175693000000138,1.3020290862016908,,psi_staircase,emotion,,102.54715256153172,102.54715256153172,14.1138538623965,645.2213383000002,76,24,male,True,6451,6457,False,False,peak,expiration
124,114.0,25,M,up,1.5126884000001155,1.8446738006617285,,psi_staircase,emotion,,102.88239484325321,102.88239484325321,13.69756461372998,648.0212145999999,76,24,male,True,6479,6494,False,False,inspiration,expiration
125,113.0,25,M,up,1.0008109000000331,1.0990875741475925,,psi_staircase,emotion,,102.49660182871028,102.49660182871028,13.312705694390203,650.9711176999998,76,24,male,True,6508,6518,False,False,inspiration,expiration
126,90.0,25,F,down,0.6168448999997054,0.376192997527805,,psi_staircase,emotion,,102.11578203570305,102.11578203570305,12.946335140003542,652.7210677000003,76,24,male,True,6526,6532,False,False,expiration,expiration
127,112.0,25,F,up,0.7674148000000969,0.4980462997554985,,psi_staircase,emotion,,102.4295404164129,102.4295404164129,12.578906562561468,654.1874954,76,24,male,True,6541,6549,False,False,inspiration,inspiration
128,111.0,25,F,down,0.6416094999999586,1.6427147213386086,,psi_staircase,emotion,,102.048971154577,102.048971154577,12.230649164696171,656.9542476000001,76,24,male,True,6568,6574,False,False,expiration,expiration
129,90.0,25,M,down,0.6885473000002094,0.36127184163516657,,psi_staircase,emotion,,103.3024657860312,103.3024657860312,13.340466890304112,658.2873752,76,24,male,True,6582,6589,False,False,inspiration,inspiration
130,91.0,25,M,down,0.5711616999997204,1.2506774331960158,,psi_staircase,emotion,,103.57537858133112,103.57537858133112,13.0024675523129,660.5707556000002,76,24,male,True,6604,6610,False,False,expiration,expiration
131,115.0,25,M,up,1.0998857999998108,1.163634956722928,,psi_staircase,emotion,,103.8396307588616,103.8396307588616,12.689968737696955,662.6540200000001,76,24,male,True,6625,6636,False,False,inspiration,expiration
132,0.29,25,up,up,0.7198747000002186,1.1505850819155798,,psi_staircase,cRDM,,0.25,0.25693124029946324,0.10500000000000002,671.1370443000002,76,24,male,True,6710,6717,False,False,expiration,expiration
133,0.25,25,up,down,0.5542998999999327,0.6457899725407219,,psi_staircase,cRDM,,0.21910266653183127,0.2260132002683493,0.10468632033873933,672.7536503000001,76,24,male,True,6726,6732,False,False,expiration,expiration
134,0.36,25,down,down,0.8323176999997486,1.2207138416079353,,psi_staircase,cRDM,,0.3202997408361979,0.3276103223604739,0.1107465658214764,674.8035979000001,76,24,male,True,6747,6755,False,False,peak,expiration
135,0.33,25,down,down,1.0617486000001009,0.7161504675857022,,psi_staircase,cRDM,,0.2990372097977385,0.30641398280716875,0.1117492876491608,676.6201738,76,24,male,True,6765,6776,False,False,expiration,expiration
136,0.31,25,up,up,0.606833700000152,0.76226679400453,,psi_staircase,cRDM,,0.2780189805609542,0.28539811096413914,0.1117849993448388,678.7201061999998,76,24,male,True,6786,6792,False,False,inspiration,peak
137,0.31,25,down,down,0.4721730000001117,1.3484453923067352,,psi_staircase,cRDM,,0.2582073586141265,0.2655339603556145,0.11098925295027023,680.9367004999998,76,24,male,True,6808,6813,False,False,expiration,expiration
138,0.29,25,up,down,0.6559001999999055,0.3518623169435621,,psi_staircase,cRDM,,0.24138240409280395,0.2485489846939697,0.1085651240775294,682.0199777000003,76,24,male,True,6819,6826,False,False,inspiration,inspiration
139,0.34,25,down,down,0.55533000000014,0.7989561755149492,,psi_staircase,cRDM,,0.3073454417166785,0.3149277051621045,0.11486222196500452,683.7365846000002,76,24,male,True,6836,6842,False,False,expiration,expiration
140,0.33,25,down,down,0.941754899999978,1.998953976509317,,psi_staircase,cRDM,,0.2927292575981572,0.3001400641015301,0.11226485437453584,686.5531470999998,76,24,male,True,6864,6873,False,False,expiration,expiration
141,0.33,25,up,down,0.6353535000002921,1.5200432711424836,,psi_staircase,cRDM,,0.2799629878781474,0.2871409858153892,0.1087380830626744,689.2695848000003,76,24,male,True,6892,6898,False,False,inspiration,expiration
142,0.37,25,down,down,0.9063954999996896,1.5009582333001574,,psi_staircase,cRDM,,0.3320353981898789,0.3406907973172827,0.1311189439569381,691.6696211000003,76,24,male,True,6915,6924,False,False,expiration,inspiration
143,0.37,25,down,down,0.8350067000001218,0.5548431497523993,,psi_staircase,cRDM,,0.3190764743538712,0.3276924259179506,0.13052136055626196,693.4029082000003,76,24,male,True,6933,6941,False,False,expiration,expiration
144,0.36,25,down,down,1.4868500000002314,0.7867891506212916,,psi_staircase,cRDM,,0.30766595591058826,0.31614955100447856,0.12851631834600513,695.2860304000002,76,24,male,True,6952,6967,False,False,inspiration,inspiration
145,0.32,25,up,up,1.1341442999996616,0.7027951099208215,,psi_staircase,cRDM,,0.2973373147173445,0.3056440834327319,0.12583761021576742,697.7527312999999,76,24,male,True,6976,6987,False,False,expiration,expiration
146,0.32,25,up,down,1.2156273999999032,0.9308831985115388,,psi_staircase,cRDM,,0.2850756035651033,0.29352037668086745,0.12792821181281186,700.0862894999999,76,24,male,True,7000,7012,False,False,inspiration,expiration
147,0.37,25,down,down,0.6189773000000969,0.3215098332210378,,psi_staircase,cRDM,,0.3244332246313388,0.3327389234372905,0.12582140236754835,701.8859352000001,76,24,male,True,7018,7024,False,False,expiration,expiration
148,0.37,25,down,down,0.5606409000001804,0.34358658316989804,,psi_staircase,cRDM,,0.3161580607546225,0.32420863732361344,0.12195660563225733,703.1192120000002,76,24,male,True,7030,7036,False,False,expiration,inspiration
149,0.37,25,up,down,0.6614531000000171,1.469605103326599,,psi_staircase,cRDM,,0.3092223414343046,0.31697347865205383,0.1174204576238246,705.4024472000001,76,24,male,True,7053,7060,False,False,expiration,expiration
150,0.39,25,up,up,0.6079050000003008,1.7885216340665702,,psi_staircase,cRDM,,0.3410954892172009,0.3506788248258704,0.1451760717325318,708.1190075000001,76,24,male,True,7080,7086,False,False,inspiration,expiration
151,0.39,25,up,up,1.2852944999999636,0.8413290018479562,,psi_staircase,cRDM,,0.3325429513083669,0.34204576047364466,0.14395619243376007,709.8356159,76,24,male,True,7097,7110,False,False,expiration,inspiration
152,0.39,25,up,up,0.9083722999998828,1.2477037335054375,,psi_staircase,cRDM,,0.3248152169541883,0.3341910559688079,0.14203274652175782,712.6355073,76,24,male,True,7125,7134,False,False,expiration,expiration
153,0.35000000000000003,25,down,down,0.5558871000002911,1.9400062561241775,,psi_staircase,cRDM,,0.3179039070838289,0.3271182829405712,0.1395867728078702,715.7520582000003,76,24,male,True,7156,7162,False,False,inspiration,inspiration
154,0.36,25,down,down,0.6498541999999361,0.8205068826007775,,psi_staircase,cRDM,,0.30975572783678057,0.3189671382550823,0.13954184996249192,717.4020565999998,76,24,male,True,7173,7179,False,False,expiration,expiration
155,0.36,25,down,down,0.8262153000000579,1.2985485003911896,,psi_staircase,cRDM,,0.3028496066494512,0.3119445651848893,0.13777774322655456,719.6186130000001,76,24,male,True,7195,7203,False,False,inspiration,expiration
156,0.31,25,up,up,0.6065880999999536,1.092341033326116,,psi_staircase,cRDM,,0.2966729868055001,0.30562072597344536,0.13554754589983073,721.8003045999999,76,24,male,True,7217,7223,False,False,expiration,expiration
157,0.31,25,up,down,1.1442717999998422,1.3244014099330468,,psi_staircase,cRDM,,0.2875108047271044,0.29680776163223843,0.1408377769148575,723.9836085000003,76,24,male,True,7239,7250,False,False,peak,expiration
158,0.37,25,down,down,0.6473574999999983,0.7138567639477491,,psi_staircase,cRDM,,0.3134613924032338,0.3219918249965126,0.12922585043886506,726.1005624,76,24,male,True,7260,7266,False,False,expiration,inspiration
159,0.36,25,down,down,1.0393168000000514,1.72783641919761,,psi_staircase,cRDM,,0.308806930559106,0.3170743891943523,0.12524210952087314,728.7515848000003,76,24,male,True,7286,7296,False,False,expiration,expiration
160,0.36,25,up,down,1.1440176999999494,0.5354874388451673,,psi_staircase,cRDM,,0.30441095582453725,0.31242981869126485,0.12147618097609413,730.5848606000001,76,24,male,True,7305,7316,False,False,trough,inspiration
161,0.39,25,up,down,0.5964671000001545,1.4106470826286,,psi_staircase,cRDM,,0.32373095456122497,0.3331600560243285,0.14283960890845648,733.4014379,76,24,male,True,7333,7339,False,False,expiration,expiration
162,0.43,25,down,down,0.6292324000000917,1.0866068223268084,,psi_staircase,cRDM,,0.34683924855051396,0.3571298820048916,0.1558907880878578,735.3346811000001,76,24,male,True,7352,7358,False,False,inspiration,inspiration
163,0.42,25,up,up,0.3338332999996965,1.0276511017293048,,psi_staircase,cRDM,,0.3417186948415408,0.35191246243598795,0.15442338617229015,737.2512541000001,76,24,male,True,7371,7374,False,False,expiration,expiration
164,0.41,25,down,down,0.6057889999997315,0.7270978323007022,,psi_staircase,cRDM,,0.3367146919707533,0.346810808560647,0.1529440902548028,738.6681554000003,76,24,male,True,7386,7392,False,False,expiration,inspiration
165,0.4,25,up,up,0.6894713000001502,1.81015602953096,,psi_staircase,cRDM,,0.33182146120553313,0.34182142128103515,0.15148743407569112,741.3344562999999,76,24,male,True,7412,7419,False,False,expiration,expiration
166,0.4,25,down,down,0.5299396000000343,0.969247084666944,,psi_staircase,cRDM,,0.3270291626573442,0.3369366131102841,0.15008602394570664,743.2679855000001,76,24,male,True,7432,7437,False,False,expiration,inspiration
167,0.39,25,up,down,1.330779800000073,1.609042714302556,,psi_staircase,cRDM,,0.3225721423392831,0.33237991623270474,0.1485760432932931,745.6681345000003,76,24,male,True,7456,7469,False,False,expiration,expiration
168,0.44,25,down,up,1.2853414000001069,1.7425046877090211,,psi_staircase,cRDM,,0.3428123190110515,0.3530486722786423,0.15506850818319873,749.0175227000001,76,24,male,True,7489,7502,False,False,expiration,expiration
169,0.47,25,up,up,1.2995571999999809,1.2022087471264025,,psi_staircase,cRDM,,0.3648006671739755,0.3756236200511675,0.16395479063006346,751.7673030000002,76,24,male,True,7517,7530,False,False,expiration,inspiration
170,0.47,25,up,down,0.5891968999999335,0.4801576635156439,,psi_staircase,cRDM,,0.3608850043494944,0.3716125221980441,0.16250906409707586,753.8006954000003,76,24,male,True,7537,7543,False,False,peak,expiration
171,0.47,25,down,down,0.6749449999997523,1.5394327079123196,,psi_staircase,cRDM,,0.3828193638015289,0.3941268937543438,0.17129555371749153,756.1839494000002,76,24,male,True,7561,7568,False,False,expiration,inspiration
172,0.47,25,down,down,0.901650900000277,1.5009866657083384,,psi_staircase,cRDM,,0.3787121967342126,0.38995305484377785,0.17028555503922574,758.6171671000003,76,24,male,True,7585,7594,False,False,expiration,expiration
173,0.48,25,down,down,1.460841999999957,0.5891195257876747,,psi_staircase,cRDM,,0.3747401454546521,0.385907928831724,0.16917856024748676,760.3670138000003,76,24,male,True,7603,7618,False,False,inspiration,expiration
174,0.48,25,up,up,1.3595582000002648,0.9146294106731724,,psi_staircase,cRDM,,0.37111459358825294,0.38219743819468416,0.16789183946852804,763.0003396000003,76,24,male,True,7629,7643,False,False,expiration,inspiration
175,0.49,25,up,down,0.5257046000001537,0.7283115832279359,,psi_staircase,cRDM,,0.3676283390703908,0.37862364287915456,0.16656570109242935,765.3502308999999,76,24,male,True,7652,7657,False,False,inspiration,inspiration
176,0.49,25,down,down,0.6213866000002781,1.2453928186295,,psi_staircase,cRDM,,0.3876620587617512,0.3992574194550053,0.17565584515746194,767.383562,76,24,male,True,7673,7679,False,False,expiration,expiration
177,0.5,25,down,down,1.0482882000001157,1.3965418658616653,,psi_staircase,cRDM,,0.3842213475600933,0.395747162063947,0.17460230357304993,769.6666201000003,76,24,male,True,7696,7706,False,False,expiration,expiration
178,0.5,25,down,down,1.0695626000001541,1.8598701471239858,,psi_staircase,cRDM,,0.3810469353913873,0.3924954166210883,0.1734307969688624,772.8333067000003,76,24,male,True,7727,7738,False,False,expiration,inspiration
179,0.5,25,up,up,0.7230015999998614,1.5383621672050345,,psi_staircase,cRDM,,0.3779634224412981,0.3893325828777456,0.17222918182759228,775.6998817000003,76,24,male,True,7756,7763,False,False,expiration,expiration
180,0.49,25,up,up,0.7114065000000664,0.4907027711387301,,psi_staircase,cRDM,,0.3749783241537554,0.38626644473183,0.17100152490595485,777.1664566000001,76,24,male,True,7770,7777,False,False,expiration,expiration
181,0.5,25,up,down,0.4167913000001136,1.6073060807694834,,psi_staircase,cRDM,,0.3719148089258865,0.383125068757808,0.16982202773187755,779.7496977999998,76,24,male,True,7796,7800,False,False,expiration,expiration
182,108.0,25,F,down,1.2003406999997424,1.5551272574116994,,experiment,emotion,0.0,,,,786.0995470000003,76,24,male,True,7860,7872,False,False,expiration,expiration
183,98.0,25,M,down,1.179483199999595,0.5705402740973675,,experiment,emotion,0.0,,,,788.1494196000003,76,24,male,True,7880,7892,False,False,inspiration,expiration
184,105.0,25,F,up,1.2173705000000157,1.6717006579956388,,experiment,emotion,0.0,,,,791.2825498000003,76,24,male,True,7912,7924,False,False,expiration,expiration
185,108.0,25,M,down,1.3914076999999452,1.3594147390071123,,experiment,emotion,0.0,,,,794.1325080000001,76,24,male,True,7940,7954,False,False,inspiration,expiration
186,105.0,25,F,down,1.7408288999999968,1.7994005225045804,,experiment,emotion,0.0,,,,797.5990771000003,76,24,male,True,7975,7992,False,False,expiration,inspiration
187,101.0,25,F,up,1.0292071000003489,0.5322438606322577,,experiment,emotion,0.0,,,,800.1656382000001,76,24,male,True,8000,8010,False,False,expiration,expiration
188,98.0,25,M,down,1.212421300000187,1.9995454170214264,,experiment,emotion,0.0,,,,803.4655032999998,76,24,male,True,8033,8045,False,False,expiration,expiration
189,101.0,25,F,down,0.8554586999998719,0.7775197455948799,,experiment,emotion,0.0,,,,805.7154209,76,24,male,True,8056,8065,False,False,inspiration,inspiration
190,108.0,25,M,down,0.6975459000000228,0.9522858633641592,,experiment,emotion,0.0,,,,807.8153637999999,76,24,male,True,8077,8084,False,False,expiration,expiration
191,101.0,25,M,down,0.5016611000000921,1.027443316656511,,experiment,emotion,0.0,,,,809.8152878000002,76,24,male,True,8097,8102,False,False,expiration,expiration
192,105.0,25,F,down,0.4687198000001445,1.817214426767624,,experiment,emotion,0.0,,,,812.4151830999998,76,24,male,True,8123,8128,False,False,inspiration,expiration
193,108.0,25,M,down,0.4431166999997913,1.577576328369173,,experiment,emotion,0.0,,,,814.7317578000003,76,24,male,True,8146,8150,False,False,expiration,expiration
194,105.0,25,M,down,0.6203925999998319,0.6365454366428369,,experiment,emotion,0.0,,,,816.0814697000002,76,24,male,True,8160,8166,False,False,inspiration,inspiration
195,98.0,25,M,down,0.6549812000002929,1.7952901795173113,,experiment,emotion,0.0,,,,818.7649203000002,76,24,male,True,8186,8193,False,False,expiration,expiration
196,101.0,25,F,up,0.7384682000001703,1.2009536604075202,,experiment,emotion,0.0,,,,820.8814007000002,76,24,male,True,8208,8215,False,False,expiration,expiration
197,98.0,25,F,down,0.8214874000000236,0.9944738124713182,,experiment,emotion,0.0,,,,822.8814130000002,76,24,male,True,8228,8236,False,False,inspiration,expiration
198,108.0,25,M,down,0.6377703000002839,1.1225279639227808,,experiment,emotion,0.0,,,,825.0980779000001,76,24,male,True,8250,8256,False,False,expiration,expiration
199,98.0,25,M,down,0.6828786999999465,0.5934945435781803,,experiment,emotion,0.0,,,,826.5980003,76,24,male,True,8265,8272,False,False,expiration,inspiration
200,105.0,25,F,down,0.56964569999991,1.4773990215820791,,experiment,emotion,0.0,,,,829.0312284000001,76,24,male,True,8289,8295,False,False,expiration,expiration
201,105.0,25,F,up,1.1953564999998891,0.8392951759780651,,experiment,emotion,0.0,,,,830.7145224999998,76,24,male,True,8306,8318,False,False,expiration,expiration
202,101.0,25,M,up,1.1110975000001415,1.5794042261935257,,experiment,emotion,0.0,,,,833.7477011000002,76,24,male,True,8336,8347,False,False,expiration,expiration
203,101.0,25,F,up,0.9085755999999492,0.6901255716955635,,experiment,emotion,0.0,,,,835.8143084000003,76,24,male,True,8357,8366,False,False,expiration,inspiration
204,98.0,25,M,down,0.7226573000002645,1.682133324863319,,experiment,emotion,0.0,,,,838.6642027000003,76,24,male,True,8386,8393,False,False,expiration,expiration
205,108.0,25,F,up,1.9636795999999777,0.4408516287295502,,experiment,emotion,0.0,,,,840.1141817000004,76,24,male,True,8400,8420,False,False,expiration,inspiration
206,105.0,25,F,up,1.148350599999958,0.8468160268892018,,experiment,emotion,0.0,,,,843.1805266000001,76,24,male,True,8431,8442,False,False,expiration,expiration
207,98.0,25,M,up,1.0599246000001583,1.8237753854838819,,experiment,emotion,0.0,,,,846.4139041000003,76,24,male,True,8463,8474,False,False,expiration,expiration
208,108.0,25,M,up,0.7930671999997685,1.006443988480133,,experiment,emotion,0.0,,,,848.7638243000001,76,24,male,True,8486,8494,False,False,inspiration,inspiration
209,108.0,25,F,down,0.6895130999996582,1.2958368472296626,,experiment,emotion,0.0,,,,851.1304089,76,24,male,True,8510,8517,False,False,expiration,expiration
210,101.0,25,M,down,0.6747605000000476,1.5798917620204738,,experiment,emotion,0.0,,,,853.6800899,76,24,male,True,8536,8543,False,False,expiration,expiration
211,98.0,25,F,down,0.7770058000000972,1.919006146895166,,experiment,emotion,0.0,,,,856.5468976000003,76,24,male,True,8564,8572,False,False,inspiration,expiration
212,101.0,25,M,down,0.6547119000001658,0.9012330893086892,,experiment,emotion,0.0,,,,858.4801397000001,76,24,male,True,8584,8591,False,False,expiration,expiration
213,105.0,25,F,down,0.3501384999999573,1.4541677832393258,,experiment,emotion,0.0,,,,860.8800633000002,76,24,male,True,8608,8612,False,False,expiration,expiration
214,98.0,25,M,down,0.4167929999998705,1.9225853323854896,,experiment,emotion,0.0,,,,863.4966210000003,76,24,male,True,8634,8638,False,False,inspiration,inspiration
215,108.0,25,F,down,0.5963593000001309,0.9384144139487256,,experiment,emotion,0.0,,,,865.1465439000003,76,24,male,True,8650,8656,False,False,expiration,expiration
216,105.0,25,M,down,0.42602409999972224,0.561935583820371,,experiment,emotion,0.0,,,,866.5798445999999,76,24,male,True,8665,8669,False,False,expiration,inspiration
217,108.0,25,F,up,0.8414524999998321,1.6852619592016342,,experiment,emotion,0.0,,,,868.9464277000003,76,24,male,True,8688,8696,False,False,expiration,expiration
218,98.0,25,M,up,0.8098614999998972,0.9554851930055296,,experiment,emotion,0.0,,,,871.0130187000001,76,24,male,True,8709,8717,False,False,inspiration,inspiration
219,105.0,25,F,up,0.6082612000000154,1.0397727440645437,,experiment,emotion,0.0,,,,873.1296090999998,76,24,male,True,8730,8736,False,False,expiration,expiration
220,101.0,25,M,up,0.8335959999999432,1.8490014779123591,,experiment,emotion,0.0,,,,875.8793023000003,76,24,male,True,8758,8766,False,False,expiration,inspiration
221,101.0,25,F,up,0.8987952999996196,1.063456628844088,,experiment,emotion,0.0,,,,878.0460771000003,76,24,male,True,8779,8788,False,False,expiration,expiration
222,105.0,25,F,up,1.2182275999998635,1.6819906964787086,,experiment,emotion,0.0,,,,880.9126510000001,76,24,male,True,8808,8820,False,False,expiration,inspiration
223,108.0,25,M,up,0.4826737999997022,0.7172112071445151,,experiment,emotion,0.0,,,,883.1292369000003,76,24,male,True,8830,8835,False,False,expiration,expiration
224,101.0,25,F,down,0.8007096999999703,1.902576636000424,,experiment,emotion,0.0,,,,885.7791623000003,76,24,male,True,8857,8865,False,False,trough,inspiration
225,98.0,25,M,down,0.6418404000000919,1.5601273853255215,,experiment,emotion,0.0,,,,888.4290602000002,76,24,male,True,8883,8889,False,False,expiration,expiration
226,98.0,25,M,down,0.571541299999808,0.5677024288179556,,experiment,emotion,0.0,,,,889.9123169,76,24,male,True,8898,8904,False,False,inspiration,inspiration
227,101.0,25,F,down,0.5063594000002922,1.5982542106676625,,experiment,emotion,0.0,,,,892.3455118999999,76,24,male,True,8922,8927,False,False,expiration,expiration
228,108.0,25,F,down,0.5203712000002271,0.7603514097203078,,experiment,emotion,0.0,,,,893.895501,76,24,male,True,8938,8943,False,False,expiration,inspiration
229,105.0,25,M,down,0.5704657000001134,0.9816097707415344,,experiment,emotion,0.0,,,,895.6954402999999,76,24,male,True,8956,8962,False,False,inspiration,expiration
230,98.0,25,F,down,0.6251821999999265,1.404011913785354,,experiment,emotion,0.0,,,,897.9286928000001,76,24,male,True,8978,8984,False,False,expiration,inspiration
231,108.0,25,M,down,0.4363240999996377,1.5169946854021572,,experiment,emotion,0.0,,,,900.3285964000003,76,24,male,True,9002,9006,False,False,expiration,expiration
232,105.0,25,M,down,1.29636870000013,1.8463029341526291,,experiment,emotion,0.0,,,,902.8785067,76,24,male,True,9028,9041,False,False,inspiration,expiration
233,105.0,25,M,down,0.6514483999999356,0.7885238639907349,,experiment,emotion,0.0,,,,905.2284229000003,76,24,male,True,9051,9058,False,False,expiration,expiration
234,98.0,25,M,down,0.8502760000001217,1.6086199122329323,,experiment,emotion,0.0,,,,907.7615988000003,76,24,male,True,9077,9086,False,False,expiration,expiration
235,101.0,25,M,down,0.7376532000002953,0.6283500472719918,,experiment,emotion,0.0,,,,909.5282599000003,76,24,male,True,9094,9101,False,False,expiration,inspiration
236,108.0,25,F,up,0.8087049999999181,1.6757837296017803,,experiment,emotion,0.0,,,,912.2281753000003,76,24,male,True,9121,9129,False,False,expiration,expiration
237,101.0,25,F,up,0.7920914999999695,0.37999082067374734,,experiment,emotion,0.0,,,,913.6947786,76,24,male,True,9136,9144,False,False,inspiration,inspiration
238,101.0,25,F,up,0.6408102000000326,0.3121843603464292,,experiment,emotion,0.0,,,,915.0780610000003,76,24,male,True,9150,9156,False,False,expiration,expiration
239,101.0,25,M,down,0.9328789999999572,0.8365800692882355,,experiment,emotion,0.0,,,,916.8279892,76,24,male,True,9167,9176,False,False,expiration,inspiration
240,108.0,25,F,up,0.7312566999999035,1.112160546943496,,experiment,emotion,0.0,,,,919.1445704000004,76,24,male,True,9190,9197,False,False,expiration,expiration
241,105.0,25,F,down,0.924430200000188,1.5862230118432692,,experiment,emotion,0.0,,,,921.7444437,76,24,male,True,9216,9225,False,False,inspiration,expiration
242,98.0,25,F,up,0.9139093999997384,0.5051745062698734,,experiment,emotion,0.0,,,,923.4609569,76,24,male,True,9234,9243,False,False,expiration,expiration
243,98.0,25,M,up,1.478546699999697,0.4015926242439824,,experiment,emotion,0.0,,,,925.0443367000003,76,24,male,True,9249,9264,False,False,inspiration,expiration
244,105.0,25,F,up,0.7322318000001361,0.8380615979468999,,experiment,emotion,0.0,,,,927.6276351,76,24,male,True,9275,9282,False,False,expiration,expiration
245,108.0,25,M,up,0.9641157000000932,0.9278261452552652,,experiment,emotion,0.0,,,,929.5607662000003,76,24,male,True,9295,9305,False,False,inspiration,expiration
246,108.0,25,M,up,1.0301847999999154,0.6691663629450941,,experiment,emotion,0.0,,,,931.4606934000003,76,24,male,True,9314,9324,False,False,expiration,inspiration
247,98.0,25,F,down,0.6138851999999133,1.7794882711299829,,experiment,emotion,0.0,,,,934.5439837,76,24,male,True,9344,9350,False,False,expiration,expiration
248,108.0,25,M,down,0.971587399999862,1.7466866401091383,,experiment,emotion,0.0,,,,937.1772632999999,76,24,male,True,9371,9381,False,False,inspiration,expiration
249,101.0,25,F,down,1.3997309000001223,1.84496782379588,,experiment,emotion,0.0,,,,940.2771342,76,24,male,True,9402,9416,False,False,inspiration,expiration
250,105.0,25,M,up,1.378662600000098,1.9802325228239042,,experiment,emotion,0.0,,,,943.9601905,76,24,male,True,9439,9453,False,False,expiration,inspiration
251,101.0,25,F,up,0.6596718000000692,1.2061281906758017,,experiment,emotion,0.0,,,,946.8101961000003,76,24,male,True,9467,9474,False,False,inspiration,inspiration
252,98.0,25,M,up,1.1913773999999648,1.4394189884794035,,experiment,emotion,0.0,,,,949.1934689,76,24,male,True,9491,9503,False,False,expiration,expiration
253,105.0,25,F,up,0.9212311000001135,1.15799682497246,,experiment,emotion,0.0,,,,951.8266766000003,76,24,male,True,9517,9526,False,False,expiration,expiration
254,101.0,25,F,up,0.5492346999999427,1.8015833239957109,,experiment,emotion,0.0,,,,954.8265907,76,24,male,True,9547,9552,False,False,expiration,expiration
255,105.0,25,F,down,0.6790449999998599,1.7514329326475693,,experiment,emotion,0.0,,,,957.4098089,76,24,male,True,9573,9580,False,False,expiration,expiration
256,98.0,25,F,down,0.6491780000001199,1.6499142429888112,,experiment,emotion,0.0,,,,960.0097401000003,76,24,male,True,9599,9605,False,False,inspiration,inspiration
257,108.0,25,F,down,0.4815564999998969,1.5736029142423815,,experiment,emotion,0.0,,,,962.5262979,76,24,male,True,9624,9629,False,False,expiration,expiration
258,105.0,25,M,down,0.5696127000001071,0.6862712930045503,,experiment,emotion,0.0,,,,963.9762567000002,76,24,male,True,9639,9645,False,False,inspiration,inspiration
259,108.0,25,M,down,0.5720520999998371,1.783759400134995,,experiment,emotion,0.0,,,,966.5928164999999,76,24,male,True,9665,9671,False,False,expiration,expiration
260,98.0,25,M,down,0.4644301999996969,0.4874116064319464,,experiment,emotion,0.0,,,,967.9094416000003,76,24,male,True,9678,9683,False,False,expiration,expiration
261,101.0,25,M,down,0.6388005000003432,0.33788413938002937,,experiment,emotion,0.0,,,,968.9760739000003,76,24,male,True,9689,9695,False,False,inspiration,inspiration
262,0.3899838540306811,25,up,up,0.6503187999996953,1.5227935417358405,,experiment,cRDM,0.0,,,,990.3585464000003,76,24,male,True,9903,9910,False,False,inspiration,expiration
263,0.3899838540306811,25,up,up,0.8556625999999596,0.9511866781690383,,experiment,cRDM,0.0,,,,992.2252056000003,76,24,male,True,9921,9930,False,False,expiration,expiration
264,0.3899838540306811,25,down,down,0.8081179000000702,1.6890758162234023,,experiment,cRDM,0.0,,,,995.0417833,76,24,male,True,9949,9957,False,False,expiration,expiration
265,0.3899838540306811,25,down,down,0.8838469000002078,1.616460502885856,,experiment,cRDM,0.0,,,,997.7250215,76,24,male,True,9976,9985,False,False,inspiration,expiration
266,0.3899838540306811,25,up,up,0.6225972000002002,0.3469721695275205,,experiment,cRDM,0.0,,,,999.2082937000001,76,24,male,True,9991,9997,False,False,expiration,expiration
267,0.3899838540306811,25,down,down,0.7697650999998586,1.5722568235673071,,experiment,cRDM,0.0,,,,1001.6581221,76,24,male,True,10016,10024,False,False,inspiration,expiration
268,0.3899838540306811,25,up,up,0.6277334000001247,1.0269676043655729,,experiment,cRDM,0.0,,,,1003.7081337000001,76,24,male,True,10036,10042,False,False,expiration,expiration
269,0.3899838540306811,25,up,up,0.7494595999996818,0.3341094033298192,,experiment,cRDM,0.0,,,,1004.9414033000003,76,24,male,True,10048,10055,False,False,inspiration,inspiration
270,0.3899838540306811,25,down,down,0.5472526000003199,0.3767826735193336,,experiment,cRDM,0.0,,,,1006.3246846000003,76,24,male,True,10062,10067,False,False,expiration,expiration
271,0.3899838540306811,25,down,down,0.8800016999998661,1.333010591555618,,experiment,cRDM,0.0,,,,1008.4578535,76,24,male,True,10084,10093,False,False,expiration,inspiration
272,0.3899838540306811,25,down,down,1.061308299999837,1.525401695046729,,experiment,cRDM,0.0,,,,1011.1245492000003,76,24,male,True,10110,10121,False,False,expiration,expiration
273,0.3899838540306811,25,down,down,0.5808219000000463,1.5492077419608503,,experiment,cRDM,0.0,,,,1013.9910821000003,76,24,male,True,10139,10145,False,False,inspiration,expiration
274,0.3899838540306811,25,down,down,0.6546707000002243,1.6403699799219107,,experiment,cRDM,0.0,,,,1016.4742603,76,24,male,True,10164,10171,False,False,expiration,inspiration
275,0.3899838540306811,25,down,down,1.0585441999996874,0.6329589645643781,,experiment,cRDM,0.0,,,,1018.0242737000003,76,24,male,True,10179,10190,False,False,peak,expiration
276,0.3899838540306811,25,up,up,0.6396560999996836,0.8198567334080544,,experiment,cRDM,0.0,,,,1020.1742168,76,24,male,True,10201,10207,False,False,expiration,expiration
277,0.3899838540306811,25,up,up,1.0366794000001391,0.6000966178312033,,experiment,cRDM,0.0,,,,1021.6741838000003,76,24,male,True,10216,10226,False,False,inspiration,expiration
278,0.3899838540306811,25,up,up,1.5008680999999342,1.4596942827544759,,experiment,cRDM,0.0,,,,1024.4240363,76,24,male,True,10243,10258,False,False,expiration,inspiration
279,0.3899838540306811,25,up,down,0.64682860000039,1.7722029259150092,,experiment,cRDM,0.0,,,,1027.9570344000003,76,24,male,True,10279,10285,False,False,expiration,inspiration
280,0.3899838540306811,25,down,down,0.4807507999998961,1.5751234010678905,,experiment,cRDM,0.0,,,,1030.4571177000003,76,24,male,True,10304,10309,False,False,expiration,expiration
281,0.3899838540306811,25,up,down,0.4380928000000495,0.920166131891657,,experiment,cRDM,0.0,,,,1032.1237271,76,24,male,True,10320,10324,False,False,inspiration,inspiration
282,0.3899838540306811,25,up,up,0.614561799999592,0.92530760423028,,experiment,cRDM,0.0,,,,1033.7403485,76,24,male,True,10336,10342,False,False,expiration,expiration
283,0.3899838540306811,25,down,down,0.6339523999999983,1.8942784339865322,,experiment,cRDM,0.0,,,,1036.5069136000004,76,24,male,True,10364,10370,False,False,inspiration,peak
284,0.3899838540306811,25,up,up,0.6690106999999443,1.0958725534604068,,experiment,cRDM,0.0,,,,1038.5068515000003,76,24,male,True,10384,10391,False,False,expiration,expiration
285,0.3899838540306811,25,down,down,0.5997806999998829,1.8618549758067382,,experiment,cRDM,0.0,,,,1041.2901063,76,24,male,True,10412,10418,False,False,expiration,expiration
286,0.3899838540306811,25,down,down,0.919227299999875,1.9539715524582937,,experiment,cRDM,0.0,,,,1044.1066427,76,24,male,True,10440,10449,False,False,inspiration,expiration
287,0.3899838540306811,25,up,up,1.2643345999999838,1.7643490069978618,,experiment,cRDM,0.0,,,,1047.0565105,76,24,male,True,10470,10483,False,False,inspiration,expiration
288,0.3899838540306811,25,up,up,1.3777955000000477,0.3371900110132336,,experiment,cRDM,0.0,,,,1048.9231231000003,76,24,male,True,10488,10502,False,False,expiration,expiration
289,0.3899838540306811,25,down,down,0.6171623999998701,1.239162421656467,,experiment,cRDM,0.0,,,,1051.7896766000001,76,24,male,True,10517,10523,False,False,inspiration,expiration
290,0.3899838540306811,25,up,down,0.7842574999999671,0.9235989864613936,,experiment,cRDM,0.0,,,,1053.5896120000002,76,24,male,True,10535,10543,False,False,expiration,expiration
291,0.3899838540306811,25,down,down,0.5846648000001551,0.5749206206720647,,experiment,cRDM,0.0,,,,1055.2062322999998,76,24,male,True,10551,10557,False,False,inspiration,inspiration
292,0.3899838540306811,25,down,down,0.7857005000000754,0.6597768495840601,,experiment,cRDM,0.0,,,,1056.7061707999999,76,24,male,True,10566,10574,False,False,expiration,expiration
293,0.3899838540306811,25,down,up,1.1350773999997728,1.4092070776524537,,experiment,cRDM,0.0,,,,1059.1727889000001,76,24,male,True,10591,10602,False,False,inspiration,expiration
294,0.3899838540306811,25,up,up,1.2668574999997873,0.34275391443967795,,experiment,cRDM,0.0,,,,1060.9060227,76,24,male,True,10608,10621,False,False,expiration,trough
295,0.3899838540306811,25,up,down,1.054584099999829,1.452074050244204,,experiment,cRDM,0.0,,,,1063.8892848,76,24,male,True,10638,10649,False,False,expiration,expiration
296,0.3899838540306811,25,up,up,1.3820448000001306,0.4509709632755292,,experiment,cRDM,0.0,,,,1065.6558250000003,76,24,male,True,10656,10670,False,False,expiration,inspiration
297,0.3899838540306811,25,down,down,0.7622094000003017,1.7162397724969902,,experiment,cRDM,0.0,,,,1069.0057197,76,24,male,True,10689,10697,False,False,expiration,inspiration
298,0.3899838540306811,25,down,down,0.9991946999998618,0.6720722360579879,,experiment,cRDM,0.0,,,,1070.7056516000002,76,24,male,True,10706,10716,False,False,inspiration,expiration
299,0.3899838540306811,25,up,up,1.0366030000000137,1.1470838538031465,,experiment,cRDM,0.0,,,,1073.1222472000002,76,24,male,True,10730,10740,False,False,expiration,inspiration
300,0.3899838540306811,25,down,down,0.6193001000001459,1.9114938510042447,,experiment,cRDM,0.0,,,,1076.3385923,76,24,male,True,10763,10769,False,False,expiration,expiration
301,0.3899838540306811,25,up,up,1.0178155999997216,0.6977421207393648,,experiment,cRDM,0.0,,,,1077.9220454,76,24,male,True,10778,10788,False,False,inspiration,expiration
302,0.3899838540306811,25,up,down,0.6939157000001615,1.8129557812323005,,experiment,cRDM,0.0,,,,1081.0219489,76,24,male,True,10809,10816,False,False,expiration,inspiration
303,0.3899838540306811,25,up,down,0.6296139999999468,0.41917027998860185,,experiment,cRDM,0.0,,,,1082.4052331000003,76,24,male,True,10823,10829,False,False,inspiration,expiration
304,0.3899838540306811,25,down,down,0.6333790999997291,0.938256723922954,,experiment,cRDM,0.0,,,,1084.2384875999999,76,24,male,True,10841,10847,False,False,expiration,expiration
305,0.3899838540306811,25,down,down,0.7173895999999331,0.5700963789885979,,experiment,cRDM,0.0,,,,1085.6884781000003,76,24,male,True,10856,10863,False,False,inspiration,inspiration
306,0.3899838540306811,25,up,up,0.8258111000000099,1.1269901215250342,,experiment,cRDM,0.0,,,,1087.8050409000002,76,24,male,True,10877,10885,False,False,expiration,expiration
307,0.3899838540306811,25,down,down,0.9116076999998768,1.7027783399311904,,experiment,cRDM,0.0,,,,1090.5882580999998,76,24,male,True,10905,10914,False,False,expiration,expiration
308,0.3899838540306811,25,down,down,0.770679900000232,0.3263988027183304,,experiment,cRDM,0.0,,,,1092.0882212,76,24,male,True,10920,10928,False,False,expiration,inspiration
309,0.3899838540306811,25,up,up,1.2187269000000924,1.9675496981829792,,experiment,cRDM,0.0,,,,1095.088111,76,24,male,True,10950,10962,False,False,expiration,expiration
310,0.3899838540306811,25,up,down,0.6632546999999249,1.3405815202068123,,experiment,cRDM,0.0,,,,1097.9046391000004,76,24,male,True,10978,10985,False,False,inspiration,expiration
311,0.3899838540306811,25,down,down,0.7165657999998984,0.9936495626382538,,experiment,cRDM,0.0,,,,1099.8213019000002,76,24,male,True,10997,11004,False,False,expiration,expiration
312,0.3899838540306811,25,up,up,0.9820598000001156,0.9192696217687876,,experiment,cRDM,0.0,,,,1101.7378307,76,24,male,True,11017,11027,False,False,inspiration,expiration
313,0.3899838540306811,25,down,up,1.1633922000000894,0.9237652269795124,,experiment,cRDM,0.0,,,,1103.9044204000004,76,24,male,True,11038,11050,False,False,expiration,expiration
314,0.3899838540306811,25,down,down,0.6226951999997254,0.4288614365395607,,experiment,cRDM,0.0,,,,1105.7542062999999,76,24,male,True,11057,11063,False,False,inspiration,inspiration
315,0.3899838540306811,25,down,down,0.644204499999887,0.4356769906124431,,experiment,cRDM,0.0,,,,1107.087634,76,24,male,True,11070,11076,False,False,expiration,expiration
316,0.3899838540306811,25,up,up,0.8402504999999109,0.32441739523762136,,experiment,cRDM,0.0,,,,1108.3376004000004,76,24,male,True,11082,11090,False,False,expiration,expiration
317,0.3899838540306811,25,up,up,1.0882716999999502,0.6444572704001508,,experiment,cRDM,0.0,,,,1110.0875656000003,76,24,male,True,11100,11111,False,False,inspiration,expiration
318,0.3899838540306811,25,down,down,0.7157603000000563,0.4575964239515885,,experiment,cRDM,0.0,,,,1111.9041386,76,24,male,True,11118,11125,False,False,expiration,expiration
319,0.3899838540306811,25,down,down,1.0078129999997143,1.986449137164343,,experiment,cRDM,0.0,,,,1114.8540279000001,76,24,male,True,11148,11158,False,False,expiration,expiration
320,0.3899838540306811,25,up,down,1.0508188000003431,1.7072409045976291,,experiment,cRDM,0.0,,,,1117.8370619999998,76,24,male,True,11178,11189,False,False,expiration,expiration
321,0.3899838540306811,25,up,down,0.9010143000000426,1.4056560234063091,,experiment,cRDM,0.0,,,,1120.5538457000002,76,24,male,True,11205,11214,False,False,inspiration,peak
322,0.3899838540306811,25,up,down,0.9534558000000288,1.8539299215358418,,experiment,cRDM,0.0,,,,1123.5704047,76,24,male,True,11235,11245,False,False,expiration,inspiration
323,0.3899838540306811,25,up,down,0.5305613999998968,1.6895436740282737,,experiment,cRDM,0.0,,,,1126.4702995999999,76,24,male,True,11264,11269,False,False,expiration,expiration
324,0.3899838540306811,25,up,down,0.7559920000003331,1.2289148028128614,,experiment,cRDM,0.0,,,,1128.4868586000002,76,24,male,True,11284,11292,False,False,inspiration,expiration
325,0.3899838540306811,25,down,down,0.743717899999865,0.4150318638442384,,experiment,cRDM,0.0,,,,1129.9201400000004,76,24,male,True,11298,11305,False,False,expiration,expiration
326,0.3899838540306811,25,down,down,0.8625861000000441,0.32536402644183626,,experiment,cRDM,0.0,,,,1131.253275,76,24,male,True,11312,11321,False,False,trough,inspiration
327,0.3899838540306811,25,up,up,1.1041999999997645,1.7579743582919476,,experiment,cRDM,0.0,,,,1134.1366694000005,76,24,male,True,11340,11351,False,False,expiration,inspiration
328,0.3899838540306811,25,down,down,0.5873449999999139,0.7331007820995821,,experiment,cRDM,0.0,,,,1136.2365549,76,24,male,True,11361,11367,False,False,inspiration,expiration
329,0.3899838540306811,25,down,down,0.7650185000002239,0.9701056006551172,,experiment,cRDM,0.0,,,,1138.0698580000005,76,24,male,True,11380,11388,False,False,expiration,expiration
330,0.3899838540306811,25,down,down,0.8383002000000488,0.972336677347342,,experiment,cRDM,0.0,,,,1140.0695526,76,24,male,True,11400,11408,False,False,inspiration,expiration
331,0.3899838540306811,25,up,up,1.2281879000001936,1.69979024320274,,experiment,cRDM,0.0,,,,1142.8696578,76,24,male,True,11428,11440,False,False,inspiration,peak
332,0.3899838540306811,25,down,down,0.6192851000000701,0.9011904125029808,,experiment,cRDM,0.0,,,,1145.2695741000002,76,24,male,True,11452,11458,False,False,expiration,expiration
333,0.3899838540306811,25,down,down,0.6640325000003031,0.7024030428794827,,experiment,cRDM,0.0,,,,1146.8528659000006,76,24,male,True,11468,11475,False,False,inspiration,peak
334,0.3899838540306811,25,down,up,1.4227786000001288,1.2110766860015865,,experiment,cRDM,0.0,,,,1148.9860919000002,76,24,male,True,11489,11503,False,False,expiration,expiration
335,0.3899838540306811,25,up,up,1.8788503000000676,1.6020731656049958,,experiment,cRDM,0.0,,,,1152.2859734000006,76,24,male,True,11522,11541,False,False,expiration,expiration
336,0.3899838540306811,25,up,up,1.2214303999999174,0.8392073649948626,,experiment,cRDM,0.0,,,,1155.2524571,76,24,male,True,11552,11564,False,False,inspiration,expiration
337,0.3899838540306811,25,down,down,0.7157572999999502,1.746009520557749,,experiment,cRDM,0.0,,,,1158.4691000999999,76,24,male,True,11584,11591,False,False,trough,inspiration
338,0.3899838540306811,25,up,up,1.6819422000003217,0.4760536392156266,,experiment,cRDM,0.0,,,,1159.9190093000002,76,24,male,True,11598,11615,False,False,inspiration,inspiration
339,0.3899838540306811,25,down,down,1.5467125000000124,0.5765074576324883,,experiment,cRDM,0.0,,,,1162.4521830000006,76,24,male,True,11624,11639,False,False,expiration,expiration
340,0.3899838540306811,25,up,up,0.9757125000000996,0.9374748551031638,,experiment,cRDM,0.0,,,,1165.2021493000002,76,24,male,True,11651,11661,False,False,expiration,expiration
341,0.3899838540306811,25,up,down,0.6624154999999519,0.3516199223416555,,experiment,cRDM,0.0,,,,1166.7854485999999,76,24,male,True,11667,11674,False,False,expiration,expiration
342,108.0,25,M,up,1.3415405000000646,1.816772982396116,,experiment,emotion,1.0,,,,1180.0182877999998,76,24,male,True,11799,11812,False,False,expiration,expiration
343,98.0,25,M,up,1.1673805000000357,0.8037793301223599,,experiment,emotion,1.0,,,,1182.451516,76,24,male,True,11824,11836,False,False,expiration,expiration
344,105.0,25,F,up,1.0211147999998502,1.87713016453476,,experiment,emotion,1.0,,,,1185.7847502,76,24,male,True,11857,11867,False,False,expiration,expiration
345,108.0,25,F,up,0.9825778999997964,1.6118846100387352,,experiment,emotion,1.0,,,,1188.7012819,76,24,male,True,11886,11896,False,False,inspiration,peak
346,105.0,25,M,up,0.9158360999999786,1.6005335139507506,,experiment,emotion,1.0,,,,1191.5510235000004,76,24,male,True,11915,11924,False,False,expiration,inspiration
347,101.0,25,F,up,0.7050828999999794,1.5544773317356173,,experiment,emotion,1.0,,,,1194.3177752,76,24,male,True,11942,11949,False,False,expiration,expiration
348,98.0,25,M,down,1.286541599999964,1.1246220396322737,,experiment,emotion,1.0,,,,1196.4343462000004,76,24,male,True,11963,11976,False,False,inspiration,expiration
349,101.0,25,M,up,1.1026443999999174,1.5903263039271898,,experiment,emotion,1.0,,,,1199.5842311,76,24,male,True,11995,12006,False,False,expiration,inspiration
350,108.0,25,F,up,0.9064135000003262,1.7333796340708023,,experiment,emotion,1.0,,,,1202.7174469,76,24,male,True,12026,12035,False,False,expiration,inspiration
351,101.0,25,F,up,0.5624565000002804,0.6343437421504055,,experiment,emotion,1.0,,,,1204.5173877999998,76,24,male,True,12044,12050,False,False,inspiration,expiration
352,105.0,25,F,down,0.653570800000125,1.752904182629475,,experiment,emotion,1.0,,,,1207.1172832999998,76,24,male,True,12070,12077,False,False,expiration,inspiration
353,108.0,25,F,up,1.0506310000000667,0.6258250567015247,,experiment,emotion,1.0,,,,1208.6672277999999,76,24,male,True,12086,12097,False,False,peak,expiration
354,105.0,25,F,up,0.7213569000000462,0.31353267003792723,,experiment,emotion,1.0,,,,1210.3005086000005,76,24,male,True,12102,12109,False,False,expiration,expiration
355,98.0,25,F,up,0.6315061999998761,0.8395217999068318,,experiment,emotion,1.0,,,,1212.1503515000002,76,24,male,True,12121,12127,False,False,inspiration,expiration
356,101.0,25,M,up,1.6531638000001294,1.5377139379436402,,experiment,emotion,1.0,,,,1214.5836737,76,24,male,True,12145,12162,False,False,expiration,inspiration
357,98.0,25,M,down,1.0586296999999831,0.4735402683858137,,experiment,emotion,1.0,,,,1217.0002405,76,24,male,True,12169,12180,False,False,expiration,expiration
358,108.0,25,M,up,0.7656905999997434,0.8773780432861304,,experiment,emotion,1.0,,,,1219.2001720000005,76,24,male,True,12191,12199,False,False,inspiration,inspiration
359,98.0,25,M,down,0.7064374999999927,0.4946423997879153,,experiment,emotion,1.0,,,,1220.7334298,76,24,male,True,12206,12213,False,False,expiration,expiration
360,105.0,25,F,up,0.7798757999998998,1.1921558329473227,,experiment,emotion,1.0,,,,1222.9000273,76,24,male,True,12228,12236,False,False,expiration,inspiration
361,105.0,25,M,down,1.3542544000001726,0.7585792395775421,,experiment,emotion,1.0,,,,1224.7166357,76,24,male,True,12246,12260,False,False,expiration,expiration
362,101.0,25,M,down,1.222981300000356,0.9553318200135504,,experiment,emotion,1.0,,,,1227.2998804000001,76,24,male,True,12272,12284,False,False,inspiration,expiration
363,101.0,25,F,up,1.868147600000157,0.5692447126561725,,experiment,emotion,1.0,,,,1229.3497087,76,24,male,True,12293,12312,False,False,expiration,inspiration
364,98.0,25,M,up,0.5929176999998163,1.0360476907868947,,experiment,emotion,1.0,,,,1232.5329983,76,24,male,True,12324,12330,False,False,expiration,expiration
365,108.0,25,F,up,1.0734068000001569,1.1430282702569756,,experiment,emotion,1.0,,,,1234.5494617000002,76,24,male,True,12345,12356,False,False,expiration,inspiration
366,105.0,25,F,up,1.620212199999969,1.3274038170911822,,experiment,emotion,1.0,,,,1237.2328264000002,76,24,male,True,12371,12387,False,False,expiration,expiration
367,98.0,25,M,down,0.7491297999999915,0.7511270712308721,,experiment,emotion,1.0,,,,1239.8827371000002,76,24,male,True,12398,12405,False,False,inspiration,inspiration
368,108.0,25,M,down,1.5091956999999638,1.477911991760921,,experiment,emotion,1.0,,,,1242.3826575000005,76,24,male,True,12423,12438,False,False,expiration,expiration
369,108.0,25,F,down,1.327348499999971,1.3631820791396334,,experiment,emotion,1.0,,,,1245.5325163000002,76,24,male,True,12454,12467,False,False,inspiration,expiration
370,101.0,25,M,down,0.8584251999996013,0.7813540845676028,,experiment,emotion,1.0,,,,1247.9324304000004,76,24,male,True,12478,12487,False,False,expiration,inspiration
371,98.0,25,F,down,1.0328989999998155,1.8818704331211689,,experiment,emotion,1.0,,,,1250.9489563000004,76,24,male,True,12509,12519,False,False,expiration,expiration
372,101.0,25,F,up,0.8803177999998297,1.1602240534647543,,experiment,emotion,1.0,,,,1253.4155767999998,76,24,male,True,12533,12542,False,False,inspiration,expiration
373,105.0,25,F,up,1.1691122000001997,1.1667152798391784,,experiment,emotion,1.0,,,,1255.7487215999997,76,24,male,True,12557,12569,False,False,expiration,inspiration
374,98.0,25,M,down,0.7737979000003179,1.9461913411434368,,experiment,emotion,1.0,,,,1259.1320410000005,76,24,male,True,12590,12598,False,False,expiration,expiration
375,108.0,25,M,up,1.1429151000002091,1.185141405884827,,experiment,emotion,1.0,,,,1261.3819434000004,76,24,male,True,12613,12624,False,False,inspiration,expiration
376,105.0,25,M,up,1.4946657000000414,1.1350717711346725,,experiment,emotion,1.0,,,,1263.9151898,76,24,male,True,12638,12653,False,False,inspiration,expiration
377,108.0,25,F,up,0.6804161999998541,0.5180189893687405,,experiment,emotion,1.0,,,,1266.1984353000005,76,24,male,True,12661,12668,False,False,expiration,expiration
378,98.0,25,F,down,1.103606099999979,1.0910167029002948,,experiment,emotion,1.0,,,,1268.2482330999999,76,24,male,True,12682,12693,False,False,inspiration,expiration
379,105.0,25,M,down,1.2402265999999145,0.3607373668814109,,experiment,emotion,1.0,,,,1269.981632,76,24,male,True,12699,12711,False,False,expiration,expiration
380,101.0,25,F,down,0.8638220999996519,1.455163685964855,,experiment,emotion,1.0,,,,1272.9480796000005,76,24,male,True,12729,12738,False,False,expiration,expiration
381,101.0,25,M,down,0.7074624000001677,1.7413277165418155,,experiment,emotion,1.0,,,,1275.8313994,76,24,male,True,12757,12764,False,False,inspiration,inspiration
382,105.0,25,M,down,0.8045219999999063,1.0777575136587136,,experiment,emotion,1.0,,,,1277.8813322,76,24,male,True,12778,12786,False,False,expiration,expiration
383,108.0,25,M,down,0.5632668999996895,1.2437597514260137,,experiment,emotion,1.0,,,,1280.2145888,76,24,male,True,12801,12807,False,False,inspiration,expiration
384,101.0,25,F,up,0.6823673999997482,1.7718614484352404,,experiment,emotion,1.0,,,,1282.8144924000005,76,24,male,True,12827,12834,False,False,expiration,expiration
385,98.0,25,F,down,0.8678436999998667,1.7529175315363272,,experiment,emotion,1.0,,,,1285.5310349,76,24,male,True,12854,12863,False,False,expiration,expiration
386,98.0,25,M,down,0.642551899999944,1.6845665181317713,,experiment,emotion,1.0,,,,1288.3643019,76,24,male,True,12883,12889,False,False,inspiration,inspiration
387,101.0,25,F,down,0.567001700000219,1.1555082792606894,,experiment,emotion,1.0,,,,1290.4308565,76,24,male,True,12903,12909,False,False,expiration,expiration
388,108.0,25,F,down,0.7827827000000981,1.4010125213736175,,experiment,emotion,1.0,,,,1292.6641175,76,24,male,True,12926,12934,False,False,expiration,inspiration
389,105.0,25,M,up,0.6871372999999039,1.94754128972972,,experiment,emotion,1.0,,,,1295.6807229,76,24,male,True,12956,12963,False,False,expiration,expiration
390,98.0,25,M,up,0.9459323000000949,1.329145797789748,,experiment,emotion,1.0,,,,1297.9639212000004,76,24,male,True,12979,12988,False,False,expiration,inspiration
391,108.0,25,F,up,0.9780345999997736,1.792496497445871,,experiment,emotion,1.0,,,,1300.9638258,76,24,male,True,13009,13019,False,False,expiration,expiration
392,105.0,25,M,up,0.8767685000002529,1.1888975952125491,,experiment,emotion,1.0,,,,1303.3970819,76,24,male,True,13033,13042,False,False,inspiration,expiration
393,105.0,25,F,up,0.4362123000000793,1.0584339034725798,,experiment,emotion,1.0,,,,1305.6136426000005,76,24,male,True,13055,13059,False,False,expiration,expiration
394,98.0,25,F,up,0.5836096999996698,0.9612397632972832,,experiment,emotion,1.0,,,,1307.2802432000005,76,24,male,True,13072,13078,False,False,inspiration,expiration
395,101.0,25,F,up,1.0937073000000055,1.7853782462757255,,experiment,emotion,1.0,,,,1309.9301466000004,76,24,male,True,13098,13109,False,False,expiration,inspiration
396,108.0,25,M,down,0.6734536999997545,1.3554143947017463,,experiment,emotion,1.0,,,,1312.6633957000001,76,24,male,True,13126,13133,False,False,expiration,expiration
397,101.0,25,M,up,0.8405446000001575,0.752055317653871,,experiment,emotion,1.0,,,,1314.3633355999998,76,24,male,True,13143,13151,False,False,expiration,inspiration
398,101.0,25,F,down,0.7009364999998979,1.3150052855834584,,experiment,emotion,1.0,,,,1316.7799248,76,24,male,True,13167,13174,False,False,expiration,expiration
399,101.0,25,F,down,1.074870099999771,1.5657958158406455,,experiment,emotion,1.0,,,,1319.3131360000002,76,24,male,True,13192,13203,False,False,inspiration,inspiration
400,108.0,25,M,down,0.7477647999999135,1.1108848247524437,,experiment,emotion,1.0,,,,1321.7630622,76,24,male,True,13217,13224,False,False,expiration,expiration
401,105.0,25,M,up,0.807227199999943,0.6291156968023577,,experiment,emotion,1.0,,,,1323.4296541000006,76,24,male,True,13233,13241,False,False,inspiration,inspiration
402,98.0,25,M,down,0.7819007000002784,1.0356305956859326,,experiment,emotion,1.0,,,,1325.5629497000002,76,24,male,True,13255,13263,False,False,expiration,expiration
403,98.0,25,M,up,0.9813573000001271,1.2662922149182876,,experiment,emotion,1.0,,,,1327.8794952000005,76,24,male,True,13278,13288,False,False,inspiration,expiration
404,105.0,25,M,down,0.6284373000003143,0.6548345232573112,,experiment,emotion,1.0,,,,1329.7794299000002,76,24,male,True,13297,13303,False,False,expiration,expiration
405,108.0,25,F,down,1.1842004999998608,1.6860787115448006,,experiment,emotion,1.0,,,,1332.3626603000002,76,24,male,True,13323,13335,False,False,expiration,expiration
406,108.0,25,F,up,0.7795653999996831,1.0735929482952955,,experiment,emotion,1.0,,,,1334.8792377,76,24,male,True,13348,13356,False,False,inspiration,inspiration
407,98.0,25,M,down,0.9947342999998908,1.0443355300795052,,experiment,emotion,1.0,,,,1336.9791545000005,76,24,male,True,13369,13379,False,False,expiration,expiration
408,108.0,25,F,up,0.7724553000002743,0.563566665397087,,experiment,emotion,1.0,,,,1338.8124369999998,76,24,male,True,13387,13395,False,False,inspiration,inspiration
409,101.0,25,F,down,1.6518420999996124,1.0140285213014486,,experiment,emotion,1.0,,,,1340.8790079000003,76,24,male,True,13408,13425,False,False,inspiration,expiration
410,105.0,25,F,up,1.0644182000000908,1.8307323636457435,,experiment,emotion,1.0,,,,1344.6454662,76,24,male,True,13446,13457,False,False,expiration,expiration
411,101.0,25,M,up,0.6861514000001989,1.9656327368326831,,experiment,emotion,1.0,,,,1347.9287312,76,24,male,True,13478,13485,False,False,expiration,expiration
412,98.0,25,F,down,1.335569399999713,1.4101016618441375,,experiment,emotion,1.0,,,,1350.2953361,76,24,male,True,13502,13515,False,False,expiration,expiration
413,105.0,25,F,down,0.8739540000001398,1.115540883319803,,experiment,emotion,1.0,,,,1353.0118997000002,76,24,male,True,13529,13538,False,False,inspiration,expiration
414,101.0,25,F,up,1.2940244000001258,1.2520111715249609,,experiment,emotion,1.0,,,,1355.4118245,76,24,male,True,13553,13566,False,False,expiration,expiration
415,105.0,25,M,up,1.2175305999999182,1.308865053985935,,experiment,emotion,1.0,,,,1358.2783669000003,76,24,male,True,13582,13594,False,False,inspiration,expiration
416,98.0,25,M,down,0.8425885999999991,1.5190866489725996,,experiment,emotion,1.0,,,,1361.2782578,76,24,male,True,13612,13620,False,False,inspiration,inspiration
417,108.0,25,F,up,0.7757129999999961,1.0192293628238145,,experiment,emotion,1.0,,,,1363.4281668000006,76,24,male,True,13633,13641,False,False,expiration,expiration
418,105.0,25,M,down,1.3994218000002547,1.2335806616688076,,experiment,emotion,1.0,,,,1365.7114299,76,24,male,True,13656,13670,False,False,inspiration,expiration
419,108.0,25,F,up,1.318337899999733,1.660239818077044,,experiment,emotion,1.0,,,,1369.0445182000005,76,24,male,True,13690,13703,False,False,inspiration,inspiration
420,98.0,25,M,down,0.8783159000004161,0.9623838658129048,,experiment,emotion,1.0,,,,1371.5945444,76,24,male,True,13715,13724,False,False,expiration,expiration
421,101.0,25,M,down,2.0117372999998224,1.1607758312871157,,experiment,emotion,1.0,,,,1373.9111221000005,76,24,male,True,13738,13758,False,False,inspiration,expiration
422,0.3899838540306811,25,up,up,0.8470821000000797,1.633541893809236,,experiment,cRDM,1.0,,,,1401.0767945000002,76,24,male,True,14010,14018,False,False,expiration,expiration
423,0.3899838540306811,25,up,up,1.0911706000001686,1.8811247540664155,,experiment,cRDM,1.0,,,,1404.0766834,76,24,male,True,14040,14051,False,False,expiration,expiration
424,0.3899838540306811,25,down,down,0.6459687999999915,0.6536444981163583,,experiment,cRDM,1.0,,,,1406.1099365,76,24,male,True,14060,14066,False,False,inspiration,inspiration
425,0.3899838540306811,25,down,down,0.5956593000000794,1.0688966018761576,,experiment,cRDM,1.0,,,,1408.0931884,76,24,male,True,14080,14086,False,False,inspiration,expiration
426,0.3899838540306811,25,up,down,0.6319988999998714,1.3095113615290592,,experiment,cRDM,1.0,,,,1410.2598280000002,76,24,male,True,14102,14108,False,False,expiration,expiration
427,0.3899838540306811,25,down,up,0.6389016000002812,1.904253419963614,,experiment,cRDM,1.0,,,,1413.0430014000005,76,24,male,True,14130,14136,False,False,expiration,expiration
428,0.3899838540306811,25,up,down,0.4429959999997664,1.283002188414709,,experiment,cRDM,1.0,,,,1415.2428417,76,24,male,True,14152,14156,False,False,inspiration,inspiration
429,0.3899838540306811,25,up,down,0.9382774999999128,1.958856677644991,,experiment,cRDM,1.0,,,,1417.9095255000002,76,24,male,True,14178,14187,False,False,expiration,expiration
430,0.3899838540306811,25,down,down,0.6904061000000183,0.6982748084048005,,experiment,cRDM,1.0,,,,1419.8094636,76,24,male,True,14197,14204,False,False,expiration,expiration
431,0.3899838540306811,25,down,down,1.3288422000000537,0.7635309454734227,,experiment,cRDM,1.0,,,,1421.5260389,76,24,male,True,14214,14227,False,False,expiration,expiration
432,0.3899838540306811,25,down,up,1.6178973999999466,0.6556603069280602,,experiment,cRDM,1.0,,,,1423.7759551,76,24,male,True,14237,14253,False,False,expiration,expiration
433,0.3899838540306811,25,down,down,0.6459976000001006,0.467618750851397,,experiment,cRDM,1.0,,,,1426.1258795000006,76,24,male,True,14260,14266,False,False,expiration,expiration
434,0.3899838540306811,25,down,down,1.242103600000064,1.2947654320681727,,experiment,cRDM,1.0,,,,1428.3257925000007,76,24,male,True,14282,14294,False,False,inspiration,inspiration
435,0.3899838540306811,25,down,up,1.4841655999998693,0.3933437730676589,,experiment,cRDM,1.0,,,,1430.2257042,76,24,male,True,14301,14316,False,False,inspiration,expiration
436,0.3899838540306811,25,up,up,0.8295784000001731,1.4328026130762923,,experiment,cRDM,1.0,,,,1433.3922899,76,24,male,True,14333,14341,False,False,expiration,inspiration
437,0.3899838540306811,25,up,down,0.6120322999995551,0.3205839188434161,,experiment,cRDM,1.0,,,,1434.8088660000005,76,24,male,True,14347,14353,False,False,inspiration,inspiration
438,0.3899838540306811,25,up,up,1.3324844000003395,0.5316569866381354,,experiment,cRDM,1.0,,,,1436.2253682,76,24,male,True,14362,14375,False,False,expiration,expiration
439,0.3899838540306811,25,up,down,0.6591498999996475,1.9412758078264496,,experiment,cRDM,1.0,,,,1439.7587287,76,24,male,True,14397,14404,False,False,expiration,expiration
440,0.3899838540306811,25,down,up,1.0862333000000035,0.9423410058764814,,experiment,cRDM,1.0,,,,1441.6086500999997,76,24,male,True,14415,14426,False,False,trough,inspiration
441,0.3899838540306811,25,up,down,0.9523395999999592,1.8707838763324829,,experiment,cRDM,1.0,,,,1444.8085177000007,76,24,male,True,14447,14457,False,False,expiration,inspiration
442,0.3899838540306811,25,up,up,1.0418118000002323,1.7987780298970284,,experiment,cRDM,1.0,,,,1447.8250622,76,24,male,True,14477,14487,False,False,expiration,inspiration
443,0.3899838540306811,25,down,up,1.1588737000001856,0.8961041561198526,,experiment,cRDM,1.0,,,,1450.0249766000004,76,24,male,True,14499,14511,False,False,peak,expiration
444,0.3899838540306811,25,up,down,1.6492921000003662,1.6487644753707815,,experiment,cRDM,1.0,,,,1453.0915619000002,76,24,male,True,14530,14546,False,False,inspiration,expiration
445,0.3899838540306811,25,down,down,0.7030346000001373,0.7660258787292415,,experiment,cRDM,1.0,,,,1455.7747955,76,24,male,True,14557,14564,False,False,expiration,inspiration
446,0.3899838540306811,25,down,down,0.7611453999998048,1.4324926642848566,,experiment,cRDM,1.0,,,,1458.1747002000004,76,24,male,True,14581,14589,False,False,peak,expiration
447,0.3899838540306811,25,up,up,1.1124471000002814,0.609516825648551,,experiment,cRDM,1.0,,,,1459.8244065,76,24,male,True,14598,14609,False,False,expiration,inspiration
448,0.3899838540306811,25,up,up,0.8849984999997105,1.9132662872071065,,experiment,cRDM,1.0,,,,1463.1078485000005,76,24,male,True,14630,14639,False,False,expiration,expiration
449,0.3899838540306811,25,down,down,0.5457566000000043,1.4886039816265533,,experiment,cRDM,1.0,,,,1465.7411104000007,76,24,male,True,14657,14662,False,False,expiration,expiration
450,0.3899838540306811,25,up,up,0.8516200999997636,0.4728947101598072,,experiment,cRDM,1.0,,,,1467.0242907000004,76,24,male,True,14670,14679,False,False,expiration,expiration
451,0.3899838540306811,25,down,down,0.6387036999999509,0.7811995191889479,,experiment,cRDM,1.0,,,,1468.9241462000002,76,24,male,True,14689,14695,False,False,inspiration,expiration
452,0.3899838540306811,25,down,down,0.6508819000000585,0.4665510673414206,,experiment,cRDM,1.0,,,,1470.29092,76,24,male,True,14702,14709,False,False,expiration,expiration
453,0.3899838540306811,25,down,down,0.5574102000000494,1.5408078024149812,,experiment,cRDM,1.0,,,,1472.7574919000006,76,24,male,True,14727,14733,False,False,inspiration,expiration
454,0.3899838540306811,25,up,up,1.4797404000000824,0.7070872349605968,,experiment,cRDM,1.0,,,,1474.2741037,76,24,male,True,14742,14757,False,False,expiration,inspiration
455,0.3899838540306811,25,up,up,0.9348182999997334,0.5671550499264466,,experiment,cRDM,1.0,,,,1476.5740109000005,76,24,male,True,14765,14774,False,False,inspiration,expiration
456,0.3899838540306811,25,up,up,0.8326554999998734,1.9388848347018643,,experiment,cRDM,1.0,,,,1479.7072414000002,76,24,male,True,14796,14804,False,False,inspiration,expiration
457,0.3899838540306811,25,down,down,0.5980491999998776,0.6764885156921387,,experiment,cRDM,1.0,,,,1481.473833,76,24,male,True,14814,14820,False,False,expiration,expiration
458,0.3899838540306811,25,down,down,1.5562408000000687,1.5870480008691932,,experiment,cRDM,1.0,,,,1483.9236061,76,24,male,True,14839,14855,False,False,expiration,expiration
459,0.3899838540306811,25,up,up,0.7884892000001855,1.6140220274462065,,experiment,cRDM,1.0,,,,1487.3403353000006,76,24,male,True,14873,14881,False,False,inspiration,expiration
460,0.3899838540306811,25,down,down,0.9540274999999384,1.9080795219893416,,experiment,cRDM,1.0,,,,1490.3068248,76,24,male,True,14902,14912,False,False,inspiration,expiration
461,0.3899838540306811,25,up,up,0.9731061000002228,0.9798620065845152,,experiment,cRDM,1.0,,,,1492.5067410999998,76,24,male,True,14924,14934,False,False,expiration,expiration
462,0.3899838540306811,25,up,up,1.0691577000002326,0.8666731728253119,,experiment,cRDM,1.0,,,,1494.6066800000006,76,24,male,True,14945,14956,False,False,trough,inspiration
463,0.3899838540306811,25,up,up,1.225008699999762,1.1080668519141046,,experiment,cRDM,1.0,,,,1497.0398555000004,76,24,male,True,14970,14982,False,False,expiration,expiration
464,0.3899838540306811,25,down,down,0.5063417999999729,1.3366693420694924,,experiment,cRDM,1.0,,,,1499.8564855,76,24,male,True,14998,15003,False,False,inspiration,inspiration
465,0.3899838540306811,25,down,down,0.4730660000000171,0.6072622354205885,,experiment,cRDM,1.0,,,,1501.2397887000004,76,24,male,True,15012,15017,False,False,expiration,expiration
466,0.3899838540306811,25,up,down,0.4208321999999498,1.4951933976077691,,experiment,cRDM,1.0,,,,1503.4730148000006,76,24,male,True,15034,15038,False,False,inspiration,expiration
467,0.3899838540306811,25,down,down,0.8681677999998101,0.8342302914143072,,experiment,cRDM,1.0,,,,1504.9896448,76,24,male,True,15049,15058,False,False,expiration,expiration
468,0.3899838540306811,25,down,down,0.9229807000001528,1.744218731526907,,experiment,cRDM,1.0,,,,1507.8728533000005,76,24,male,True,15078,15087,False,False,inspiration,expiration
469,0.3899838540306811,25,up,down,0.7824301999999079,1.5171667556224981,,experiment,cRDM,1.0,,,,1510.589419,76,24,male,True,15105,15113,False,False,expiration,expiration
470,0.3899838540306811,25,up,up,0.8298656000001756,1.978128432256517,,experiment,cRDM,1.0,,,,1513.6059736000002,76,24,male,True,15135,15143,False,False,expiration,expiration
471,0.3899838540306811,25,down,down,0.6849667000001318,1.6970529403773655,,experiment,cRDM,1.0,,,,1516.4058936,76,24,male,True,15163,15170,False,False,inspiration,inspiration
472,0.3899838540306811,25,up,up,0.6650134999999864,0.6884858120424089,,experiment,cRDM,1.0,,,,1518.0558435000007,76,24,male,True,15180,15187,False,False,expiration,expiration
473,0.3899838540306811,25,down,down,0.9988596000002872,0.9598611886601418,,experiment,cRDM,1.0,,,,1519.9389930000002,76,24,male,True,15199,15209,False,False,inspiration,expiration
474,0.3899838540306811,25,down,up,0.7035344000000805,1.913105417733011,,experiment,cRDM,1.0,,,,1523.1222933,76,24,male,True,15230,15237,False,False,expiration,inspiration
475,0.3899838540306811,25,down,down,0.6092686000001777,1.3095066230339574,,experiment,cRDM,1.0,,,,1525.4055792000001,76,24,male,True,15253,15259,False,False,expiration,expiration
476,0.3899838540306811,25,up,up,0.617696899999828,1.2020858433035946,,experiment,cRDM,1.0,,,,1527.4721505999998,76,24,male,True,15274,15280,False,False,inspiration,inspiration
477,0.3899838540306811,25,up,down,1.0494711999999708,1.5534336922656593,,experiment,cRDM,1.0,,,,1529.9053804000002,76,24,male,True,15298,15308,False,False,expiration,expiration
478,0.3899838540306811,25,down,up,0.9991961999999148,1.5331019108105508,,experiment,cRDM,1.0,,,,1532.7386287,76,24,male,True,15327,15337,False,False,expiration,expiration
479,0.3899838540306811,25,down,down,1.0983468999997967,0.9016115896293956,,experiment,cRDM,1.0,,,,1534.8885472000004,76,24,male,True,15348,15359,False,False,expiration,inspiration
480,0.3899838540306811,25,up,down,0.8047388999998475,1.1419712966216715,,experiment,cRDM,1.0,,,,1537.4050914000002,76,24,male,True,15373,15381,False,False,expiration,expiration
481,0.3899838540306811,25,up,down,0.9364350999999259,1.0727315109022448,,experiment,cRDM,1.0,,,,1539.5384093000002,76,24,male,True,15395,15404,False,False,inspiration,expiration
482,0.3899838540306811,25,up,up,0.6987766000002011,0.6984283240759345,,experiment,cRDM,1.0,,,,1541.4213899,76,24,male,True,15414,15421,False,False,expiration,expiration
483,0.3899838540306811,25,up,down,1.0058885000003102,0.3571827367717981,,experiment,cRDM,1.0,,,,1542.7549390000001,76,24,male,True,15427,15437,False,False,inspiration,peak
484,0.3899838540306811,25,up,up,0.6983996999997544,1.8358992220482422,,experiment,cRDM,1.0,,,,1545.871451,76,24,male,True,15458,15465,False,False,expiration,expiration
485,0.3899838540306811,25,down,down,0.7860289999998713,1.2257330249469844,,experiment,cRDM,1.0,,,,1548.0547669000002,76,24,male,True,15480,15488,False,False,inspiration,expiration
486,0.3899838540306811,25,down,down,1.3630102000001898,1.7408039978438945,,experiment,cRDM,1.0,,,,1550.8378359000005,76,24,male,True,15508,15522,False,False,inspiration,expiration
487,0.3899838540306811,25,up,up,0.9223366999999598,0.8488650703140155,,experiment,cRDM,1.0,,,,1553.3045064000007,76,24,male,True,15532,15541,False,False,expiration,expiration
488,0.3899838540306811,25,down,down,0.9997256000001472,1.6308761798763136,,experiment,cRDM,1.0,,,,1556.1211217,76,24,male,True,15561,15571,False,False,expiration,expiration
489,0.3899838540306811,25,down,down,0.6964632999997775,0.979369452661608,,experiment,cRDM,1.0,,,,1558.3543776,76,24,male,True,15583,15590,False,False,inspiration,inspiration
490,0.3899838540306811,25,down,down,1.1556829000001017,1.9976576392741328,,experiment,cRDM,1.0,,,,1561.3042214000004,76,24,male,True,15612,15624,False,False,expiration,inspiration
491,0.3899838540306811,25,up,up,0.7451169000000846,1.144920076401688,,experiment,cRDM,1.0,,,,1563.8707759000001,76,24,male,True,15638,15645,False,False,expiration,expiration
492,0.3899838540306811,25,down,down,0.8154304999998203,0.3087456464275208,,experiment,cRDM,1.0,,,,1565.1874236000006,76,24,male,True,15651,15659,False,False,trough,inspiration
493,0.3899838540306811,25,down,down,0.6795028999999886,1.8718387956105664,,experiment,cRDM,1.0,,,,1568.137338,76,24,male,True,15681,15688,False,False,expiration,expiration
494,0.3899838540306811,25,down,down,0.5469057000000248,1.1678763606385756,,experiment,cRDM,1.0,,,,1570.2539373,76,24,male,True,15702,15707,False,False,inspiration,inspiration
495,0.3899838540306811,25,up,down,0.7600218999996287,1.571062232193388,,experiment,cRDM,1.0,,,,1572.6538241000005,76,24,male,True,15726,15734,False,False,expiration,expiration
496,0.3899838540306811,25,up,down,0.6357222999999976,1.2123582587352413,,experiment,cRDM,1.0,,,,1574.8870649,76,24,male,True,15748,15754,False,False,inspiration,expiration
497,0.3899838540306811,25,down,down,0.8527076000000307,0.3720503930969741,,experiment,cRDM,1.0,,,,1576.1703444,76,24,male,True,15761,15770,False,False,expiration,expiration
498,0.3899838540306811,25,up,down,0.4512666999999056,1.0192868784780449,,experiment,cRDM,1.0,,,,1578.3036111,76,24,male,True,15782,15787,False,False,expiration,inspiration
499,0.3899838540306811,25,down,down,0.3337655000000268,1.5418357251650032,,experiment,cRDM,1.0,,,,1580.5535349000004,76,24,male,True,15805,15808,False,False,expiration,expiration
500,0.3899838540306811,25,up,down,0.3671343999999408,1.678799616140784,,experiment,cRDM,1.0,,,,1582.9201029,76,24,male,True,15828,15832,False,False,expiration,inspiration
501,0.3899838540306811,25,up,down,0.3004668000003221,1.2030225843886095,,experiment,cRDM,1.0,,,,1584.8033567000002,76,24,male,True,15847,15850,False,False,expiration,expiration
502,108.0,25,M,up,1.0488794999996571,1.2813554508515594,,experiment,emotion,2.0,,,,1595.0029735000005,76,24,male,True,15949,15959,False,False,expiration,expiration
503,98.0,25,M,up,1.3326971000001322,1.4997510308109148,,experiment,emotion,2.0,,,,1597.836115,76,24,male,True,15978,15991,False,False,inspiration,expiration
504,105.0,25,F,up,0.9206410000001596,1.5493240559701398,,experiment,emotion,2.0,,,,1601.0192052999998,76,24,male,True,16010,16019,False,False,trough,inspiration
505,108.0,25,F,up,0.8231568000001062,0.8909236970843957,,experiment,emotion,2.0,,,,1603.1026506000005,76,24,male,True,16030,16038,False,False,expiration,expiration
506,105.0,25,M,up,0.8806524000001446,1.8776736850439408,,experiment,emotion,2.0,,,,1606.0692285,76,24,male,True,16060,16069,False,False,inspiration,expiration
507,101.0,25,F,up,0.6660658999999214,1.1541437013166689,,experiment,emotion,2.0,,,,1608.3858130000006,76,24,male,True,16083,16090,False,False,expiration,inspiration
508,98.0,25,M,up,0.8657535999996071,1.5587765155783693,,experiment,emotion,2.0,,,,1610.8690740999998,76,24,male,True,16108,16117,False,False,expiration,expiration
509,101.0,25,M,down,0.8108873999999558,1.5559129412959618,,experiment,emotion,2.0,,,,1613.5689620000005,76,24,male,True,16135,16143,False,False,inspiration,expiration
510,108.0,25,F,down,0.668324599999778,1.7259703195060254,,experiment,emotion,2.0,,,,1616.3855159000002,76,24,male,True,16163,16170,False,False,inspiration,inspiration
511,101.0,25,F,up,0.9380827999998472,1.5472446905014612,,experiment,emotion,2.0,,,,1618.8687702000002,76,24,male,True,16188,16197,False,False,expiration,expiration
512,105.0,25,F,up,1.726824400000169,1.6591842871560902,,experiment,emotion,2.0,,,,1621.7519907,76,24,male,True,16217,16234,False,False,expiration,expiration
513,108.0,25,F,up,0.6096299999999246,0.9733832381083204,,experiment,emotion,2.0,,,,1624.7184991,76,24,male,True,16247,16253,False,False,inspiration,inspiration
514,105.0,25,F,up,0.603297300000122,0.9695727136632272,,experiment,emotion,2.0,,,,1626.5685028000007,76,24,male,True,16265,16271,False,False,expiration,expiration
515,98.0,25,F,down,0.8425536999998258,1.6793718090397582,,experiment,emotion,2.0,,,,1629.1182528,76,24,male,True,16291,16299,False,False,inspiration,expiration
516,101.0,25,M,up,0.7817265000003317,0.6836134360596307,,experiment,emotion,2.0,,,,1630.9181314000002,76,24,male,True,16309,16317,False,False,expiration,expiration
517,98.0,25,M,up,0.6780195999999705,0.8676103849303551,,experiment,emotion,2.0,,,,1632.8348326,76,24,male,True,16328,16335,False,False,inspiration,expiration
518,108.0,25,M,up,0.5992891999999301,0.42689179696108703,,experiment,emotion,2.0,,,,1634.2015316000004,76,24,male,True,16341,16347,False,False,expiration,expiration
519,98.0,25,M,up,0.6000744000002669,1.8147766995886971,,experiment,emotion,2.0,,,,1636.8847674000006,76,24,male,True,16368,16374,False,False,inspiration,expiration
520,105.0,25,F,up,0.7367960999999923,0.5970926251506157,,experiment,emotion,2.0,,,,1638.3680454000003,76,24,male,True,16383,16390,False,False,expiration,expiration
521,105.0,25,M,up,0.715557699999863,1.7729444886634125,,experiment,emotion,2.0,,,,1641.1513027,76,24,male,True,16411,16418,False,False,expiration,expiration
522,101.0,25,M,up,0.730993799999851,1.3681534245678144,,experiment,emotion,2.0,,,,1643.517851,76,24,male,True,16434,16441,False,False,inspiration,inspiration
523,101.0,25,F,up,0.6487234000001081,0.7887267460192072,,experiment,emotion,2.0,,,,1645.3011114,76,24,male,True,16452,16458,False,False,expiration,expiration
524,98.0,25,M,up,0.4721404000001712,0.9501757319253684,,experiment,emotion,2.0,,,,1647.1677007000005,76,24,male,True,16471,16476,False,False,inspiration,inspiration
525,108.0,25,F,up,0.6725474999998369,1.5134856697771455,,experiment,emotion,2.0,,,,1649.4343035000004,76,24,male,True,16494,16501,False,False,expiration,expiration
526,105.0,25,F,up,0.6922696000001451,1.4944454136217138,,experiment,emotion,2.0,,,,1651.867568,76,24,male,True,16518,16525,False,False,inspiration,expiration
527,98.0,25,M,down,0.8030453999999736,1.0641955510694523,,experiment,emotion,2.0,,,,1653.9007981,76,24,male,True,16538,16546,False,False,expiration,expiration
528,108.0,25,M,down,1.426761899999747,1.050316653325867,,experiment,emotion,2.0,,,,1656.0340767000002,76,24,male,True,16560,16574,False,False,inspiration,expiration
529,108.0,25,F,up,0.7335803999999371,0.4328397790294877,,experiment,emotion,2.0,,,,1658.1673109000005,76,24,male,True,16581,16588,False,False,expiration,expiration
530,101.0,25,M,down,1.3366120000000592,0.7514979660445316,,experiment,emotion,2.0,,,,1659.9172322000002,76,24,male,True,16598,16611,False,False,inspiration,expiration
531,98.0,25,F,down,0.7270634000001337,1.3582209240330851,,experiment,emotion,2.0,,,,1662.8837747999999,76,24,male,True,16628,16635,False,False,expiration,inspiration
532,101.0,25,F,down,0.90410699999984,1.7531009761253067,,experiment,emotion,2.0,,,,1665.6337312,76,24,male,True,16656,16665,False,False,expiration,expiration
533,105.0,25,F,down,0.8662190000000011,1.5119145831855556,,experiment,emotion,2.0,,,,1668.3336226,76,24,male,True,16683,16692,False,False,inspiration,expiration
534,98.0,25,M,down,0.7213240999999471,1.5017485753667754,,experiment,emotion,2.0,,,,1670.9835004,76,24,male,True,16709,16716,False,False,expiration,inspiration
535,108.0,25,M,down,0.43939769999997225,0.4995482724057106,,experiment,emotion,2.0,,,,1672.4834450000005,76,24,male,True,16724,16728,False,False,peak,expiration
536,105.0,25,M,down,0.5974277000000257,0.438623595394294,,experiment,emotion,2.0,,,,1673.6334104000002,76,24,male,True,16736,16742,False,False,expiration,expiration
537,108.0,25,F,up,0.8091774999998051,1.5551896773406435,,experiment,emotion,2.0,,,,1676.0666436,76,24,male,True,16760,16768,False,False,inspiration,expiration
538,98.0,25,F,up,1.3112989000001107,1.8212575098201684,,experiment,emotion,2.0,,,,1678.9665403000001,76,24,male,True,16789,16802,False,False,inspiration,expiration
539,105.0,25,M,up,0.8690431999998509,0.3443769593641193,,experiment,emotion,2.0,,,,1680.8997932000002,76,24,male,True,16808,16817,False,False,expiration,expiration
540,101.0,25,F,down,1.0528079000000616,1.1955580549171587,,experiment,emotion,2.0,,,,1683.2330585000002,76,24,male,True,16832,16843,False,False,inspiration,expiration
541,101.0,25,M,down,1.3192096000002491,0.4368357715813047,,experiment,emotion,2.0,,,,1684.9996324000006,76,24,male,True,16849,16862,False,False,expiration,expiration
542,105.0,25,M,down,0.8378767999997763,0.7877463515319751,,experiment,emotion,2.0,,,,1687.3829158000005,76,24,male,True,16873,16881,False,False,inspiration,peak
543,108.0,25,M,up,0.7173723000000791,0.7522830877550936,,experiment,emotion,2.0,,,,1689.2495041000002,76,24,male,True,16892,16899,False,False,expiration,expiration
544,101.0,25,F,up,1.1498019999999087,1.3304521533114662,,experiment,emotion,2.0,,,,1691.5660787000004,76,24,male,True,16915,16926,False,False,inspiration,expiration
545,98.0,25,F,up,0.6879075000001649,0.807808668884207,,experiment,emotion,2.0,,,,1693.8159327000005,76,24,male,True,16938,16945,False,False,expiration,expiration
546,98.0,25,M,up,1.1899305000001732,1.3368755735792572,,experiment,emotion,2.0,,,,1696.1159299000003,76,24,male,True,16961,16973,False,False,inspiration,expiration
547,101.0,25,F,up,1.2261137999998937,1.5432483385121591,,experiment,emotion,2.0,,,,1699.1157384000005,76,24,male,True,16991,17003,False,False,expiration,inspiration
548,108.0,25,F,up,0.6331431000003249,0.9995125357259159,,experiment,emotion,2.0,,,,1701.6157090999998,76,24,male,True,17016,17022,False,False,expiration,expiration
549,105.0,25,M,up,0.7785444999999527,0.9541225495107424,,experiment,emotion,2.0,,,,1703.4822932999998,76,24,male,True,17034,17042,False,False,inspiration,peak
550,98.0,25,M,up,0.5258941999995841,0.4253306777272826,,experiment,emotion,2.0,,,,1704.9489262000004,76,24,male,True,17049,17054,False,False,expiration,expiration
551,108.0,25,F,up,0.608349200000248,1.4807971605233268,,experiment,emotion,2.0,,,,1707.2154819000002,76,24,male,True,17071,17077,False,False,inspiration,inspiration
