,stimLvl,stimTime,rand,response,rt,precedingITI,trialNumber,trialType,stimuli,block,estIntens,estThres,estSlope,trialStart,subject,age,gender,headRest,onset,responsI,manBadOnset,manBadRespons,onset_phase,respons_phase
0,0.9,100,down,,,1.1673964445212348,,introTrial,cRDM,,,,,204.43658520001918,80,33,male,True,2043,0,False,False,peak,0
1,150.0,100,F,,,1.1329341452332309,,introTrial,emotion,,,,,209.55305280000903,80,33,male,True,2094,0,False,False,expiration,0
2,200.0,25,F,up,0.7637240000767633,0.8617081976293088,,tutorial,emotion,,,,,249.16808790003415,80,33,male,True,2491,2499,False,False,expiration,expiration
3,200.0,25,F,up,0.5740373000735417,1.6926702485765668,,tutorial,emotion,,,,,251.88485180004503,80,33,male,True,2518,2524,False,False,inspiration,expiration
4,200.0,25,M,up,0.573394599952735,1.1582222213207571,,tutorial,emotion,,,,,253.9014337999979,80,33,male,True,2538,2544,False,False,expiration,inspiration
5,0.0,25,M,down,0.4871143000200391,0.3331887310756473,,tutorial,emotion,,,,,255.13474720006343,80,33,male,True,2550,2555,False,False,inspiration,expiration
6,0.0,25,F,down,1.0231350000249222,0.425259333353699,,tutorial,emotion,,,,,256.3346972999861,80,33,male,True,2562,2572,False,False,expiration,expiration
7,200.0,25,F,up,0.9292677000630648,1.3007590733030463,,tutorial,emotion,,,,,258.93458690005355,80,33,male,True,2588,2597,False,False,expiration,expiration
8,0.0,25,M,down,0.6550290000159293,1.3375120408309618,,tutorial,emotion,,,,,261.46781290008215,80,33,male,True,2613,2620,False,False,inspiration,peak
9,200.0,25,F,up,0.6627198000205681,0.4417240616691448,,tutorial,emotion,,,,,262.8511142000789,80,33,male,True,2627,2634,False,False,expiration,expiration
10,0.0,25,M,down,0.5416014000074938,0.6886625646852742,,tutorial,emotion,,,,,264.48422300000675,80,33,male,True,2644,2649,False,False,inspiration,inspiration
11,0.0,25,M,down,0.7981835999526083,0.5618873264032855,,tutorial,emotion,,,,,265.86765750008635,80,33,male,True,2657,2665,False,False,expiration,expiration
12,0.9,25,up,up,0.8235160000622272,0.9558139768278148,,tutorial,cRDM,,,,,275.01733940001577,80,33,male,True,2749,2757,False,False,expiration,expiration
13,0.9,25,up,up,0.6129386000102386,0.7142871517055491,,tutorial,cRDM,,,,,276.83394500007853,80,33,male,True,2767,2773,False,False,inspiration,inspiration
14,0.9,25,down,down,0.8496301000704989,1.7024719730634146,,tutorial,cRDM,,,,,279.4171691000229,80,33,male,True,2793,2801,False,False,expiration,inspiration
15,0.9,25,down,down,0.6621472000842914,1.8721927540735128,,tutorial,cRDM,,,,,282.433726200019,80,33,male,True,2823,2830,False,False,expiration,expiration
16,0.9,25,up,up,0.6108423999976367,1.3063301844808528,,tutorial,cRDM,,,,,284.6669641000917,80,33,male,True,2845,2851,False,False,inspiration,expiration
17,0.9,25,down,down,0.4989329999079928,1.5150233987263235,,tutorial,cRDM,,,,,287.06690159998834,80,33,male,True,2869,2874,False,False,inspiration,inspiration
18,0.9,25,up,up,0.5330073999939486,1.1712779153301864,,tutorial,cRDM,,,,,289.0168260000646,80,33,male,True,2889,2894,False,False,expiration,inspiration
19,0.9,25,up,down,0.6603507000254467,0.6606284163187819,,tutorial,cRDM,,,,,290.4834761000238,80,33,male,True,2904,2911,False,False,inspiration,expiration
20,0.9,25,down,down,0.7802493000635877,1.1927747329667109,,tutorial,cRDM,,,,,292.61668670002837,80,33,male,True,2925,2933,False,False,inspiration,inspiration
21,0.9,25,down,down,0.5285879999864846,1.5223597108646447,,tutorial,cRDM,,,,,295.1832775000948,80,33,male,True,2951,2956,False,False,expiration,inspiration
22,100.0,25,M,up,0.8975984000135213,1.9056076015227823,,psi_staircase_training,emotion,,100.0,100.0,25.00050000000001,310.2663109999848,80,33,male,True,3102,3111,False,False,inspiration,inspiration
23,55.0,25,M,down,0.4672007999615744,0.9999704929525048,,psi_staircase_training,emotion,,54.742809467541896,54.742809467541896,25.00050000000011,312.5326256999979,80,33,male,True,3124,3129,False,False,inspiration,expiration
24,79.0,25,F,up,0.8557382000144571,1.4032331169579813,,psi_staircase_training,emotion,,79.636070985635,79.636070985635,25.71326925488641,314.76613700005686,80,33,male,True,3147,3156,False,False,expiration,inspiration
25,63.0,25,F,down,0.7079939999384806,0.6130312748144359,,psi_staircase_training,emotion,,62.164016703383474,62.164016703383474,25.29232598628389,316.61580890009645,80,33,male,True,3165,3172,False,False,inspiration,expiration
26,73.0,25,M,down,0.625827300013043,1.8495450035078207,,psi_staircase_training,emotion,,73.5393094419089,73.5393094419089,23.64975108561003,319.5490248000715,80,33,male,True,3194,3200,False,False,inspiration,expiration
27,87.0,25,F,down,1.0418143999995664,0.5761805228198023,,psi_staircase_training,emotion,,82.48355301883353,82.48355301883353,24.57617413513036,321.0989772999892,80,33,male,True,3210,3220,False,False,expiration,inspiration
28,106.0,25,M,up,0.5816535999765621,1.8881215474968216,,psi_staircase_training,emotion,,93.47321971198342,93.47321971198342,30.115701177202173,324.38216770009603,80,33,male,True,3243,3249,False,False,inspiration,inspiration
29,102.0,25,F,up,0.7513754999963567,0.5913036073485378,,psi_staircase_training,emotion,,87.30823528954795,87.30823528954795,27.727353430799198,325.9154667999828,80,33,male,True,3258,3266,False,False,expiration,expiration
30,68.0,25,F,down,0.7196079000132158,0.639707857288301,,psi_staircase_training,emotion,,83.44475538654902,83.44475538654902,25.68608228109167,327.66525820002425,80,33,male,True,3276,3283,False,False,inspiration,inspiration
31,97.0,25,M,up,0.9729104000143708,1.91440973847491,,psi_staircase_training,emotion,,86.24064723047103,86.24064723047103,23.87752068767171,330.63192960002925,80,33,male,True,3305,3315,False,False,expiration,inspiration
32,69.0,25,F,down,0.8469918000046164,1.1301070556212565,,psi_staircase_training,emotion,,83.31054953894326,83.31054953894326,21.893116543771765,333.08188030007295,80,33,male,True,3330,3338,False,False,expiration,expiration
33,93.0,25,F,down,0.950041800038889,1.5475098427203444,,psi_staircase_training,emotion,,85.20766704325236,85.20766704325236,20.061136582160174,335.8817996000871,80,33,male,True,3358,3368,False,False,expiration,expiration
34,107.0,25,F,up,0.6962736999848858,1.0440164098799214,,psi_staircase_training,emotion,,90.17495372902464,90.17495372902464,23.75651627390735,338.23163629998453,80,33,male,True,3381,3388,False,False,inspiration,expiration
35,105.0,25,M,up,0.8025534000480548,0.7704085949491448,,psi_staircase_training,emotion,,88.38951204978505,88.38951204978505,21.77869160308998,340.0482724000467,80,33,male,True,3399,3407,False,False,expiration,inspiration
36,75.0,25,M,down,0.8593155000125989,1.7202247141538285,,psi_staircase_training,emotion,,87.10805349140385,87.10805349140385,20.058450704603548,342.93148330005346,80,33,male,True,3428,3437,False,False,expiration,expiration
37,91.0,25,F,down,0.9570525999879465,1.177739345963344,,psi_staircase_training,emotion,,88.62721059417484,88.62721059417484,18.382443687868122,345.31477420008736,80,33,male,True,3452,3462,False,False,peak,expiration
38,91.0,25,F,up,0.7714170999825001,1.7441784520627013,,psi_staircase_training,emotion,,91.38840646673569,91.38840646673569,18.27439875211271,348.3644285000628,80,33,male,True,3483,3491,False,False,inspiration,expiration
39,106.0,25,M,up,0.6979323999257758,0.9176686756050438,,psi_staircase_training,emotion,,88.87118762830734,88.87118762830734,19.51747848980073,350.39787119999534,80,33,male,True,3503,3510,False,False,trough,inspiration
40,73.0,25,M,down,1.0066429000580683,0.6405351381642235,,psi_staircase_training,emotion,,88.09443021905777,88.09443021905777,18.066330778719827,352.0811775000766,80,33,male,True,3520,3530,False,False,expiration,expiration
41,75.0,25,M,down,0.8276269000489265,1.1500017755749588,,psi_staircase_training,emotion,,88.93113539502008,88.93113539502008,16.678130299583152,354.5641703000292,80,33,male,True,3545,3553,False,False,inspiration,expiration
42,104.0,25,M,up,1.034180199960247,0.9866274130782926,,psi_staircase_training,emotion,,89.62633086553394,89.62633086553394,15.468475127078225,356.74764300009696,80,33,male,True,3566,3576,False,False,expiration,inspiration
43,79.0,25,F,down,0.981568600051105,1.3851049286839627,,psi_staircase_training,emotion,,89.0357867872633,89.0357867872633,14.299490152594291,359.51422590005683,80,33,male,True,3594,3604,False,False,expiration,expiration
44,83.0,25,F,down,0.8447062999475747,1.9517133540986669,,psi_staircase_training,emotion,,89.75372912897423,89.75372912897423,13.282442422780239,362.8141215000069,80,33,male,True,3627,3635,False,False,expiration,expiration
45,102.0,25,F,down,0.7603730999398977,1.7933771680242014,,psi_staircase_training,emotion,,90.55669194758521,90.55669194758521,12.4295281700509,365.78042490000365,80,33,male,True,3657,3665,False,False,peak,expiration
46,110.0,25,M,down,1.1582905999384818,1.490711764250703,,psi_staircase_training,emotion,,92.91893391255907,92.91893391255907,17.10389154509514,368.3805649999995,80,33,male,True,3683,3695,False,False,inspiration,expiration
47,118.0,25,M,up,0.6643359999870881,1.7873704029736928,,psi_staircase_training,emotion,,96.20490699967111,96.20490699967111,23.5962286249123,371.6635070000775,80,33,male,True,3716,3723,False,False,inspiration,expiration
48,117.0,25,F,up,0.7296225999016315,1.648959734041214,,psi_staircase_training,emotion,,95.35443008623888,95.35443008623888,22.2270663404842,374.33032850001473,80,33,male,True,3742,3749,False,False,trough,inspiration
49,116.0,25,F,up,0.6525272000581026,0.7938867982530773,,psi_staircase_training,emotion,,94.67531293402209,94.67531293402209,21.015121066389554,376.2302861000644,80,33,male,True,3761,3768,False,False,expiration,expiration
50,115.0,25,M,up,0.7085138999391347,1.8338192439812728,,psi_staircase_training,emotion,,94.1272842606905,94.1272842606905,19.945913309519177,379.0633391999872,80,33,male,True,3790,3797,False,False,inspiration,expiration
51,74.0,25,M,down,0.8016952000325546,0.8981958245596948,,psi_staircase_training,emotion,,93.6784916441182,93.6784916441182,19.003238663546245,381.03011120005976,80,33,male,True,3809,3817,False,False,expiration,inspiration
52,0.29,25,up,up,0.6267220999579877,1.6685304457048995,,psi_staircase_training,cRDM,,0.25,0.25693124029946324,0.10500000000000002,390.66306060005445,80,33,male,True,3905,3911,False,False,expiration,expiration
53,0.25,25,up,up,0.6757650999352336,0.8556743495358401,,psi_staircase_training,cRDM,,0.21910266653183127,0.2260132002683493,0.10468632033873933,392.41300380008767,80,33,male,True,3923,3930,False,False,inspiration,expiration
54,0.21,25,down,down,0.6325633999658749,1.5913247501379617,,psi_staircase_training,cRDM,,0.1900540959403307,0.19684979615540016,0.10294672984249993,394.94624590000603,80,33,male,True,3948,3954,False,False,inspiration,inspiration
55,0.18,25,down,down,0.6160092001082376,1.4562132210190932,,psi_staircase_training,cRDM,,0.1635257589279754,0.1701521334256793,0.100381647756865,397.31282310001546,80,33,male,True,3972,3978,False,False,expiration,inspiration
56,0.15,25,up,up,0.7781061999266967,1.959741503202498,,psi_staircase_training,cRDM,,0.14018955742449365,0.14660133511875031,0.0971307628663642,400.16273189999634,80,33,male,True,4001,4009,False,False,expiration,expiration
57,0.13,25,down,down,0.7791835999814793,1.5085560297506648,,psi_staircase_training,cRDM,,0.11987606021454796,0.12605547676183335,0.09361076941961036,402.71264180005534,80,33,male,True,4026,4034,False,False,inspiration,expiration
58,0.11,25,up,up,0.7168945999583229,0.4162682334076391,,psi_staircase_training,cRDM,,0.10257735236965487,0.10849103445698656,0.08958521019937955,404.1959159000544,80,33,male,True,4041,4048,False,False,expiration,inspiration
59,0.09,25,down,down,0.5959113000426441,1.1001006019162802,,psi_staircase_training,cRDM,,0.08784432595859408,0.09348182153209693,0.08540131486476357,406.2958739000605,80,33,male,True,4062,4068,False,False,expiration,expiration
60,0.08,25,down,up,0.6834017999935895,1.6100488050486177,,psi_staircase_training,cRDM,,0.07518520921180863,0.0805556301471181,0.08135545354720439,408.76238810003264,80,33,male,True,4086,4093,False,False,inspiration,expiration
61,0.13,25,up,up,0.5921825999394059,1.6741984442981968,,psi_staircase_training,cRDM,,0.1145374077699418,0.12103712105675656,0.09846288191283688,411.39566949999426,80,33,male,True,4113,4119,False,False,inspiration,inspiration
62,0.13,25,down,down,0.6375443000579253,0.600092181495269,,psi_staircase_training,cRDM,,0.1023941484636294,0.10857748278643099,0.09367011903258447,412.8622410000535,80,33,male,True,4127,4133,False,False,expiration,expiration
63,0.12,25,down,up,0.6903450000099838,0.7280586920449827,,psi_staircase_training,cRDM,,0.093157405715179,0.09896538803474302,0.08798398514641666,414.4955243000295,80,33,male,True,4144,4151,False,False,inspiration,inspiration
64,0.16,25,down,down,0.7080328000010923,1.6205605628174218,,psi_staircase_training,cRDM,,0.1290085181734406,0.136602985232638,0.11504709211675675,417.07879460009286,80,33,male,True,4170,4177,False,False,trough,inspiration
65,0.16,25,up,up,0.701136099989526,1.5799120862375986,,psi_staircase_training,cRDM,,0.1173317507949223,0.12465379317969215,0.1109201841494908,419.62867670005653,80,33,male,True,4195,4202,False,False,expiration,inspiration
66,0.15,25,up,up,0.7595956999575719,1.5237677019937377,,psi_staircase_training,cRDM,,0.10843366749217152,0.11543044405032805,0.10599279593052408,422.1452513000695,80,33,male,True,4220,4228,False,False,expiration,expiration
67,0.15,25,down,up,0.6963582000462338,1.44723207995901,,psi_staircase_training,cRDM,,0.1014971773031524,0.1081597895223434,0.10093060589303612,424.6284739000257,80,33,male,True,4245,4252,False,False,inspiration,expiration
68,0.19,25,down,up,0.9043750999262556,1.076778267891661,,psi_staircase_training,cRDM,,0.1311759096731119,0.13991135476848934,0.13233154462782928,426.67843150009867,80,33,male,True,4266,4275,False,False,trough,inspiration
69,0.27,25,up,up,0.7671940999571234,1.6101961177865731,,psi_staircase_training,cRDM,,0.17777190228590842,0.187460560487194,0.14677158303309187,429.46163520007394,80,33,male,True,4293,4301,False,False,expiration,inspiration
70,0.24,25,up,up,0.6279614000814036,1.6708308581567346,,psi_staircase_training,cRDM,,0.164613836096729,0.1742331685248633,0.1457213804912112,432.19487300002953,80,33,male,True,4321,4327,False,False,expiration,expiration
71,0.22,25,up,up,0.7180545000592247,1.07238254347039,,psi_staircase_training,cRDM,,0.15299411573211846,0.1625343182396457,0.14452265684222984,434.16177350003267,80,33,male,True,4341,4348,False,False,inspiration,expiration
72,0.18,25,up,up,0.6037816000171006,1.3665832905841566,,psi_staircase_training,cRDM,,0.1427357006322008,0.15220489612129534,0.1434469854452916,436.5280601000413,80,33,male,True,4364,4370,False,False,trough,inspiration
73,0.18,25,down,down,0.8545710999751464,0.8624725990957187,,psi_staircase_training,cRDM,,0.1324850524224694,0.14199955293303373,0.14413330233069774,438.2612343000946,80,33,male,True,4382,4391,False,False,expiration,expiration
74,0.18,25,down,up,0.7382825999520719,1.9515587584648,,psi_staircase_training,cRDM,,0.12373538432458077,0.13323182759473762,0.14385975673699872,441.3445276999846,80,33,male,True,4412,4419,False,False,expiration,expiration
75,0.24,25,down,up,0.7440297000575811,1.3678789176061639,,psi_staircase_training,cRDM,,0.1552076104915146,0.16498166326154473,0.14806520860813818,443.727777000051,80,33,male,True,4436,4443,False,False,inspiration,inspiration
76,0.3,25,up,down,0.4561258999165148,1.1741499235510966,,psi_staircase_training,cRDM,,0.19593184913894146,0.20634725352093666,0.15778091840131114,445.9277135999873,80,33,male,True,4458,4463,False,False,expiration,inspiration
77,0.35000000000000003,25,up,up,0.5065755000105128,1.3010735998174028,,psi_staircase_training,cRDM,,0.2521913870081252,0.2629412876060458,0.1628481359777795,447.9612588000018,80,33,male,True,4479,4484,False,False,expiration,inspiration
78,0.33,25,down,down,0.7536206000950187,0.9997927731339378,,psi_staircase_training,cRDM,,0.2383335494780419,0.2491702046273288,0.16416236366285472,449.7442089000251,80,33,male,True,4496,4504,False,False,inspiration,expiration
79,0.3,25,down,down,0.6061310999793932,1.4011327247320349,,psi_staircase_training,cRDM,,0.22574795025951525,0.23662911865027006,0.16483668602828944,452.16070880007453,80,33,male,True,4521,4527,False,False,expiration,inspiration
80,0.3,25,up,up,0.6094190999865532,0.5364009717793327,,psi_staircase_training,cRDM,,0.213788132579135,0.22471184044590287,0.16548110820792786,453.5774498000973,80,33,male,True,4535,4541,False,False,inspiration,peak
81,0.29,25,up,up,0.7281274000415578,0.7558576406092254,,psi_staircase_training,cRDM,,0.20351942466722,0.2144378586664004,0.1654012154221112,455.21070080006035,80,33,male,True,4551,4558,False,False,expiration,expiration
82,100.0,25,M,down,0.852510099997744,0.3523391499644085,,psi_staircase,emotion,,100.0,100.0,25.00050000000001,489.55931180005433,80,33,male,True,4895,4904,False,False,inspiration,expiration
83,145.0,25,M,up,0.6136585000203922,1.4943479215145823,,psi_staircase,emotion,,145.25719053245996,145.25719053245996,25.000500000000283,492.25908880005585,80,33,male,True,4922,4928,False,False,inspiration,inspiration
84,121.0,25,F,up,0.7365051000379026,1.57500197781281,,psi_staircase,emotion,,120.36392901436103,120.36392901436103,25.71326925488699,494.80925250006834,80,33,male,True,4947,4954,False,False,trough,inspiration
85,97.0,25,F,down,0.6798969000810757,0.5703458672458812,,psi_staircase,emotion,,102.38876106084959,102.38876106084959,26.14633372628729,496.45895370002836,80,33,male,True,4964,4971,False,False,expiration,expiration
86,113.0,25,M,up,1.1849093999480829,0.7715439133022164,,psi_staircase,emotion,,114.01123255420406,114.01123255420406,23.003056417783352,498.2588817999931,80,33,male,True,4982,4994,False,False,expiration,trough
87,105.0,25,F,down,0.7511570999631658,1.9682571233073165,,psi_staircase,emotion,,104.94359593877377,104.94359593877377,22.15060322358215,501.7586916000582,80,33,male,True,5017,5025,False,False,expiration,expiration
88,116.0,25,M,up,0.7140435000183061,0.6176292346799468,,psi_staircase,emotion,,111.58377353439043,111.58377353439043,20.59785325106301,503.4587754000677,80,33,male,True,5034,5041,False,False,inspiration,inspiration
89,108.0,25,F,down,1.2429061000002548,1.79362119758871,,psi_staircase,emotion,,107.51987113577816,107.51987113577816,17.54703484605283,506.30883700004784,80,33,male,True,5062,5074,False,False,expiration,expiration
90,116.0,25,F,up,0.7403229000046849,1.8631213922005687,,psi_staircase,emotion,,111.52498693761706,111.52498693761706,16.34487087665532,509.7585129000945,80,33,male,True,5097,5104,False,False,inspiration,expiration
91,110.0,25,M,up,0.6888027000240982,0.7370681061959798,,psi_staircase,emotion,,109.29238845796864,109.29238845796864,13.220683937514313,511.5919721000828,80,33,male,True,5115,5122,False,False,expiration,expiration
92,103.0,25,F,up,1.39249719993677,1.4245357470503397,,psi_staircase,emotion,,106.60325556426832,106.60325556426832,14.111810382277048,514.0582953999983,80,33,male,True,5140,5154,False,False,inspiration,expiration
93,90.0,25,F,down,0.7466622999636456,1.6237763716204177,,psi_staircase,emotion,,101.1697630019114,101.1697630019114,23.29514906322193,517.4250824000918,80,33,male,True,5173,5180,False,False,inspiration,inspiration
94,92.0,25,F,down,0.9238482000073418,1.586815486327268,,psi_staircase,emotion,,103.9221076962239,103.9221076962239,20.178138448822548,520.1249740000349,80,33,male,True,5200,5209,False,False,inspiration,inspiration
95,93.0,25,M,down,0.7623444000491872,1.86234160126882,,psi_staircase,emotion,,105.68327499595159,105.68327499595159,17.530256931481954,523.2584598000394,80,33,male,True,5232,5240,False,False,expiration,inspiration
96,118.0,25,M,down,0.9234131999546662,1.7168220903022062,,psi_staircase,emotion,,106.77800845114713,106.77800845114713,15.352792995832655,526.0914392999839,80,33,male,True,5260,5269,False,False,expiration,expiration
97,128.0,25,F,down,0.828794699977152,1.6284287370735806,,psi_staircase,emotion,,110.43799946665358,110.43799946665358,23.590156269106465,529.0079885000597,80,33,male,True,5289,5297,False,False,inspiration,inspiration
98,139.0,25,F,up,0.6785446000285447,0.4032086209101621,,psi_staircase,emotion,,115.25714158462492,115.25714158462492,30.835614170762426,530.5912538000848,80,33,male,True,5305,5312,False,False,inspiration,expiration
99,138.0,25,M,down,1.0882562000770122,0.4012628594679792,,psi_staircase,emotion,,113.7360511457577,113.7360511457577,29.40761129626424,532.0245421000292,80,33,male,True,5319,5330,False,False,expiration,expiration
100,146.0,25,M,up,0.7061389000155032,1.9756256374328347,,psi_staircase,emotion,,118.56072722263235,118.56072722263235,34.73182188514768,535.4576682000188,80,33,male,True,5354,5361,False,False,inspiration,expiration
101,145.0,25,M,up,0.6777512999251485,1.2791329263714135,,psi_staircase,emotion,,117.15724652942012,117.15724652942012,33.75413181385444,537.7910048000049,80,33,male,True,5377,5384,False,False,expiration,expiration
102,144.0,25,M,up,0.6536797999870032,1.7320945132067336,,psi_staircase,emotion,,115.9488217617746,115.9488217617746,32.80054524160422,540.5581070000771,80,33,male,True,5405,5412,False,False,peak,expiration
103,86.0,25,F,down,0.7650030999211594,1.7018800304111408,,psi_staircase,emotion,,114.90344264659143,114.90344264659143,31.873832442308263,543.2907915000105,80,33,male,True,5432,5440,False,False,inspiration,inspiration
104,144.0,25,F,up,0.6619758999440819,0.8746781751182369,,psi_staircase,emotion,,115.85264431121566,115.85264431121566,30.914948181393427,545.2738344999962,80,33,male,True,5452,5459,False,False,expiration,expiration
105,87.0,25,F,down,0.8102119999239221,1.2711591382068048,,psi_staircase,emotion,,114.97844894235732,114.97844894235732,29.965400352286032,547.5575755999888,80,33,male,True,5475,5483,False,False,inspiration,expiration
106,143.0,25,M,up,0.7079428000142798,1.0031156624300972,,psi_staircase,emotion,,115.79393315045492,115.79393315045492,28.994215624564237,549.7238717,80,33,male,True,5496,5503,False,False,inspiration,inspiration
107,88.0,25,M,down,0.6429933999897912,1.0722697245975623,,psi_staircase,emotion,,115.03630949459298,115.03630949459298,28.042873318101158,551.8569068000652,80,33,male,True,5518,5524,False,False,expiration,expiration
108,142.0,25,F,up,0.6467320999363437,0.3611947025229122,,psi_staircase,emotion,,115.73582182739365,115.73582182739365,27.09123831403228,553.2070858000078,80,33,male,True,5531,5537,False,False,inspiration,inspiration
109,89.0,25,F,down,0.4705414000200108,1.9372454472470302,,psi_staircase,emotion,,115.07707729815279,115.07707729815279,26.16874369912294,556.1403115000576,80,33,male,True,5560,5565,False,False,expiration,expiration
110,140.0,25,M,up,0.6089055000338703,1.0487375392489588,,psi_staircase,emotion,,115.6777715425657,115.6777715425657,25.26579557593266,558.0069052000763,80,33,male,True,5579,5585,False,False,expiration,expiration
111,90.0,25,M,down,0.6627805000171065,1.52958546099051,,psi_staircase,emotion,,115.07526662518823,115.07526662518823,24.385308270192922,560.4901486000745,80,33,male,True,5604,5611,False,False,expiration,expiration
112,139.0,25,F,up,0.5944507999811321,0.8219294402526589,,psi_staircase,emotion,,115.5935900486743,115.5935900486743,23.55158178480152,562.3234207000351,80,33,male,True,5622,5628,False,False,inspiration,inspiration
113,91.0,25,M,down,0.7464979999931529,1.7496373825323914,,psi_staircase,emotion,,115.06068428450304,115.06068428450304,22.74298465348041,565.0233209000435,80,33,male,True,5649,5656,False,False,inspiration,inspiration
114,137.0,25,F,up,1.1332065000897271,0.6774947323115679,,psi_staircase,emotion,,115.51161424985449,115.51161424985449,21.991352434004735,566.8065876000327,80,33,male,True,5667,5678,False,False,inspiration,expiration
115,136.0,25,M,up,0.6660257000476122,1.199243089953508,,psi_staircase,emotion,,115.00838995208923,115.00838995208923,21.251649050440783,569.4898267000681,80,33,male,True,5694,5701,False,False,expiration,expiration
116,93.0,25,F,down,0.6187048000283539,1.0149212744388232,,psi_staircase,emotion,,114.55212878261631,114.55212878261631,20.572212570939183,571.5230644000693,80,33,male,True,5714,5720,False,False,inspiration,expiration
117,134.0,25,M,up,0.8620755999581888,1.7859136203656654,,psi_staircase,emotion,,114.96955834083784,114.96955834083784,19.913036622263675,574.2727303000866,80,33,male,True,5742,5751,False,False,expiration,inspiration
118,94.0,25,F,down,1.2252473999978974,1.40141502696083,,psi_staircase,emotion,,114.52099689683165,114.52099689683165,19.29740337986468,576.8895553000037,80,33,male,True,5768,5780,False,False,expiration,expiration
119,131.0,25,M,up,0.6047147000208497,1.6566917226958804,,psi_staircase,emotion,,114.89362888803886,114.89362888803886,18.719890112222487,580.106109400047,80,33,male,True,5800,5806,False,False,peak,expiration
120,130.0,25,M,up,0.5961033999919891,1.1617839341388796,,psi_staircase,emotion,,114.41402978037723,114.41402978037723,18.155849475557368,582.222686400055,80,33,male,True,5821,5827,False,False,inspiration,inspiration
121,96.0,25,F,down,0.7951894000871107,1.5701364850131996,,psi_staircase,emotion,,113.95849912228384,113.95849912228384,17.630302496470478,584.7225917000324,80,33,male,True,5846,5854,False,False,expiration,expiration
122,128.0,25,F,up,0.7123500000452623,1.4733778126870478,,psi_staircase,emotion,,114.31656095332008,114.31656095332008,17.126647100532207,587.3224861000199,80,33,male,True,5872,5879,False,False,expiration,expiration
123,127.0,25,F,up,0.973791699972935,1.821772806100132,,psi_staircase,emotion,,113.84372119730708,113.84372119730708,16.640702914709493,590.1890265999828,80,33,male,True,5901,5911,False,False,expiration,expiration
124,125.0,25,M,up,0.8446840000106022,0.9676030088490384,,psi_staircase,emotion,,113.38443955918336,113.38443955918336,16.178231284600955,592.4721338000381,80,33,male,True,5924,5932,False,False,inspiration,inspiration
125,124.0,25,M,up,0.9660107999807224,1.5331836083796129,,psi_staircase,emotion,,112.89983956396273,112.89983956396273,15.733667228476472,595.188891400001,80,33,male,True,5951,5961,False,False,expiration,trough
126,123.0,25,F,up,0.7179818000877276,0.643439903654992,,psi_staircase,emotion,,112.42212131025059,112.42212131025059,15.299838770939648,597.1387955000391,80,33,male,True,5970,5977,False,False,inspiration,expiration
127,122.0,25,F,up,0.7270630999701098,1.7832748139108818,,psi_staircase,emotion,,111.94882319986219,111.94882319986219,14.871979503549476,599.9887173000025,80,33,male,True,5999,6006,False,False,expiration,inspiration
128,121.0,25,F,up,0.8008323999820277,1.004508665163214,,psi_staircase,emotion,,111.47810002396065,111.47810002396065,14.445634915658937,602.0719482999992,80,33,male,True,6020,6028,False,False,expiration,expiration
129,120.0,25,M,up,0.7018640000605956,0.9538735925682976,,psi_staircase,emotion,,111.00867083136292,111.00867083136292,14.016689683562026,604.1718929000199,80,33,male,True,6041,6048,False,False,inspiration,expiration
130,120.0,25,M,up,0.719029700034298,0.5116724906105223,,psi_staircase,emotion,,110.53977834290032,110.53977834290032,13.581451763944983,605.7218018000713,80,33,male,True,6056,6063,False,False,expiration,inspiration
131,119.0,25,M,up,1.2164130000164732,1.3538923172233723,,psi_staircase,emotion,,110.11132243653955,110.11132243653955,13.135638929865921,608.1383881000803,80,33,male,True,6080,6092,False,False,expiration,expiration
132,0.29,25,up,up,0.725262499996461,0.6560850692954406,,psi_staircase,cRDM,,0.25,0.25693124029946324,0.10500000000000002,622.4545769999967,80,33,male,True,6224,6231,False,False,inspiration,expiration
133,0.25,25,up,down,1.1989960999926552,0.3442755744860895,,psi_staircase,cRDM,,0.21910266653183127,0.2260132002683493,0.10468632033873933,623.7878242000006,80,33,male,True,6237,6249,False,False,expiration,inspiration
134,0.36,25,down,down,0.7300894999643788,1.9390337548240908,,psi_staircase,cRDM,,0.3202997408361979,0.3276103223604739,0.1107465658214764,627.1877085000742,80,33,male,True,6271,6278,False,False,expiration,expiration
135,0.33,25,down,down,0.776490299962461,1.4612886310701565,,psi_staircase,cRDM,,0.2990372097977385,0.30641398280716875,0.1117492876491608,629.654305000091,80,33,male,True,6296,6304,False,False,expiration,expiration
136,0.31,25,up,up,0.6179692000150679,1.433685404104623,,psi_staircase,cRDM,,0.2780189805609542,0.28539811096413914,0.1117849993448388,632.120803900063,80,33,male,True,6320,6326,False,False,inspiration,peak
137,0.31,25,down,down,1.1359791000140829,1.058354036665556,,psi_staircase,cRDM,,0.2582073586141265,0.2655339603556145,0.11098925295027023,634.0708076000446,80,33,male,True,6340,6351,False,False,expiration,inspiration
138,0.29,25,up,up,0.6144815000006929,1.7188993018043992,,psi_staircase,cRDM,,0.24138240409280395,0.2485489846939697,0.1085651240775294,637.1873267000774,80,33,male,True,6371,6377,False,False,trough,inspiration
139,0.24,25,down,down,1.132834199932404,0.8287197154896973,,psi_staircase,cRDM,,0.22544905583343344,0.2325152283915249,0.107044062324179,638.9039416000014,80,33,male,True,6388,6399,False,False,expiration,expiration
140,0.24,25,down,down,0.7440890000434592,1.161830648936342,,psi_staircase,cRDM,,0.20474749939231834,0.21227317020784012,0.11400491131305583,641.4536825000541,80,33,male,True,6414,6421,False,False,inspiration,expiration
141,0.23,25,up,up,0.40023860009387136,1.9396396885984184,,psi_staircase,cRDM,,0.18503962375809055,0.1928548615388246,0.11839150448161755,644.4037472000347,80,33,male,True,6443,6447,False,False,inspiration,inspiration
142,0.22,25,down,down,0.5395367000019178,1.3528370772017388,,psi_staircase,cRDM,,0.1668004946365475,0.17476932355743144,0.12071822654274562,646.437258400023,80,33,male,True,6464,6469,False,False,expiration,expiration
143,0.19,25,down,down,0.4784677000716329,1.2445731367958002,,psi_staircase,cRDM,,0.1506096300720314,0.15859812929352204,0.12101620806906235,648.4702842000406,80,33,male,True,6484,6489,False,False,inspiration,expiration
144,0.16,25,down,down,0.4279215000569821,1.1839574712066732,,psi_staircase,cRDM,,0.13550708967370206,0.14343887879110018,0.12015711782367405,650.3868508000161,80,33,male,True,6503,6507,False,False,expiration,inspiration
145,0.14,25,up,up,0.6082418999867514,1.1565013759531175,,psi_staircase,cRDM,,0.12135183675393126,0.1291794776051846,0.118579396164529,652.2365759999957,80,33,male,True,6522,6528,False,False,expiration,expiration
146,0.12,25,up,up,0.5457784000318497,1.6143594485656023,,psi_staircase,cRDM,,0.10841782085335752,0.11608413689484905,0.11613551825911247,654.7200223000254,80,33,male,True,6546,6551,False,False,inspiration,inspiration
147,0.11,25,down,down,0.42882140004076064,0.9353421719971796,,psi_staircase,cRDM,,0.09656252336578557,0.10402854222656988,0.11310125554917765,656.4699533000821,80,33,male,True,6564,6568,False,False,expiration,expiration
148,0.09,25,down,down,0.6177481000777334,1.5777844307339337,,psi_staircase,cRDM,,0.08598252139144512,0.09318074003250017,0.1090444025392264,658.7370702000335,80,33,male,True,6587,6593,False,False,inspiration,expiration
149,0.08,25,up,up,0.6050111999502406,1.9133457563958216,,psi_staircase,cRDM,,0.07621840017247816,0.0831526670422574,0.10504584892017127,661.5197783000767,80,33,male,True,6614,6620,False,False,trough,inspiration
150,0.07,25,up,up,0.9579120000125841,0.3826339400504587,,psi_staircase,cRDM,,0.06741795512677277,0.07404055577496946,0.10032447845077586,662.7528875999851,80,33,male,True,6627,6637,False,False,inspiration,expiration
151,0.06,25,up,up,0.7945234000217171,0.3595572428707638,,psi_staircase,cRDM,,0.059488657923832525,0.06576816032162411,0.09512695034093313,664.3363327999832,80,33,male,True,6643,6651,False,False,expiration,expiration
152,0.06,25,up,up,0.9710584999993443,0.35895307014684724,,psi_staircase,cRDM,,0.052321948035220466,0.058246579388138285,0.08975107847646611,665.7527153000701,80,33,male,True,6657,6667,False,False,inspiration,peak
153,0.05,25,down,down,1.2272220999002457,1.5397315373528413,,psi_staircase,cRDM,,0.046098061189211184,0.051578744217169535,0.08302579236506774,668.5194936000044,80,33,male,True,6684,6696,False,False,expiration,inspiration
154,0.04,25,down,up,0.8964382000267506,1.7222920771650156,,psi_staircase,cRDM,,0.040462440991180175,0.04553246106059634,0.07680473974187871,671.7363569000736,80,33,male,True,6717,6726,False,False,expiration,inspiration
155,0.08,25,down,down,2.057745300000533,0.9953905791060772,,psi_staircase,cRDM,,0.05923826853845687,0.0655851677442225,0.09614793136763664,673.8859814000317,80,33,male,True,6738,6759,False,False,peak,expiration
156,0.08,25,up,up,1.3140500000445172,1.9138948937008984,,psi_staircase,cRDM,,0.0545732897435829,0.06040688699365763,0.08837202070533888,678.119149300037,80,33,male,True,6780,6793,False,False,expiration,expiration
157,0.08,25,up,down,0.994695600005798,0.8744061836083827,,psi_staircase,cRDM,,0.05089251650117362,0.056194715281892564,0.08032196950646779,680.569071700098,80,33,male,True,6805,6815,False,False,inspiration,expiration
158,0.1,25,down,down,1.2837828999618068,0.5764297056351793,,psi_staircase,cRDM,,0.06905689409843077,0.0777364638501532,0.13148510000460198,682.4189859000035,80,33,male,True,6823,6836,False,False,expiration,inspiration
159,0.1,25,down,down,0.8291991000296548,1.1149731360759274,,psi_staircase,cRDM,,0.06404749040899596,0.07244336244494268,0.1271874189447264,685.0855739000252,80,33,male,True,6850,6858,False,False,expiration,expiration
160,0.1,25,up,up,1.4909681000281123,1.4486896903577768,,psi_staircase,cRDM,,0.05981844502548859,0.06788476632087911,0.12219511940476105,687.6187998000532,80,33,male,True,6875,6890,False,False,inspiration,expiration
161,0.1,25,up,up,0.8470447000581771,0.4391250448051096,,psi_staircase,cRDM,,0.056292271367090224,0.06399189778593696,0.11664013063311518,689.8187411000254,80,33,male,True,6897,6905,False,False,trough,inspiration
162,0.07,25,down,up,0.8684808999532834,1.5089239967150023,,psi_staircase,cRDM,,0.05339542928934399,0.06069957765323046,0.11064911113635308,692.4352952000917,80,33,male,True,6924,6933,False,False,expiration,inspiration
163,0.11,25,up,up,0.7249363999580964,1.4221054869754026,,psi_staircase,cRDM,,0.06615530576464604,0.07429479936152611,0.12330359225008955,695.0018654000014,80,33,male,True,6949,6956,False,False,expiration,expiration
164,0.11,25,down,up,0.8759746999712661,0.8161673984148812,,psi_staircase,cRDM,,0.06327470031358326,0.07105497070639638,0.11786179037951384,696.8018084000796,80,33,male,True,6967,6976,False,False,inspiration,inspiration
165,0.13,25,up,up,1.3590388000011444,1.5449923652303017,,psi_staircase,cRDM,,0.07530145274222741,0.08511289347606864,0.14863159153969968,699.5017091000917,80,33,male,True,6994,7008,False,False,expiration,expiration
166,0.13,25,down,down,1.118889300036244,1.2631526439269574,,psi_staircase,cRDM,,0.07115298958823463,0.08081500321659961,0.1463679496232274,702.384914400056,80,33,male,True,7023,7034,False,False,inspiration,expiration
167,0.13,25,up,up,0.8811848999466747,1.2811587898296897,,psi_staircase,cRDM,,0.06751804135791246,0.07701087704042266,0.14380510609922964,705.0346128999954,80,33,male,True,7050,7059,False,False,inspiration,inspiration
168,0.12,25,down,up,0.6959802000783384,0.40948004700295815,,psi_staircase,cRDM,,0.06434133137650698,0.07364722980948697,0.1409732303666581,706.5847813000438,80,33,male,True,7065,7072,False,False,inspiration,expiration
169,0.18,25,up,down,0.5017231999663636,1.222745766002206,,psi_staircase,cRDM,,0.07772746728267074,0.08794523711708621,0.15478699139845215,708.7680718000047,80,33,male,True,7087,7092,False,False,expiration,expiration
170,0.21,25,up,up,0.788170599960722,1.2567600911615808,,psi_staircase,cRDM,,0.09678254971324564,0.10771904151315098,0.16567476950394922,710.7846105000935,80,33,male,True,7107,7115,False,False,expiration,expiration
171,0.21,25,down,up,0.7892333000199869,0.7315802017576567,,psi_staircase,cRDM,,0.09280506858785513,0.10365935992705913,0.16442953084524795,712.5845541000598,80,33,male,True,7125,7133,False,False,inspiration,inspiration
172,0.23,25,down,up,0.8516440000385046,0.5704824796631287,,psi_staircase,cRDM,,0.11472492900959998,0.1261278809519955,0.1727410827242923,714.2011591000482,80,33,male,True,7141,7150,False,False,peak,expiration
173,0.23,25,down,up,0.6809722000034526,0.8565089672020978,,psi_staircase,cRDM,,0.14138190556951566,0.15308163573466005,0.1772369178190655,716.1677855000598,80,33,male,True,7161,7168,False,False,expiration,expiration
174,0.24,25,up,up,0.5604310999624431,0.4177429734782788,,psi_staircase,cRDM,,0.17208379418695086,0.1836992575299953,0.17596037625677374,717.5343538000017,80,33,male,True,7174,7180,False,False,inspiration,inspiration
175,0.23,25,up,up,0.4854747001081705,0.5709254601755949,,psi_staircase,cRDM,,0.16339830613891246,0.17513123191198735,0.17773979157356112,718.9343215000117,80,33,male,True,7188,7193,False,False,expiration,expiration
176,0.23,25,down,up,0.856518599903211,0.4342861591668258,,psi_staircase,cRDM,,0.1555293333233758,0.1673442846162591,0.17898238008698328,720.1342518000165,80,33,male,True,7200,7209,False,False,expiration,inspiration
177,0.24,25,down,up,0.8381972999777645,1.2159908138455175,,psi_staircase,cRDM,,0.18460839618923608,0.19623985233263166,0.17620264805292005,722.4675632000435,80,33,male,True,7224,7232,False,False,inspiration,inspiration
178,0.24,25,down,down,1.1251755999401212,0.5698888163469161,,psi_staircase,cRDM,,0.21571660863404465,0.22687334042834376,0.16901114198740455,724.1506232999964,80,33,male,True,7241,7252,False,False,inspiration,expiration
179,0.24,25,up,up,1.2090442000189796,0.5642556891090964,,psi_staircase,cRDM,,0.20554064767783986,0.2169862811252916,0.17338765647405124,726.1007420000387,80,33,male,True,7260,7272,False,False,expiration,inspiration
180,0.23,25,up,up,0.7558604000369087,1.6747825243937635,,psi_staircase,cRDM,,0.19630283665077053,0.20795407128867452,0.17650226858743562,729.2508809000718,80,33,male,True,7292,7300,False,False,expiration,expiration
181,0.23,25,up,up,0.6949142999947071,1.8607536977598045,,psi_staircase,cRDM,,0.1877428753243056,0.19955751774710234,0.17897770107461522,732.1338193999836,80,33,male,True,7320,7327,False,False,expiration,trough
182,114.0,25,F,down,1.5163306000176815,1.6407052116548788,,experiment,emotion,0.0,,,,742.5334313000784,80,33,male,True,7424,7439,False,False,expiration,inspiration
183,104.0,25,M,up,0.7869295000564307,0.7294233824168441,,experiment,emotion,0.0,,,,745.0498301000334,80,33,male,True,7450,7458,False,False,inspiration,expiration
184,111.0,25,F,,,1.322261783773491,,experiment,emotion,0.0,,,,747.4332541000331,80,33,male,True,7473,0,False,False,expiration,0
185,114.0,25,M,up,1.1092812999850141,0.9585845261998328,,experiment,emotion,0.0,,,,751.0664860000833,80,33,male,True,7510,7521,False,False,inspiration,expiration
186,111.0,25,F,down,1.0520969000644982,1.6536601207031325,,experiment,emotion,0.0,,,,754.099684100016,80,33,male,True,7540,7551,False,False,inspiration,expiration
187,108.0,25,F,down,1.1554656999651345,1.771327966696014,,experiment,emotion,0.0,,,,757.2162719999907,80,33,male,True,7571,7583,False,False,inspiration,expiration
188,104.0,25,M,down,0.9146285000024365,1.3809133994687408,,experiment,emotion,0.0,,,,760.016137800063,80,33,male,True,7599,7608,False,False,expiration,inspiration
189,108.0,25,F,down,1.2363189000170678,1.1054289382366909,,experiment,emotion,0.0,,,,762.2994116999907,80,33,male,True,7622,7634,False,False,expiration,expiration
190,114.0,25,M,down,1.0079489999916404,1.7107369516102862,,experiment,emotion,0.0,,,,765.5328634000616,80,33,male,True,7655,7665,False,False,peak,expiration
191,108.0,25,M,down,0.9676062000216916,1.818607134898256,,experiment,emotion,0.0,,,,768.6491684000938,80,33,male,True,7686,7696,False,False,inspiration,expiration
192,111.0,25,F,down,1.5920292000519112,1.1651903073659031,,experiment,emotion,0.0,,,,771.0657336000586,80,33,male,True,7710,7726,False,False,inspiration,expiration
193,114.0,25,M,down,0.9175239000469446,1.7758866593731275,,experiment,emotion,0.0,,,,774.8322592000478,80,33,male,True,7748,7757,False,False,inspiration,expiration
194,111.0,25,M,down,1.1109988000243902,1.9796228995603111,,experiment,emotion,0.0,,,,777.9988057999872,80,33,male,True,7779,7790,False,False,inspiration,expiration
195,104.0,25,M,down,0.74267740000505,0.7843204741579286,,experiment,emotion,0.0,,,,780.1820744000142,80,33,male,True,7801,7808,False,False,expiration,inspiration
196,108.0,25,F,down,0.7620681999251246,0.4863571809326112,,experiment,emotion,0.0,,,,781.6986761000007,80,33,male,True,7816,7824,False,False,inspiration,expiration
197,104.0,25,F,down,0.7210458000190556,0.6876554075625017,,experiment,emotion,0.0,,,,783.4319375000197,80,33,male,True,7833,7840,False,False,expiration,inspiration
198,114.0,25,M,up,0.8608748000115156,1.1016662916208204,,experiment,emotion,0.0,,,,785.5318592000986,80,33,male,True,7854,7863,False,False,expiration,expiration
199,104.0,25,M,down,1.0653822999447584,1.2467476945496525,,experiment,emotion,0.0,,,,787.8984545000129,80,33,male,True,7878,7889,False,False,inspiration,expiration
200,111.0,25,F,up,1.022066699923016,1.5041674633841122,,experiment,emotion,0.0,,,,790.7316843000008,80,33,male,True,7906,7916,False,False,inspiration,expiration
201,111.0,25,F,up,0.6402164000319317,0.40725708229373997,,experiment,emotion,0.0,,,,792.4316097000847,80,33,male,True,7923,7929,False,False,expiration,expiration
202,108.0,25,M,up,0.4625978999538347,1.0585231406616202,,experiment,emotion,0.0,,,,794.3982099000133,80,33,male,True,7943,7948,False,False,inspiration,peak
203,108.0,25,F,up,0.4422737000277266,0.7996616656241983,,experiment,emotion,0.0,,,,795.9314809000352,80,33,male,True,7958,7962,False,False,expiration,expiration
204,104.0,25,M,up,0.6463615000247955,1.5374349169654569,,experiment,emotion,0.0,,,,798.1814192000311,80,33,male,True,7981,7987,False,False,expiration,expiration
205,114.0,25,F,up,0.480446600005962,1.143149327550257,,experiment,emotion,0.0,,,,800.2482719999971,80,33,male,True,8002,8007,False,False,inspiration,inspiration
206,111.0,25,F,up,0.8435369000071659,1.4645886954424334,,experiment,emotion,0.0,,,,802.4812391999876,80,33,male,True,8024,8032,False,False,expiration,expiration
207,104.0,25,M,down,1.1952859000302851,1.7624189409249726,,experiment,emotion,0.0,,,,805.3644849000266,80,33,male,True,8053,8065,False,False,expiration,expiration
208,114.0,25,M,down,0.9083655999274924,0.6829426111124988,,experiment,emotion,0.0,,,,807.5143841000972,80,33,male,True,8074,8083,False,False,inspiration,expiration
209,114.0,25,F,down,1.1147839999757707,1.6726291543462248,,experiment,emotion,0.0,,,,810.3809721000724,80,33,male,True,8103,8114,False,False,inspiration,peak
210,108.0,25,M,down,0.9315799999749288,1.6352118362181267,,experiment,emotion,0.0,,,,813.4141538999976,80,33,male,True,8133,8142,False,False,expiration,inspiration
211,104.0,25,F,down,0.5933626000769436,0.8924847866096397,,experiment,emotion,0.0,,,,815.4974370000418,80,33,male,True,8154,8160,False,False,expiration,expiration
212,108.0,25,M,down,0.6547269000438973,0.9593209192114304,,experiment,emotion,0.0,,,,817.314018300036,80,33,male,True,8172,8179,False,False,inspiration,inspiration
213,111.0,25,F,up,1.337429599952884,0.7545196512156975,,experiment,emotion,0.0,,,,818.9973371000959,80,33,male,True,8189,8202,False,False,expiration,expiration
214,104.0,25,M,down,0.7578385000815615,1.0593739737309944,,experiment,emotion,0.0,,,,821.6638980000281,80,33,male,True,8216,8224,False,False,inspiration,expiration
215,114.0,25,F,up,0.9275870999554172,1.2337038866899308,,experiment,emotion,0.0,,,,823.9471432000863,80,33,male,True,8239,8248,False,False,inspiration,inspiration
216,111.0,25,M,up,1.1987784000812098,1.3686251045342035,,experiment,emotion,0.0,,,,826.4970232000342,80,33,male,True,8264,8276,False,False,expiration,inspiration
217,114.0,25,F,up,1.8284476000117136,1.1147912586529036,,experiment,emotion,0.0,,,,829.0802880000557,80,33,male,True,8290,8308,False,False,expiration,expiration
218,104.0,25,M,up,1.0972449000691995,0.4846215747885593,,experiment,emotion,0.0,,,,831.6635017000373,80,33,male,True,8316,8327,False,False,inspiration,expiration
219,111.0,25,F,up,0.7893018999602646,0.7308660636429065,,experiment,emotion,0.0,,,,833.7634364999831,80,33,male,True,8337,8345,False,False,expiration,inspiration
220,108.0,25,M,up,1.018983400077559,1.5904438930811793,,experiment,emotion,0.0,,,,836.4297705000499,80,33,male,True,8364,8374,False,False,expiration,trough
221,108.0,25,F,up,0.906472000060603,1.2439161052803291,,experiment,emotion,0.0,,,,838.9632538000587,80,33,male,True,8389,8398,False,False,expiration,expiration
222,111.0,25,F,up,0.73892540007364,0.8985288472208808,,experiment,emotion,0.0,,,,841.0298171000322,80,33,male,True,8410,8417,False,False,inspiration,expiration
223,114.0,25,M,up,0.6892985999584198,0.7477757627631372,,experiment,emotion,0.0,,,,842.7964581000851,80,33,male,True,8427,8434,False,False,expiration,trough
224,108.0,25,F,up,0.7791630000574514,1.7969843418828335,,experiment,emotion,0.0,,,,845.5465872000204,80,33,male,True,8455,8463,False,False,expiration,expiration
225,104.0,25,M,up,0.8114306000061333,0.541580825224726,,experiment,emotion,0.0,,,,847.1462797999848,80,33,male,True,8471,8479,False,False,inspiration,inspiration
226,104.0,25,M,down,0.9518924999283628,0.5410908638888525,,experiment,emotion,0.0,,,,848.7628569999943,80,33,male,True,8487,8497,False,False,expiration,expiration
227,108.0,25,F,up,0.7869751999387518,1.2794684935625498,,experiment,emotion,0.0,,,,851.2628108999925,80,33,male,True,8512,8520,False,False,inspiration,expiration
228,114.0,25,F,up,1.2691027000546455,1.931623100095648,,experiment,emotion,0.0,,,,854.262666100054,80,33,male,True,8542,8555,False,False,inspiration,expiration
229,111.0,25,M,up,0.8148730000248179,1.5964712386956388,,experiment,emotion,0.0,,,,857.3958932000678,80,33,male,True,8573,8581,False,False,inspiration,inspiration
230,104.0,25,F,up,0.8216484000440687,1.843987683541382,,experiment,emotion,0.0,,,,860.3290919000282,80,33,male,True,8602,8610,False,False,expiration,expiration
231,114.0,25,M,up,0.476054499973543,0.3640302889736681,,experiment,emotion,0.0,,,,861.7957456000148,80,33,male,True,8617,8622,False,False,inspiration,inspiration
232,111.0,25,M,up,0.4964624000713229,1.4725239358897668,,experiment,emotion,0.0,,,,864.0122824000427,80,33,male,True,8639,8644,False,False,expiration,expiration
233,111.0,25,M,up,0.6414175999816507,1.7698096373241594,,experiment,emotion,0.0,,,,866.5453267000847,80,33,male,True,8665,8671,False,False,peak,expiration
234,104.0,25,M,up,0.6399363999953493,1.0179235304067633,,experiment,emotion,0.0,,,,868.4788011000493,80,33,male,True,8684,8690,False,False,expiration,expiration
235,108.0,25,M,up,0.946670199977234,0.3704186170693549,,experiment,emotion,0.0,,,,869.7621253000107,80,33,male,True,8697,8706,False,False,inspiration,peak
236,114.0,25,F,up,0.6740482000168413,0.4594100388166447,,experiment,emotion,0.0,,,,871.4286910000957,80,33,male,True,8713,8720,False,False,expiration,expiration
237,108.0,25,F,up,0.7344141999492422,1.2037763412280649,,experiment,emotion,0.0,,,,873.5953042000765,80,33,male,True,8735,8742,False,False,inspiration,expiration
238,108.0,25,F,up,1.2712122000521051,1.2443027872553645,,experiment,emotion,0.0,,,,875.8285285000456,80,33,male,True,8757,8770,False,False,inspiration,expiration
239,108.0,25,M,up,0.7513052999274805,0.4756704787052141,,experiment,emotion,0.0,,,,877.8284746999852,80,33,male,True,8777,8785,False,False,expiration,trough
240,114.0,25,F,up,0.8457023999653757,1.4628723909292678,,experiment,emotion,0.0,,,,880.2950184000656,80,33,male,True,8802,8810,False,False,expiration,expiration
241,111.0,25,F,up,0.677438999991864,1.4717645163045228,,experiment,emotion,0.0,,,,882.8783040000127,80,33,male,True,8828,8835,False,False,inspiration,expiration
242,104.0,25,F,up,0.7285478999838233,0.9812637696318978,,experiment,emotion,0.0,,,,884.828193100053,80,33,male,True,8847,8854,False,False,trough,inspiration
243,104.0,25,M,down,1.1891258000396192,1.1169805398543569,,experiment,emotion,0.0,,,,886.9446149000432,80,33,male,True,8869,8881,False,False,expiration,expiration
244,111.0,25,F,up,0.6010587000055239,0.6986016997113598,,experiment,emotion,0.0,,,,889.0947135000024,80,33,male,True,8890,8896,False,False,expiration,expiration
245,114.0,25,M,up,0.6044481000863016,1.2923573071283725,,experiment,emotion,0.0,,,,891.2613158000167,80,33,male,True,8912,8918,False,False,inspiration,expiration
246,114.0,25,M,up,0.771466700010933,0.3337288338024619,,experiment,emotion,0.0,,,,892.4612545000855,80,33,male,True,8924,8932,False,False,expiration,inspiration
247,104.0,25,F,up,0.3834828000981361,0.7549329281931974,,experiment,emotion,0.0,,,,894.2612243000185,80,33,male,True,8942,8946,False,False,expiration,expiration
248,114.0,25,M,up,0.4496427999110893,1.5729585400153696,,experiment,emotion,0.0,,,,896.5111001000041,80,33,male,True,8964,8968,False,False,trough,inspiration
249,108.0,25,F,up,0.6002966999076307,0.5865499332609786,,experiment,emotion,0.0,,,,897.8274668999948,80,33,male,True,8978,8984,False,False,expiration,expiration
250,111.0,25,M,up,0.5551247000694275,1.2664417234424836,,experiment,emotion,0.0,,,,899.9776250000576,80,33,male,True,8999,9005,False,False,expiration,expiration
251,108.0,25,F,up,0.4901988999918103,0.9923093405715476,,experiment,emotion,0.0,,,,901.7775943999876,80,33,male,True,9017,9022,False,False,inspiration,expiration
252,104.0,25,M,up,0.4429093999788165,1.2689142340484365,,experiment,emotion,0.0,,,,903.8108251000522,80,33,male,True,9037,9041,False,False,expiration,expiration
253,111.0,25,F,up,0.45491289999336,0.3997853676351399,,experiment,emotion,0.0,,,,904.9108046999901,80,33,male,True,9048,9053,False,False,expiration,trough
254,108.0,25,F,up,0.4709851000225171,1.013529479803155,,experiment,emotion,0.0,,,,906.6607769000113,80,33,male,True,9066,9071,False,False,peak,expiration
255,111.0,25,F,up,0.5427392999408767,1.4859639247292775,,experiment,emotion,0.0,,,,908.8939878999954,80,33,male,True,9088,9093,False,False,expiration,inspiration
256,104.0,25,F,up,0.4508073999313638,0.7056981173182221,,experiment,emotion,0.0,,,,910.3939124000026,80,33,male,True,9103,9108,False,False,inspiration,inspiration
257,114.0,25,F,up,0.4202456999337301,1.0421250595657103,,experiment,emotion,0.0,,,,912.1605428000912,80,33,male,True,9121,9125,False,False,expiration,expiration
258,111.0,25,M,up,0.5932908999966457,1.7560501469851777,,experiment,emotion,0.0,,,,914.6104185000296,80,33,male,True,9145,9151,False,False,inspiration,expiration
259,114.0,25,M,up,0.8610159999225289,1.3747882546761383,,experiment,emotion,0.0,,,,916.8437347,80,33,male,True,9168,9177,False,False,inspiration,inspiration
260,104.0,25,M,up,1.0524233999894932,1.2804871558373565,,experiment,emotion,0.0,,,,919.2602915000169,80,33,male,True,9192,9203,False,False,expiration,inspiration
261,108.0,25,M,up,0.4965371999423951,0.7290218101315892,,experiment,emotion,0.0,,,,921.3102021000814,80,33,male,True,9212,9217,False,False,inspiration,expiration
262,0.1799857856291465,25,up,up,0.6775571999605745,1.980133105493008,,experiment,cRDM,0.0,,,,949.5592072000728,80,33,male,True,9495,9502,False,False,peak,inspiration
263,0.1799857856291465,25,up,up,0.576353200012818,1.0876702547941972,,experiment,cRDM,0.0,,,,951.5923626000294,80,33,male,True,9515,9521,False,False,expiration,trough
264,0.1799857856291465,25,down,down,0.6717564999125898,1.6689632107453238,,experiment,cRDM,0.0,,,,954.1089904000984,80,33,male,True,9540,9547,False,False,expiration,expiration
265,0.1799857856291465,25,down,down,0.6421389000024647,0.6831060006229088,,experiment,cRDM,0.0,,,,955.725597199984,80,33,male,True,9556,9562,False,False,inspiration,inspiration
266,0.1799857856291465,25,up,up,0.6614842999260873,1.3185532833477394,,experiment,cRDM,0.0,,,,957.9422357000876,80,33,male,True,9579,9586,False,False,expiration,inspiration
267,0.1799857856291465,25,down,down,0.8549904999090359,0.9852895526457754,,experiment,cRDM,0.0,,,,959.8587783999974,80,33,male,True,9598,9607,False,False,expiration,expiration
268,0.1799857856291465,25,up,up,0.9369902999605983,0.4880462168335044,,experiment,cRDM,0.0,,,,961.4587355999976,80,33,male,True,9614,9623,False,False,expiration,expiration
269,0.1799857856291465,25,up,up,0.717092200065963,0.9481215405709128,,experiment,cRDM,0.0,,,,963.608627700014,80,33,male,True,9635,9642,False,False,inspiration,expiration
270,0.1799857856291465,25,down,down,0.8154694000259042,0.7747634072530832,,experiment,cRDM,0.0,,,,965.3752545000752,80,33,male,True,9653,9661,False,False,expiration,expiration
271,0.1799857856291465,25,down,down,0.8241881000576541,0.3504589569677884,,experiment,cRDM,0.0,,,,966.8085159000476,80,33,male,True,9667,9675,False,False,inspiration,inspiration
272,0.1799857856291465,25,down,down,0.5746246000053361,1.8672480904909816,,experiment,cRDM,0.0,,,,969.7750830000732,80,33,male,True,9697,9703,False,False,expiration,expiration
273,0.1799857856291465,25,down,down,0.8060471001081169,0.3842550173614915,,experiment,cRDM,0.0,,,,970.9917003000155,80,33,male,True,9709,9717,False,False,inspiration,inspiration
274,0.1799857856291465,25,down,down,0.6908400999382138,1.1667274630208992,,experiment,cRDM,0.0,,,,973.2248478000985,80,33,male,True,9732,9739,False,False,expiration,expiration
275,0.1799857856291465,25,down,down,0.8705174999777228,0.9872088499878108,,experiment,cRDM,0.0,,,,975.1582140000536,80,33,male,True,9751,9760,False,False,inspiration,expiration
276,0.1799857856291465,25,up,down,0.994599899975583,1.1735244232393496,,experiment,cRDM,0.0,,,,977.4581236999948,80,33,male,True,9774,9784,False,False,inspiration,inspiration
277,0.1799857856291465,25,up,up,0.5856471000006422,0.3418859216172751,,experiment,cRDM,0.0,,,,979.0580795999847,80,33,male,True,9790,9796,False,False,expiration,expiration
278,0.1799857856291465,25,up,up,0.4893769000191242,0.6404412244140592,,experiment,cRDM,0.0,,,,980.5413693999872,80,33,male,True,9805,9810,False,False,inspiration,inspiration
279,0.1799857856291465,25,up,up,1.1373288000468165,0.7248900145853262,,experiment,cRDM,0.0,,,,982.0243964000838,80,33,male,True,9820,9831,False,False,expiration,expiration
280,0.1799857856291465,25,down,down,0.638497699983418,1.9110836854691036,,experiment,cRDM,0.0,,,,985.341210899991,80,33,male,True,9853,9859,False,False,expiration,expiration
281,0.1799857856291465,25,up,up,0.8176253000274301,1.4435504590643111,,experiment,cRDM,0.0,,,,987.6911108000204,80,33,male,True,9876,9884,False,False,inspiration,inspiration
282,0.1799857856291465,25,up,up,0.4730425000889227,0.7438198383746989,,experiment,cRDM,0.0,,,,989.5076776000204,80,33,male,True,9894,9899,False,False,expiration,expiration
283,0.1799857856291465,25,down,down,0.5437198999570683,0.9774360897485384,,experiment,cRDM,0.0,,,,991.2240189000732,80,33,male,True,9912,9917,False,False,inspiration,inspiration
284,0.1799857856291465,25,up,up,0.8559011999750509,1.4658636868009427,,experiment,cRDM,0.0,,,,993.4908709999872,80,33,male,True,9934,9943,False,False,expiration,expiration
285,0.1799857856291465,25,down,down,0.5352102000033483,0.6038010992962448,,experiment,cRDM,0.0,,,,995.2074826000024,80,33,male,True,9951,9956,False,False,inspiration,inspiration
286,0.1799857856291465,25,down,down,0.7580163000384346,1.886477341510061,,experiment,cRDM,0.0,,,,997.8907075000459,80,33,male,True,9978,9986,False,False,expiration,inspiration
287,0.1799857856291465,25,up,up,0.5999346999451518,0.5087328340606564,,experiment,cRDM,0.0,,,,999.4237837000984,80,33,male,True,9994,10000,False,False,inspiration,expiration
288,0.1799857856291465,25,up,up,0.7555283999536186,1.8255726634497342,,experiment,cRDM,0.0,,,,1002.1072118000592,80,33,male,True,10020,10028,False,False,trough,inspiration
289,0.1799857856291465,25,down,down,0.5845350000308827,0.32970491411323866,,experiment,cRDM,0.0,,,,1003.4571842000587,80,33,male,True,10034,10040,False,False,inspiration,expiration
290,0.1799857856291465,25,up,up,0.546629499993287,0.888947318052588,,experiment,cRDM,0.0,,,,1005.2070910000476,80,33,male,True,10051,10056,False,False,expiration,inspiration
291,0.1799857856291465,25,down,down,0.5376452999189496,0.7980250422519926,,experiment,cRDM,0.0,,,,1006.8070545000957,80,33,male,True,10067,10072,False,False,inspiration,expiration
292,0.1799857856291465,25,down,up,0.841733800014481,0.5470281989819156,,experiment,cRDM,0.0,,,,1008.1570242000743,80,33,male,True,10081,10089,False,False,expiration,trough
293,0.1799857856291465,25,down,up,1.1008003000169992,0.645478961526348,,experiment,cRDM,0.0,,,,1009.9069365999893,80,33,male,True,10098,10109,False,False,inspiration,expiration
294,0.1799857856291465,25,up,up,0.8595997000811622,1.0368971204767632,,experiment,cRDM,0.0,,,,1012.290185400052,80,33,male,True,10122,10131,False,False,expiration,inspiration
295,0.1799857856291465,25,up,up,0.6309493000153452,0.9372810377278094,,experiment,cRDM,0.0,,,,1014.356792400009,80,33,male,True,10143,10149,False,False,expiration,expiration
296,0.1799857856291465,25,up,up,0.5846902999328449,0.7283487079642842,,experiment,cRDM,0.0,,,,1015.9900610999904,80,33,male,True,10159,10165,False,False,inspiration,inspiration
297,0.1799857856291465,25,down,down,0.6178321000188589,1.953670853340432,,experiment,cRDM,0.0,,,,1018.7899418000599,80,33,male,True,10187,10193,False,False,expiration,expiration
298,0.1799857856291465,25,down,down,0.40031830000225455,1.817073050451951,,experiment,cRDM,0.0,,,,1021.4731770000653,80,33,male,True,10214,10218,False,False,expiration,expiration
299,0.1799857856291465,25,up,up,0.6395953000755981,0.42008698023294905,,experiment,cRDM,0.0,,,,1022.5731442000251,80,33,male,True,10225,10231,False,False,expiration,inspiration
300,0.1799857856291465,25,down,up,1.6043616000097245,1.830666472093907,,experiment,cRDM,0.0,,,,1025.306355000008,80,33,male,True,10252,10268,False,False,expiration,inspiration
301,0.1799857856291465,25,up,up,0.6477946999948472,0.44915684765072705,,experiment,cRDM,0.0,,,,1027.62292600004,80,33,male,True,10275,10281,False,False,inspiration,expiration
302,0.1799857856291465,25,up,up,0.5241563000017777,1.2607636939970892,,experiment,cRDM,0.0,,,,1029.789549499983,80,33,male,True,10297,10302,False,False,expiration,inspiration
303,0.1799857856291465,25,up,up,0.4002707999898121,1.0315426956674183,,experiment,cRDM,0.0,,,,1031.6061326999916,80,33,male,True,10315,10319,False,False,expiration,expiration
304,0.1799857856291465,25,down,up,0.5370136999990791,1.9437449863467675,,experiment,cRDM,0.0,,,,1034.2226907000877,80,33,male,True,10341,10346,False,False,inspiration,inspiration
305,0.1799857856291465,25,down,up,0.9947216999717056,1.3480826014196303,,experiment,cRDM,0.0,,,,1036.3559889000608,80,33,male,True,10363,10373,False,False,expiration,inspiration
306,0.1799857856291465,25,up,up,0.6377369998954237,0.7475061431227459,,experiment,cRDM,0.0,,,,1038.3559215000132,80,33,male,True,10383,10389,False,False,expiration,expiration
307,0.1799857856291465,25,down,down,0.5562779000028968,1.9233445449481532,,experiment,cRDM,0.0,,,,1041.1724517000841,80,33,male,True,10411,10417,False,False,inspiration,peak
308,0.1799857856291465,25,down,up,1.0506099999183791,0.4374489758054539,,experiment,cRDM,0.0,,,,1042.4391066000098,80,33,male,True,10424,10435,False,False,expiration,expiration
309,0.1799857856291465,25,up,up,0.6276942999102175,0.3426430220868035,,experiment,cRDM,0.0,,,,1044.0890251999954,80,33,male,True,10440,10446,False,False,inspiration,inspiration
310,0.1799857856291465,25,up,up,0.5537591000320389,0.912065536901101,,experiment,cRDM,0.0,,,,1045.8889367000668,80,33,male,True,10458,10464,False,False,expiration,expiration
311,0.1799857856291465,25,down,down,0.6867401999188587,1.718712475646062,,experiment,cRDM,0.0,,,,1048.4219809999922,80,33,male,True,10484,10491,False,False,expiration,expiration
312,0.1799857856291465,25,up,up,0.5535995999816805,0.5990887563038381,,experiment,cRDM,0.0,,,,1049.9721361000556,80,33,male,True,10499,10505,False,False,expiration,inspiration
313,0.1799857856291465,25,down,down,0.6896320999367163,0.5744254889333226,,experiment,cRDM,0.0,,,,1051.3720769000936,80,33,male,True,10513,10520,False,False,inspiration,expiration
314,0.1799857856291465,25,down,down,0.541368699981831,0.788177125309869,,experiment,cRDM,0.0,,,,1053.1053398000076,80,33,male,True,10530,10535,False,False,expiration,expiration
315,0.1799857856291465,25,down,down,0.5781023000599816,0.9335133571394982,,experiment,cRDM,0.0,,,,1054.8386484000366,80,33,male,True,10548,10554,False,False,inspiration,expiration
316,0.1799857856291465,25,up,up,0.504164099926129,0.7953717195937794,,experiment,cRDM,0.0,,,,1056.488544800086,80,33,male,True,10564,10569,False,False,expiration,expiration
317,0.1799857856291465,25,up,up,0.3670849999180064,1.891853571217336,,experiment,cRDM,0.0,,,,1059.1385126000966,80,33,male,True,10591,10595,False,False,expiration,expiration
318,0.1799857856291465,25,down,up,0.469961000024341,0.4638197327956618,,experiment,cRDM,0.0,,,,1060.271750700078,80,33,male,True,10602,10607,False,False,expiration,inspiration
319,0.1799857856291465,25,down,down,0.6476677999598905,0.8413729240410026,,experiment,cRDM,0.0,,,,1061.8550408000592,80,33,male,True,10618,10624,False,False,inspiration,expiration
320,0.1799857856291465,25,up,up,0.7512073999969289,0.8429669433878244,,experiment,cRDM,0.0,,,,1063.6214979999934,80,33,male,True,10636,10644,False,False,expiration,inspiration
321,0.1799857856291465,25,up,up,0.7361593999667093,1.6343216715923854,,experiment,cRDM,0.0,,,,1066.2715521000791,80,33,male,True,10662,10669,False,False,expiration,expiration
322,0.1799857856291465,25,up,up,0.8999484999803826,1.1961773208618436,,experiment,cRDM,0.0,,,,1068.4547810000367,80,33,male,True,10684,10693,False,False,inspiration,expiration
323,0.1799857856291465,25,up,up,0.5364031000062823,1.9611598105990435,,experiment,cRDM,0.0,,,,1071.5713354999898,80,33,male,True,10715,10720,False,False,inspiration,inspiration
324,0.1799857856291465,25,up,up,0.5141800999408588,1.6257336139145055,,experiment,cRDM,0.0,,,,1074.004569199984,80,33,male,True,10739,10744,False,False,expiration,expiration
325,0.1799857856291465,25,down,down,0.8071875000605359,0.9280878373851924,,experiment,cRDM,0.0,,,,1075.704520600033,80,33,male,True,10756,10764,False,False,inspiration,expiration
326,0.1799857856291465,25,down,down,0.868298799963668,1.3743261044836752,,experiment,cRDM,0.0,,,,1078.1544318000088,80,33,male,True,10781,10790,False,False,trough,inspiration
327,0.1799857856291465,25,up,up,0.5313589000143111,0.3803380288427263,,experiment,cRDM,0.0,,,,1079.6543801000807,80,33,male,True,10796,10801,False,False,expiration,expiration
328,0.1799857856291465,25,down,down,0.4807835000101477,0.5166139209020261,,experiment,cRDM,0.0,,,,1080.9709513999987,80,33,male,True,10809,10814,False,False,expiration,expiration
329,0.1799857856291465,25,down,up,0.7084596999920905,0.6876244883001159,,experiment,cRDM,0.0,,,,1082.4042547000572,80,33,male,True,10823,10830,False,False,inspiration,peak
330,0.1799857856291465,25,down,down,0.33381380001083016,1.5785110696853697,,experiment,cRDM,0.0,,,,1084.9541770000942,80,33,male,True,10849,10852,False,False,expiration,expiration
331,0.1799857856291465,25,up,up,0.6319259000010788,1.6497371040780109,,experiment,cRDM,0.0,,,,1087.2707889000883,80,33,male,True,10872,10878,False,False,expiration,expiration
332,0.1799857856291465,25,down,down,0.8203160999109969,0.7724302438904478,,experiment,cRDM,0.0,,,,1088.9373780000024,80,33,male,True,10889,10897,False,False,inspiration,inspiration
333,0.1799857856291465,25,down,up,0.9622892000479624,1.3843211314460242,,experiment,cRDM,0.0,,,,1091.4203968000363,80,33,male,True,10914,10924,False,False,expiration,expiration
334,0.1799857856291465,25,down,down,0.5444275999907404,1.1540962150324394,,experiment,cRDM,0.0,,,,1093.7871927000817,80,33,male,True,10937,10942,False,False,inspiration,expiration
335,0.1799857856291465,25,up,up,0.730927599943243,1.9647131462520415,,experiment,cRDM,0.0,,,,1096.5537375999847,80,33,male,True,10965,10972,False,False,expiration,inspiration
336,0.1799857856291465,25,up,up,0.6327259999234229,1.7264992436713882,,experiment,cRDM,0.0,,,,1099.2869811999844,80,33,male,True,10992,10998,False,False,expiration,expiration
337,0.1799857856291465,25,down,down,0.7891398000065237,1.8320568727527624,,experiment,cRDM,0.0,,,,1102.0035665000323,80,33,male,True,11019,11027,False,False,inspiration,expiration
338,0.1799857856291465,25,up,up,0.6528860999969766,1.5832405175571795,,experiment,cRDM,0.0,,,,1104.6368149000916,80,33,male,True,11046,11053,False,False,trough,inspiration
339,0.1799857856291465,25,down,up,0.8952645000535995,1.004405146872084,,experiment,cRDM,0.0,,,,1106.5534100000514,80,33,male,True,11065,11074,False,False,expiration,expiration
340,0.1799857856291465,25,up,up,0.6256795999361202,0.3646920525927863,,experiment,cRDM,0.0,,,,1108.0700036000926,80,33,male,True,11080,11086,False,False,expiration,inspiration
341,0.1799857856291465,25,up,up,0.4002842999761924,0.6797818416997592,,experiment,cRDM,0.0,,,,1109.6364316000836,80,33,male,True,11096,11100,False,False,peak,expiration
342,114.0,25,M,down,1.0143122000154108,1.5143338880028685,,experiment,emotion,1.0,,,,1133.502380900085,80,33,male,True,11334,11344,False,False,expiration,expiration
343,104.0,25,M,up,1.2954397000139581,0.9139543085097734,,experiment,emotion,1.0,,,,1135.7022904000478,80,33,male,True,11356,11369,False,False,inspiration,inspiration
344,111.0,25,F,up,0.7344987000105903,0.7224604892313917,,experiment,emotion,1.0,,,,1138.0021967000796,80,33,male,True,11379,11386,False,False,inspiration,inspiration
345,114.0,25,F,up,0.867900799959898,1.26753916151528,,experiment,emotion,1.0,,,,1140.2688200999985,80,33,male,True,11402,11411,False,False,expiration,expiration
346,111.0,25,M,up,0.6032912000082433,0.41928368196439797,,experiment,emotion,1.0,,,,1141.8354223000354,80,33,male,True,11418,11424,False,False,inspiration,inspiration
347,108.0,25,F,down,0.5852866000495851,1.506888130849633,,experiment,emotion,1.0,,,,1144.2183908000588,80,33,male,True,11442,11448,False,False,expiration,expiration
348,104.0,25,M,down,1.2547905999235809,1.1934153112772634,,experiment,emotion,1.0,,,,1146.2519127000126,80,33,male,True,11462,11475,False,False,inspiration,expiration
349,108.0,25,M,down,1.3299265999812633,1.4751567211930765,,experiment,emotion,1.0,,,,1149.251828800072,80,33,male,True,11492,11505,False,False,inspiration,expiration
350,114.0,25,F,up,1.119625800056383,0.7177725899781024,,experiment,emotion,1.0,,,,1151.5850566000445,80,33,male,True,11515,11526,False,False,expiration,expiration
351,108.0,25,F,down,0.9361061999807134,1.4292004977434294,,experiment,emotion,1.0,,,,1154.4016032000072,80,33,male,True,11543,11552,False,False,inspiration,expiration
352,111.0,25,F,down,0.6531948000192642,1.3735452855758818,,experiment,emotion,1.0,,,,1157.001502100029,80,33,male,True,11569,11576,False,False,inspiration,inspiration
353,114.0,25,F,down,0.5302897000219673,0.9684676919371544,,experiment,emotion,1.0,,,,1158.9014292000793,80,33,male,True,11588,11593,False,False,expiration,expiration
354,111.0,25,F,down,0.5093454999150708,1.9552799594537076,,experiment,emotion,1.0,,,,1161.651341799996,80,33,male,True,11616,11621,False,False,expiration,expiration
355,104.0,25,F,down,0.7139544999226928,1.9574741464384304,,experiment,emotion,1.0,,,,1164.417748500011,80,33,male,True,11644,11651,False,False,expiration,inspiration
356,108.0,25,M,down,0.585526300012134,1.028096731838506,,experiment,emotion,1.0,,,,1166.4511900000507,80,33,male,True,11664,11670,False,False,inspiration,peak
357,104.0,25,M,down,0.4809440999524668,0.6625558177971193,,experiment,emotion,1.0,,,,1167.9677949000616,80,33,male,True,11679,11684,False,False,expiration,expiration
358,114.0,25,M,down,0.4166180000174791,0.6024363237693279,,experiment,emotion,1.0,,,,1169.3010387000395,80,33,male,True,11692,11696,False,False,expiration,inspiration
359,104.0,25,M,down,0.6970496000722051,1.8751937531988416,,experiment,emotion,1.0,,,,1171.8676513000391,80,33,male,True,11718,11725,False,False,expiration,expiration
360,111.0,25,F,down,0.9674608000786976,1.156002228855889,,experiment,emotion,1.0,,,,1173.984228400048,80,33,male,True,11739,11749,False,False,inspiration,expiration
361,111.0,25,M,down,0.929898799979128,1.5149578334288474,,experiment,emotion,1.0,,,,1176.7508005000418,80,33,male,True,11767,11776,False,False,inspiration,inspiration
362,108.0,25,M,down,0.6416554000461474,1.0366304474766754,,experiment,emotion,1.0,,,,1178.9840450000486,80,33,male,True,11789,11795,False,False,expiration,expiration
363,108.0,25,F,down,0.99674309999682,1.397945549013596,,experiment,emotion,1.0,,,,1181.2839682000922,80,33,male,True,11812,11822,False,False,inspiration,expiration
364,104.0,25,M,down,0.727656599949114,1.6785721368439896,,experiment,emotion,1.0,,,,1184.217038200004,80,33,male,True,11842,11849,False,False,inspiration,expiration
365,114.0,25,F,up,1.1652020000619814,0.6190181134145548,,experiment,emotion,1.0,,,,1185.8504695000593,80,33,male,True,11858,11870,False,False,expiration,inspiration
366,111.0,25,F,down,0.7349645999493077,1.0774717915920924,,experiment,emotion,1.0,,,,1188.3836816000985,80,33,male,True,11883,11890,False,False,peak,expiration
367,104.0,25,M,down,0.7611119999783114,1.5444031938226406,,experiment,emotion,1.0,,,,1190.933600999997,80,33,male,True,11909,11917,False,False,inspiration,inspiration
368,114.0,25,M,up,1.0174982000607995,0.4879642508567459,,experiment,emotion,1.0,,,,1192.4502101000398,80,33,male,True,11924,11934,False,False,expiration,expiration
369,114.0,25,F,up,0.9255897999973968,1.6089859232974142,,experiment,emotion,1.0,,,,1195.3501167000504,80,33,male,True,11953,11962,False,False,inspiration,expiration
370,108.0,25,M,up,1.014771500020288,1.8906567465787345,,experiment,emotion,1.0,,,,1198.4499745999926,80,33,male,True,11984,11994,False,False,inspiration,expiration
371,104.0,25,F,down,1.5787958999862894,1.5155129459647023,,experiment,emotion,1.0,,,,1201.249891799991,80,33,male,True,12012,12028,False,False,expiration,peak
372,108.0,25,F,up,1.074571399949491,0.7883623144080119,,experiment,emotion,1.0,,,,1203.8831006000985,80,33,male,True,12038,12049,False,False,expiration,inspiration
373,111.0,25,F,down,1.1166514999931678,1.2383845976908665,,experiment,emotion,1.0,,,,1206.4830373000584,80,33,male,True,12064,12075,False,False,peak,expiration
374,104.0,25,M,up,1.1531294999876989,0.5367632440095381,,experiment,emotion,1.0,,,,1208.399598999997,80,33,male,True,12083,12095,False,False,expiration,inspiration
375,114.0,25,M,up,1.0295090000145135,1.937569961793524,,experiment,emotion,1.0,,,,1211.766180400038,80,33,male,True,12117,12127,False,False,expiration,inspiration
376,111.0,25,M,up,0.9719638999085872,1.0637725679561092,,experiment,emotion,1.0,,,,1214.132751600002,80,33,male,True,12141,12151,False,False,expiration,expiration
377,114.0,25,F,up,0.7744058999232948,1.8201885200029848,,experiment,emotion,1.0,,,,1217.1993033000035,80,33,male,True,12171,12179,False,False,expiration,inspiration
378,104.0,25,F,up,0.9095457999501376,1.84825589897102,,experiment,emotion,1.0,,,,1220.0992027000755,80,33,male,True,12200,12209,False,False,expiration,expiration
379,111.0,25,M,up,0.9335837999824436,1.5283253374359806,,experiment,emotion,1.0,,,,1222.799096300034,80,33,male,True,12227,12236,False,False,inspiration,inspiration
380,108.0,25,F,up,0.7436702999984846,0.3907468872901952,,experiment,emotion,1.0,,,,1224.3990201000124,80,33,male,True,12243,12250,False,False,inspiration,expiration
381,108.0,25,M,up,0.7416157000698149,1.7241485091718187,,experiment,emotion,1.0,,,,1227.1320691000435,80,33,male,True,12271,12278,False,False,expiration,expiration
382,111.0,25,M,up,0.8528882999671623,1.353972548542269,,experiment,emotion,1.0,,,,1229.498836399987,80,33,male,True,12294,12303,False,False,inspiration,expiration
383,114.0,25,M,up,0.7479470999678597,1.6114386984040827,,experiment,emotion,1.0,,,,1232.2487618000016,80,33,male,True,12322,12329,False,False,inspiration,expiration
384,108.0,25,F,down,1.410699400003068,1.9014273047329011,,experiment,emotion,1.0,,,,1235.1819670000114,80,33,male,True,12351,12365,False,False,expiration,inspiration
385,104.0,25,F,down,1.4967326999176294,1.270124624423763,,experiment,emotion,1.0,,,,1238.131877799984,80,33,male,True,12381,12396,False,False,expiration,expiration
386,104.0,25,M,up,0.7982938999775797,1.001174132393177,,experiment,emotion,1.0,,,,1240.898419400095,80,33,male,True,12408,12416,False,False,inspiration,inspiration
387,108.0,25,F,up,0.7236803999403492,1.7038843032614568,,experiment,emotion,1.0,,,,1243.6650062000845,80,33,male,True,12436,12443,False,False,expiration,expiration
388,114.0,25,F,down,1.6361188000300901,1.2640236612194329,,experiment,emotion,1.0,,,,1245.931578900083,80,33,male,True,12459,12475,False,False,inspiration,expiration
389,111.0,25,M,up,1.2124379000160843,0.984646925025272,,experiment,emotion,1.0,,,,1248.831249400042,80,33,male,True,12488,12500,False,False,inspiration,inspiration
390,104.0,25,M,down,1.130006399936974,1.7395513010186867,,experiment,emotion,1.0,,,,1252.064673100016,80,33,male,True,12520,12531,False,False,expiration,inspiration
391,114.0,25,F,up,0.6660760999657214,0.8412872501029716,,experiment,emotion,1.0,,,,1254.3146068000933,80,33,male,True,12543,12550,False,False,expiration,expiration
392,111.0,25,M,down,0.9212149999802932,0.6573029257792861,,experiment,emotion,1.0,,,,1255.9145147000672,80,33,male,True,12558,12567,False,False,expiration,inspiration
393,111.0,25,F,up,0.7659217000473291,1.5075895560312065,,experiment,emotion,1.0,,,,1258.5977774000494,80,33,male,True,12585,12593,False,False,expiration,expiration
394,104.0,25,F,up,0.9438755000010132,0.9086319434997364,,experiment,emotion,1.0,,,,1260.5308105000295,80,33,male,True,12605,12614,False,False,inspiration,expiration
395,108.0,25,F,up,0.918694299994968,1.0142740848502068,,experiment,emotion,1.0,,,,1262.780966600054,80,33,male,True,12627,12636,False,False,expiration,inspiration
396,114.0,25,M,up,0.785819899989292,1.5582573572637817,,experiment,emotion,1.0,,,,1265.5308573000364,80,33,male,True,12655,12663,False,False,expiration,expiration
397,108.0,25,M,up,0.9330673000076786,1.3946802679107977,,experiment,emotion,1.0,,,,1267.9807738000527,80,33,male,True,12679,12688,False,False,inspiration,expiration
398,108.0,25,F,up,0.8837211000500247,1.9308648427115955,,experiment,emotion,1.0,,,,1271.1139557000715,80,33,male,True,12711,12720,False,False,inspiration,inspiration
399,108.0,25,F,up,0.7618236999260262,1.063710179776487,,experiment,emotion,1.0,,,,1273.3138902999926,80,33,male,True,12732,12740,False,False,expiration,expiration
400,114.0,25,M,up,0.7708450000500306,1.1223410558515998,,experiment,emotion,1.0,,,,1275.4638342000544,80,33,male,True,12754,12762,False,False,inspiration,expiration
401,111.0,25,M,up,0.5644504999509081,0.4259299134572953,,experiment,emotion,1.0,,,,1276.93022390001,80,33,male,True,12769,12775,False,False,expiration,expiration
402,104.0,25,M,up,1.4134073000168428,1.5620207030462638,,experiment,emotion,1.0,,,,1279.3302266000535,80,33,male,True,12793,12807,False,False,expiration,expiration
403,104.0,25,M,down,1.6794189000502229,0.7676472090306061,,experiment,emotion,1.0,,,,1281.7802622000454,80,33,male,True,12817,12834,False,False,inspiration,expiration
404,111.0,25,M,up,0.690555699984543,1.1562942158792557,,experiment,emotion,1.0,,,,1284.8801262000345,80,33,male,True,12848,12855,False,False,inspiration,inspiration
405,114.0,25,F,up,0.6185870000626892,0.9341482394722742,,experiment,emotion,1.0,,,,1286.7800931000384,80,33,male,True,12867,12873,False,False,expiration,expiration
406,114.0,25,F,up,0.5530278000514954,1.042877755241047,,experiment,emotion,1.0,,,,1288.696649700054,80,33,male,True,12886,12892,False,False,expiration,expiration
407,104.0,25,M,down,1.375095700030215,1.232125561176207,,experiment,emotion,1.0,,,,1290.7465936000224,80,33,male,True,12907,12921,False,False,inspiration,expiration
408,114.0,25,F,up,0.6744927000254393,0.5708657783206943,,experiment,emotion,1.0,,,,1292.9631761000494,80,33,male,True,12929,12936,False,False,expiration,inspiration
409,108.0,25,F,down,1.3072296000318602,0.4802967655089488,,experiment,emotion,1.0,,,,1294.396454300033,80,33,male,True,12943,12956,False,False,inspiration,expiration
410,111.0,25,F,up,1.044858800014481,1.7477094820067045,,experiment,emotion,1.0,,,,1297.7128202000167,80,33,male,True,12977,12987,False,False,expiration,expiration
411,108.0,25,M,up,0.7961434000171721,1.5963524617298488,,experiment,emotion,1.0,,,,1300.6295686000958,80,33,male,True,13006,13014,False,False,expiration,expiration
412,104.0,25,F,up,0.716880900086835,0.9599155505323872,,experiment,emotion,1.0,,,,1302.6628119000236,80,33,male,True,13026,13033,False,False,expiration,expiration
413,111.0,25,F,up,0.6772445000242442,0.825552804510272,,experiment,emotion,1.0,,,,1304.47943330009,80,33,male,True,13044,13051,False,False,trough,inspiration
414,108.0,25,F,up,0.502658799989149,0.8099862148832937,,experiment,emotion,1.0,,,,1306.2460177000612,80,33,male,True,13062,13067,False,False,expiration,expiration
415,111.0,25,M,up,0.8777654999867082,1.8832627797132369,,experiment,emotion,1.0,,,,1308.8959049000405,80,33,male,True,13088,13097,False,False,expiration,expiration
416,104.0,25,M,up,0.8613113999599591,0.3796874373985414,,experiment,emotion,1.0,,,,1310.4123643999922,80,33,male,True,13104,13113,False,False,inspiration,inspiration
417,114.0,25,F,up,0.6849042000249028,1.6545964900637151,,experiment,emotion,1.0,,,,1313.1957689999836,80,33,male,True,13131,13138,False,False,expiration,expiration
418,111.0,25,M,up,1.0594951000530273,1.4661114989272506,,experiment,emotion,1.0,,,,1315.6121801000556,80,33,male,True,13156,13167,False,False,expiration,expiration
419,114.0,25,F,up,0.7451389000052586,1.5218062021010392,,experiment,emotion,1.0,,,,1318.445577800041,80,33,male,True,13184,13191,False,False,inspiration,expiration
420,104.0,25,M,up,0.7276802000124007,0.9586154657831908,,experiment,emotion,1.0,,,,1320.411992300069,80,33,male,True,13204,13211,False,False,expiration,inspiration
421,108.0,25,M,up,0.7438898000400513,1.0770497602324969,,experiment,emotion,1.0,,,,1322.511845100089,80,33,male,True,13225,13232,False,False,expiration,expiration
422,0.1799857856291465,25,up,up,0.8112739000935107,1.0523876616766952,,experiment,cRDM,1.0,,,,1349.0444455000106,80,33,male,True,13490,13498,False,False,inspiration,inspiration
423,0.1799857856291465,25,up,up,1.0176589998882264,1.3440773116235931,,experiment,cRDM,1.0,,,,1351.4610306000104,80,33,male,True,13514,13524,False,False,expiration,expiration
424,0.1799857856291465,25,down,down,1.0284307000692934,1.0111848905552274,,experiment,cRDM,1.0,,,,1353.7442722000415,80,33,male,True,13537,13547,False,False,inspiration,expiration
425,0.1799857856291465,25,down,down,1.9640708999941128,1.9668153696600972,,experiment,cRDM,1.0,,,,1357.0105933999876,80,33,male,True,13570,13590,False,False,inspiration,expiration
426,0.1799857856291465,25,up,up,0.8493464000057429,1.7003170699832355,,experiment,cRDM,1.0,,,,1360.9273611000972,80,33,male,True,13609,13617,False,False,inspiration,expiration
427,0.1799857856291465,25,down,down,0.7694103999529034,1.241174683232846,,experiment,cRDM,1.0,,,,1363.2772523000604,80,33,male,True,13632,13640,False,False,inspiration,inspiration
428,0.1799857856291465,25,up,up,0.6418736999621615,1.7915571556924486,,experiment,cRDM,1.0,,,,1366.0937939999858,80,33,male,True,13660,13666,False,False,expiration,expiration
429,0.1799857856291465,25,up,up,0.6664983000373468,0.5042201311642759,,experiment,cRDM,1.0,,,,1367.5101612000724,80,33,male,True,13675,13682,False,False,inspiration,inspiration
430,0.1799857856291465,25,down,down,0.5136239000130445,0.3321180845036297,,experiment,cRDM,1.0,,,,1368.7770445999922,80,33,male,True,13687,13692,False,False,inspiration,expiration
431,0.1799857856291465,25,down,up,1.3241027999902144,1.8873578968715599,,experiment,cRDM,1.0,,,,1371.4436185000231,80,33,male,True,13714,13727,False,False,inspiration,expiration
432,0.1799857856291465,25,down,down,0.797167900018394,1.6160308071813083,,experiment,cRDM,1.0,,,,1374.6434971999845,80,33,male,True,13746,13754,False,False,inspiration,inspiration
433,0.1799857856291465,25,down,down,0.8245315999956802,0.3538192917441412,,experiment,cRDM,1.0,,,,1376.0601322000146,80,33,male,True,13760,13768,False,False,inspiration,expiration
434,0.1799857856291465,25,down,up,0.7473136000335217,1.1568894610861369,,experiment,cRDM,1.0,,,,1378.2933481000366,80,33,male,True,13782,13789,False,False,expiration,trough
435,0.1799857856291465,25,down,down,0.4646882000379264,1.5698530101182158,,experiment,cRDM,1.0,,,,1380.8599319000493,80,33,male,True,13808,13813,False,False,expiration,expiration
436,0.1799857856291465,25,up,up,0.5547685999190435,0.475203036494377,,experiment,cRDM,1.0,,,,1382.0599001999944,80,33,male,True,13820,13826,False,False,expiration,expiration
437,0.1799857856291465,25,up,up,0.7600356000475585,0.3253941559411244,,experiment,cRDM,1.0,,,,1383.2096266000299,80,33,male,True,13832,13840,False,False,inspiration,expiration
438,0.1799857856291465,25,up,up,0.9531778000527992,0.8252376348108379,,experiment,cRDM,1.0,,,,1385.076447700034,80,33,male,True,13850,13860,False,False,expiration,expiration
439,0.1799857856291465,25,up,up,1.5289798999438062,1.9746323562539991,,experiment,cRDM,1.0,,,,1388.2596586000873,80,33,male,True,13882,13897,False,False,expiration,expiration
440,0.1799857856291465,25,down,down,1.0554145000642166,1.5731978906687525,,experiment,cRDM,1.0,,,,1391.6262417000253,80,33,male,True,13916,13927,False,False,expiration,expiration
441,0.1799857856291465,25,up,up,0.8692008999641985,0.9051876526712404,,experiment,cRDM,1.0,,,,1393.8594591000585,80,33,male,True,13938,13947,False,False,trough,inspiration
442,0.1799857856291465,25,up,,,0.7149165288396615,,experiment,cRDM,1.0,,,,1395.692715000012,80,33,male,True,13956,0,False,False,expiration,0
443,0.1799857856291465,25,down,down,1.9413763999473304,0.5836905461126036,,experiment,cRDM,1.0,,,,1398.9592796000652,80,33,male,True,13989,14008,False,False,inspiration,expiration
444,0.1799857856291465,25,up,up,0.8842255000490695,1.8727639243405645,,experiment,cRDM,1.0,,,,1403.0424509000732,80,33,male,True,14030,14039,False,False,expiration,expiration
445,0.1799857856291465,25,down,down,1.8413508000085133,1.7044695786375,,experiment,cRDM,1.0,,,,1405.89234390005,80,33,male,True,14058,14076,False,False,inspiration,expiration
446,0.1799857856291465,25,down,up,1.7637807000428438,0.9118791955578548,,experiment,cRDM,1.0,,,,1408.9088894000745,80,33,male,True,14089,14107,False,False,peak,inspiration
447,0.1799857856291465,25,up,up,0.7187345999991521,1.257714199850714,,experiment,cRDM,1.0,,,,1412.1919698000422,80,33,male,True,14122,14129,False,False,inspiration,expiration
448,0.1799857856291465,25,up,up,0.5433015000307932,0.6873741062153776,,experiment,cRDM,1.0,,,,1413.8753716000354,80,33,male,True,14138,14143,False,False,expiration,expiration
449,0.1799857856291465,25,down,up,0.6759733000071719,1.084547971908952,,experiment,cRDM,1.0,,,,1415.758686300018,80,33,male,True,14157,14164,False,False,inspiration,expiration
450,0.1799857856291465,25,up,up,0.6277847000164911,1.498079738798415,,experiment,cRDM,1.0,,,,1418.1918846000915,80,33,male,True,14181,14187,False,False,inspiration,inspiration
451,0.1799857856291465,25,down,up,0.9983740999596192,1.7168651815511762,,experiment,cRDM,1.0,,,,1420.8082585000666,80,33,male,True,14208,14218,False,False,expiration,inspiration
452,0.1799857856291465,25,down,up,0.4309310999233276,0.9223235996329252,,experiment,cRDM,1.0,,,,1422.9917253000895,80,33,male,True,14229,14233,False,False,inspiration,expiration
453,0.1799857856291465,25,down,up,0.4668841999955475,1.0208370966458116,,experiment,cRDM,1.0,,,,1424.7247978000669,80,33,male,True,14247,14252,False,False,expiration,inspiration
454,0.1799857856291465,25,up,up,0.7307593000587076,1.5949583950202215,,experiment,cRDM,1.0,,,,1427.0582218000197,80,33,male,True,14270,14277,False,False,expiration,expiration
455,0.1799857856291465,25,up,up,0.5305336000164971,1.199376786311309,,experiment,cRDM,1.0,,,,1429.258145500091,80,33,male,True,14292,14297,False,False,inspiration,inspiration
456,0.1799857856291465,25,up,up,0.6075340999523178,1.319576569428334,,experiment,cRDM,1.0,,,,1431.3580996000674,80,33,male,True,14313,14319,False,False,expiration,expiration
457,0.1799857856291465,25,down,up,2.2248968000058085,0.4005433253892556,,experiment,cRDM,1.0,,,,1432.6247531000988,80,33,male,True,14326,14348,False,False,inspiration,expiration
458,0.1799857856291465,25,down,up,0.7750804000534117,1.6039917618444652,,experiment,cRDM,1.0,,,,1436.7245766000126,80,33,male,True,14367,14375,False,False,inspiration,expiration
459,0.1799857856291465,25,up,up,0.9435294000431896,1.0771741602308396,,experiment,cRDM,1.0,,,,1438.841128500062,80,33,male,True,14388,14397,False,False,expiration,trough
460,0.1799857856291465,25,down,up,0.9236416000640021,1.8326040980326184,,experiment,cRDM,1.0,,,,1441.8909946000203,80,33,male,True,14418,14427,False,False,expiration,expiration
461,0.1799857856291465,25,up,up,0.8327887000050396,1.6077389843601395,,experiment,cRDM,1.0,,,,1444.6909201000815,80,33,male,True,14446,14454,False,False,inspiration,expiration
462,0.1799857856291465,25,up,up,0.5074248999590054,0.8377232804720076,,experiment,cRDM,1.0,,,,1446.6242278000573,80,33,male,True,14466,14471,False,False,expiration,expiration
463,0.1799857856291465,25,up,up,1.0460977999027818,0.38914613474762494,,experiment,cRDM,1.0,,,,1447.7905761000004,80,33,male,True,14478,14488,False,False,inspiration,expiration
464,0.1799857856291465,25,down,up,1.3183340999530628,1.9111809775848445,,experiment,cRDM,1.0,,,,1451.0073821000988,80,33,male,True,14510,14523,False,False,expiration,inspiration
465,0.1799857856291465,25,down,up,1.3757001999765637,0.4956259146864964,,experiment,cRDM,1.0,,,,1453.073970700032,80,33,male,True,14530,14544,False,False,inspiration,expiration
466,0.1799857856291465,25,up,up,0.9784872999880464,1.5428571965844629,,experiment,cRDM,1.0,,,,1456.2571629000595,80,33,male,True,14562,14572,False,False,inspiration,expiration
467,0.1799857856291465,25,down,down,1.0449076000368225,0.5171404054460578,,experiment,cRDM,1.0,,,,1458.0237916000185,80,33,male,True,14580,14590,False,False,expiration,expiration
468,0.1799857856291465,25,down,up,0.9467072000261396,1.3095209260904854,,experiment,cRDM,1.0,,,,1460.6569507000968,80,33,male,True,14606,14615,False,False,inspiration,expiration
469,0.1799857856291465,25,up,up,0.8554145999951288,1.3162790083120501,,experiment,cRDM,1.0,,,,1463.190237600007,80,33,male,True,14631,14640,False,False,inspiration,inspiration
470,0.1799857856291465,25,up,up,0.5428375999908894,0.944153529748625,,experiment,cRDM,1.0,,,,1465.256813300075,80,33,male,True,14652,14657,False,False,expiration,expiration
471,0.1799857856291465,25,down,up,0.7025496000424027,0.6327032488086548,,experiment,cRDM,1.0,,,,1466.6901041000385,80,33,male,True,14666,14673,False,False,inspiration,expiration
472,0.1799857856291465,25,up,up,0.6792457000119612,1.0709172975534231,,experiment,cRDM,1.0,,,,1468.7234015000283,80,33,male,True,14687,14694,False,False,expiration,inspiration
473,0.1799857856291465,25,down,up,0.6553097000578418,0.3226233211481774,,experiment,cRDM,1.0,,,,1469.9733249000274,80,33,male,True,14699,14706,False,False,inspiration,expiration
474,0.1799857856291465,25,down,up,0.6390944999875501,1.6485057887542744,,experiment,cRDM,1.0,,,,1472.5565625000745,80,33,male,True,14725,14731,False,False,inspiration,inspiration
475,0.1799857856291465,25,down,up,1.3208629000000656,1.8813202146374608,,experiment,cRDM,1.0,,,,1475.3398056000005,80,33,male,True,14753,14766,False,False,expiration,expiration
476,0.1799857856291465,25,up,up,0.7532561999978498,0.9284422620399112,,experiment,cRDM,1.0,,,,1477.8563938000007,80,33,male,True,14778,14786,False,False,inspiration,expiration
477,0.1799857856291465,25,up,up,1.857039999915287,1.2773184837204337,,experiment,cRDM,1.0,,,,1480.139613400097,80,33,male,True,14801,14820,False,False,expiration,inspiration
478,0.1799857856291465,25,down,up,0.7416467999573797,0.352853480136102,,experiment,cRDM,1.0,,,,1482.605977700092,80,33,male,True,14826,14833,False,False,expiration,expiration
479,0.1799857856291465,25,down,up,0.8515593999763951,1.5542437272451384,,experiment,cRDM,1.0,,,,1485.1561047000578,80,33,male,True,14851,14860,False,False,inspiration,expiration
480,0.1799857856291465,25,up,up,0.8269552000565454,1.6473604842581633,,experiment,cRDM,1.0,,,,1487.9226928000573,80,33,male,True,14879,14887,False,False,inspiration,inspiration
481,0.1799857856291465,25,up,up,1.964990700013004,1.6973968264558812,,experiment,cRDM,1.0,,,,1490.705641800072,80,33,male,True,14907,14927,False,False,expiration,inspiration
482,0.1799857856291465,25,up,down,1.5200039999326689,1.1733647613507523,,experiment,cRDM,1.0,,,,1494.105641900096,80,33,male,True,14941,14956,False,False,expiration,expiration
483,0.1799857856291465,25,up,up,0.8886505999835208,0.8966378173971348,,experiment,cRDM,1.0,,,,1496.7889794000655,80,33,male,True,14967,14976,False,False,inspiration,expiration
484,0.1799857856291465,25,up,up,0.7974162999307737,0.943111733347457,,experiment,cRDM,1.0,,,,1498.8722620999906,80,33,male,True,14988,14996,False,False,expiration,inspiration
485,0.1799857856291465,25,down,up,0.7598569000838324,1.8143245553830196,,experiment,cRDM,1.0,,,,1501.7388276000274,80,33,male,True,15017,15025,False,False,expiration,expiration
486,0.1799857856291465,25,down,up,0.6822311000432819,0.9979411494716056,,experiment,cRDM,1.0,,,,1503.755413900013,80,33,male,True,15037,15044,False,False,inspiration,expiration
487,0.1799857856291465,25,up,up,0.4949313000543043,0.4417588855130117,,experiment,cRDM,1.0,,,,1505.1386903000532,80,33,male,True,15051,15056,False,False,expiration,expiration
488,0.1799857856291465,25,down,down,1.0455306000076234,0.3272053604109825,,experiment,cRDM,1.0,,,,1506.2221009000205,80,33,male,True,15062,15072,False,False,inspiration,inspiration
489,0.1799857856291465,25,down,up,0.8200701999012381,1.109338674857667,,experiment,cRDM,1.0,,,,1508.6385768000034,80,33,male,True,15086,15094,False,False,expiration,inspiration
490,0.1799857856291465,25,down,up,0.8538075999822468,0.8425231066189665,,experiment,cRDM,1.0,,,,1510.571826600004,80,33,male,True,15105,15114,False,False,inspiration,expiration
491,0.1799857856291465,25,up,up,0.7035307000624016,0.9625370420712798,,experiment,cRDM,1.0,,,,1512.6550942000467,80,33,male,True,15126,15133,False,False,inspiration,inspiration
492,0.1799857856291465,25,down,up,1.6057356999954209,0.4887400514853759,,experiment,cRDM,1.0,,,,1514.1049095999915,80,33,male,True,15141,15157,False,False,inspiration,peak
493,0.1799857856291465,25,down,down,2.147413400001824,1.5696518319308053,,experiment,cRDM,1.0,,,,1517.5382388000146,80,33,male,True,15175,15196,False,False,expiration,inspiration
494,0.1799857856291465,25,down,down,1.4295281999511644,0.626353845129815,,experiment,cRDM,1.0,,,,1520.5881188000785,80,33,male,True,15205,15219,False,False,inspiration,inspiration
495,0.1799857856291465,25,up,up,1.0915530999191103,0.4525587954504495,,experiment,cRDM,1.0,,,,1522.7380939000284,80,33,male,True,15227,15238,False,False,inspiration,peak
496,0.1799857856291465,25,up,up,1.5073727999115365,0.8208438945067009,,experiment,cRDM,1.0,,,,1524.9213235999923,80,33,male,True,15249,15264,False,False,inspiration,inspiration
497,0.1799857856291465,25,down,down,1.0154332999372857,0.4833887198299296,,experiment,cRDM,1.0,,,,1527.1712331000015,80,33,male,True,15271,15281,False,False,inspiration,expiration
498,0.1799857856291465,25,up,up,1.2681602999800816,0.6193224305912951,,experiment,cRDM,1.0,,,,1529.0544822000666,80,33,male,True,15290,15303,False,False,inspiration,inspiration
499,0.1799857856291465,25,down,up,1.9459350999677556,1.344191603516701,,experiment,cRDM,1.0,,,,1531.937704400043,80,33,male,True,15319,15338,False,False,expiration,expiration
500,0.1799857856291465,25,up,up,1.1976215000031516,0.5779262606599915,,experiment,cRDM,1.0,,,,1534.720962600084,80,33,male,True,15347,15359,False,False,inspiration,inspiration
501,0.1799857856291465,25,up,up,0.833755400031805,0.6966604612873192,,experiment,cRDM,1.0,,,,1536.8708807000655,80,33,male,True,15368,15376,False,False,expiration,expiration
502,114.0,25,M,down,1.7802629000507295,0.4685299950361065,,experiment,emotion,2.0,,,,1558.653384800069,80,33,male,True,15586,15604,False,False,inspiration,expiration
503,104.0,25,M,down,1.0622564000077546,0.7164878461334006,,experiment,emotion,2.0,,,,1561.436626999988,80,33,male,True,15614,15625,False,False,inspiration,expiration
504,111.0,25,F,up,1.019470200059004,0.9814934412994452,,experiment,emotion,2.0,,,,1563.753213600023,80,33,male,True,15637,15647,False,False,inspiration,inspiration
505,114.0,25,F,up,0.809528800076805,1.7083426149584628,,experiment,emotion,2.0,,,,1566.7531102000503,80,33,male,True,15667,15675,False,False,expiration,expiration
506,111.0,25,M,up,0.9423152999952435,1.8611797243503376,,experiment,emotion,2.0,,,,1569.6862965000325,80,33,male,True,15696,15705,False,False,expiration,expiration
507,108.0,25,F,up,0.6184168999316171,1.875397807002314,,experiment,emotion,2.0,,,,1572.7862047000087,80,33,male,True,15727,15733,False,False,inspiration,expiration
508,104.0,25,M,up,0.5820033999625593,1.6282417393853734,,experiment,emotion,2.0,,,,1575.3026718000185,80,33,male,True,15753,15759,False,False,inspiration,inspiration
509,108.0,25,M,up,0.5342706999508664,1.8665116159965658,,experiment,emotion,2.0,,,,1578.0193720000098,80,33,male,True,15780,15785,False,False,expiration,expiration
510,114.0,25,F,up,0.6463937000371516,1.9284195885794198,,experiment,emotion,2.0,,,,1580.7692394000476,80,33,male,True,15807,15813,False,False,expiration,expiration
511,108.0,25,F,up,0.7065051000099629,1.2337539925565424,,experiment,emotion,2.0,,,,1582.9191472000675,80,33,male,True,15829,15836,False,False,inspiration,inspiration
512,111.0,25,F,up,1.6039004999911413,1.5767370226504271,,experiment,emotion,2.0,,,,1585.4857293000678,80,33,male,True,15854,15870,False,False,inspiration,expiration
513,114.0,25,F,up,0.684321100008674,1.93098428573682,,experiment,emotion,2.0,,,,1589.3022615000373,80,33,male,True,15893,15900,False,False,inspiration,inspiration
514,111.0,25,F,up,0.7901295999763533,1.878108755816049,,experiment,emotion,2.0,,,,1592.135498000076,80,33,male,True,15921,15929,False,False,expiration,expiration
515,104.0,25,F,up,0.7238558999961242,0.4017993216180936,,experiment,emotion,2.0,,,,1593.6187793000133,80,33,male,True,15936,15943,False,False,expiration,inspiration
516,108.0,25,M,up,0.5375703000463545,0.3054891258303659,,experiment,emotion,2.0,,,,1594.9020546000684,80,33,male,True,15949,15954,False,False,inspiration,expiration
517,104.0,25,M,down,0.7416818999918178,0.6910268225236029,,experiment,emotion,2.0,,,,1596.4019954000833,80,33,male,True,15964,15971,False,False,expiration,inspiration
518,114.0,25,M,up,0.885009599965997,0.6119396738861543,,experiment,emotion,2.0,,,,1598.0186184000922,80,33,male,True,15980,15989,False,False,inspiration,expiration
519,104.0,25,M,up,0.7001247999724001,1.8388399289089068,,experiment,emotion,2.0,,,,1601.0185091000749,80,33,male,True,16010,16017,False,False,inspiration,inspiration
520,111.0,25,F,up,0.5485704001039267,1.3017393384547942,,experiment,emotion,2.0,,,,1603.2850603000259,80,33,male,True,16032,16037,False,False,inspiration,expiration
521,111.0,25,M,up,0.680624199914746,1.036131056056445,,experiment,emotion,2.0,,,,1605.1350143000018,80,33,male,True,16051,16058,False,False,expiration,expiration
522,108.0,25,M,up,0.7437547000590712,0.9449629261312008,,experiment,emotion,2.0,,,,1607.034930700087,80,33,male,True,16070,16077,False,False,inspiration,expiration
523,108.0,25,F,up,0.9517609000904486,1.0788240850823263,,experiment,emotion,2.0,,,,1609.1348660000367,80,33,male,True,16091,16101,False,False,expiration,inspiration
524,104.0,25,M,up,0.695579000050202,1.6673834485072352,,experiment,emotion,2.0,,,,1612.0180749000283,80,33,male,True,16120,16127,False,False,expiration,expiration
525,114.0,25,F,up,0.6202153000049293,0.5025090874307766,,experiment,emotion,2.0,,,,1613.5014041000973,80,33,male,True,16135,16141,False,False,inspiration,inspiration
526,111.0,25,F,up,0.9953786999685691,1.1471185002483562,,experiment,emotion,2.0,,,,1615.5512898000889,80,33,male,True,16155,16165,False,False,expiration,expiration
527,104.0,25,M,up,0.8861049000406638,1.0239238080616382,,experiment,emotion,2.0,,,,1617.8345367000436,80,33,male,True,16178,16187,False,False,inspiration,expiration
528,114.0,25,M,up,0.5145429000258446,0.9563872605257502,,experiment,emotion,2.0,,,,1619.9511250000214,80,33,male,True,16199,16204,False,False,expiration,expiration
529,114.0,25,F,up,0.7472592000849545,1.7882502577253978,,experiment,emotion,2.0,,,,1622.534374000039,80,33,male,True,16225,16232,False,False,expiration,expiration
530,108.0,25,M,up,1.1339891999959946,1.3983547269063965,,experiment,emotion,2.0,,,,1624.9675915000262,80,33,male,True,16249,16260,False,False,inspiration,expiration
531,104.0,25,F,up,0.6400582001078874,0.6995689337506958,,experiment,emotion,2.0,,,,1627.0675480000211,80,33,male,True,16270,16276,False,False,expiration,inspiration
532,108.0,25,F,up,0.900477199931629,0.4639384437720956,,experiment,emotion,2.0,,,,1628.434136900003,80,33,male,True,16284,16293,False,False,inspiration,expiration
533,111.0,25,F,up,1.1298130999784917,1.163943478672714,,experiment,emotion,2.0,,,,1630.7838161000982,80,33,male,True,16308,16319,False,False,trough,inspiration
534,104.0,25,M,down,2.23833600000944,1.58564207266989,,experiment,emotion,2.0,,,,1633.7672697000671,80,33,male,True,16337,16359,False,False,expiration,inspiration
535,114.0,25,M,,,0.864938406443341,,experiment,emotion,2.0,,,,1637.1504967000799,80,33,male,True,16371,0,False,False,expiration,0
536,111.0,25,M,up,1.0340380000416192,0.9518560183232894,,experiment,emotion,2.0,,,,1640.783610400045,80,33,male,True,16408,16418,False,False,expiration,expiration
537,114.0,25,F,up,0.7300058999098837,1.354269076445322,,experiment,emotion,2.0,,,,1643.4336156999923,80,33,male,True,16434,16441,False,False,inspiration,expiration
538,104.0,25,F,up,0.7967565000290051,0.8205777103987619,,experiment,emotion,2.0,,,,1645.2668755000925,80,33,male,True,16452,16460,False,False,expiration,inspiration
539,111.0,25,M,up,0.6175406000111252,1.8166938983372172,,experiment,emotion,2.0,,,,1648.150084300083,80,33,male,True,16481,16487,False,False,expiration,expiration
540,108.0,25,F,up,0.7274842999177054,0.4464795067436457,,experiment,emotion,2.0,,,,1649.4831201999914,80,33,male,True,16495,16502,False,False,inspiration,inspiration
541,108.0,25,M,up,0.5463171999435872,1.3495288599174362,,experiment,emotion,2.0,,,,1651.8333042000886,80,33,male,True,16518,16523,False,False,expiration,expiration
542,111.0,25,M,up,0.5137792000314221,1.6057836603166054,,experiment,emotion,2.0,,,,1654.2498491000154,80,33,male,True,16542,16547,False,False,expiration,expiration
543,114.0,25,M,up,0.7254544000606984,0.4734218195641043,,experiment,emotion,2.0,,,,1655.533168700058,80,33,male,True,16555,16562,False,False,expiration,inspiration
544,108.0,25,F,up,0.5685425999108702,1.1127372780640479,,experiment,emotion,2.0,,,,1657.6330710999898,80,33,male,True,16576,16582,False,False,inspiration,expiration
545,104.0,25,F,up,0.4472606999333948,0.9948086024724848,,experiment,emotion,2.0,,,,1659.4663512000116,80,33,male,True,16594,16598,False,False,expiration,expiration
546,104.0,25,M,up,0.5320717000868171,1.919062277863012,,experiment,emotion,2.0,,,,1662.0995807000436,80,33,male,True,16621,16626,False,False,inspiration,peak
547,108.0,25,F,up,0.5457740999991074,1.5290816597933492,,experiment,emotion,2.0,,,,1664.432846400072,80,33,male,True,16644,16649,False,False,expiration,expiration
