,stimLvl,stimTime,rand,response,rt,precedingITI,trialNumber,trialType,stimuli,block,estIntens,estThres,estSlope,trialStart,subject,age,gender,headRest,onset,responsI,manBadOnset,manBadRespons,onset_phase,respons_phase
0,0.9,100,down,down,2.133433699957095,1.9637132609708448,,introTrial,cRDM,,,,,89.45045900007244,90,23,male,True,893,914,False,False,expiration,expiration
1,150.0,100,F,,,1.2099766975561366,,introTrial,emotion,,,,,93.08366320002823,90,23,male,True,930,0,False,False,expiration,0
2,0.9,25,up,up,0.3673397999955341,1.4406619657534243,,tutorial,cRDM,,,,,138.98191099998078,90,23,male,True,1389,1393,False,False,inspiration,expiration
3,0.9,25,down,down,0.4326176999602467,1.277956708591434,,tutorial,cRDM,,,,,140.96522370004098,90,23,male,True,1408,1412,False,False,expiration,inspiration
4,0.9,25,up,up,0.4330794999841601,1.3840783522677336,,tutorial,cRDM,,,,,143.08182020008095,90,23,male,True,1430,1434,False,False,expiration,expiration
5,0.9,25,down,down,0.5644083999795839,0.916295311678396,,tutorial,cRDM,,,,,144.69850170006976,90,23,male,True,1446,1452,False,False,expiration,expiration
6,0.9,25,down,down,0.5338099000509828,0.6554863474402952,,tutorial,cRDM,,,,,146.21506760001645,90,23,male,True,1461,1466,False,False,inspiration,inspiration
7,0.9,25,up,up,0.4619262999622151,1.9018173972433,,tutorial,cRDM,,,,,148.91497899999374,90,23,male,True,1488,1493,False,False,trough,inspiration
8,0.9,25,down,down,0.3670885000610724,0.9950388250179736,,tutorial,cRDM,,,,,150.6315478000324,90,23,male,True,1505,1509,False,False,expiration,expiration
9,0.9,25,down,down,0.4200129000237212,0.4328776529892085,,tutorial,cRDM,,,,,151.7648411000846,90,23,male,True,1516,1520,False,False,expiration,expiration
10,0.9,25,up,up,0.4584642000263557,1.1772589306688102,,tutorial,cRDM,,,,,153.63143720000514,90,23,male,True,1535,1540,False,False,inspiration,expiration
11,0.9,25,up,up,0.5627874999772757,1.0485973452156108,,tutorial,cRDM,,,,,155.39805449999403,90,23,male,True,1553,1559,False,False,expiration,expiration
12,200.0,25,M,up,0.7902480000630021,1.4662753856239772,,tutorial,emotion,,,,,166.74760590004738,90,23,male,True,1666,1674,False,False,expiration,expiration
13,200.0,25,M,up,0.552254700101912,0.4268382095445743,,tutorial,emotion,,,,,168.24760070000775,90,23,male,True,1681,1687,False,False,inspiration,expiration
14,200.0,25,F,up,0.6707191999303177,1.0783792311634273,,tutorial,emotion,,,,,170.1641682999907,90,23,male,True,1700,1707,False,False,inspiration,inspiration
15,0.0,25,F,down,0.42176659998949617,0.7279662428736371,,tutorial,emotion,,,,,171.86410330003127,90,23,male,True,1717,1721,False,False,expiration,expiration
16,0.0,25,M,down,0.4677754000294954,0.3440384811689148,,tutorial,emotion,,,,,172.91406600002662,90,23,male,True,1728,1733,False,False,expiration,expiration
17,200.0,25,F,up,0.5858296999940649,1.3398555165271984,,tutorial,emotion,,,,,175.0140106000472,90,23,male,True,1749,1755,False,False,peak,expiration
18,0.0,25,M,down,0.5076245000818744,1.1763610410752867,,tutorial,emotion,,,,,177.04722820001192,90,23,male,True,1769,1774,False,False,expiration,inspiration
19,200.0,25,M,up,0.5688329999102281,0.965055335976083,,tutorial,emotion,,,,,178.79705639998429,90,23,male,True,1787,1793,False,False,expiration,expiration
20,0.0,25,F,down,0.4464201000519097,0.5817980537243149,,tutorial,emotion,,,,,180.23046500002965,90,23,male,True,1801,1805,False,False,expiration,expiration
21,0.0,25,F,down,0.4684675999451429,0.7873111417550559,,tutorial,emotion,,,,,181.7304139999906,90,23,male,True,1816,1821,False,False,inspiration,inspiration
22,0.29,25,up,up,0.7336281000170857,1.6214837695356643,,psi_staircase_training,cRDM,,0.25,0.25693124029946324,0.10500000000000002,194.61324390000664,90,23,male,True,1945,1952,False,False,expiration,expiration
23,0.25,25,up,up,0.8286013000179082,0.32721601451346555,,psi_staircase_training,cRDM,,0.21910266653183127,0.2260132002683493,0.10468632033873933,195.96321180008815,90,23,male,True,1958,1966,False,False,trough,inspiration
24,0.21,25,down,down,0.4171329999808222,0.7969833670031949,,psi_staircase_training,cRDM,,0.1900540959403307,0.19684979615540016,0.10294672984249993,197.86313349998088,90,23,male,True,1977,1981,False,False,expiration,expiration
25,0.18,25,down,down,0.5571750999661162,1.224874649000448,,psi_staircase_training,cRDM,,0.1635257589279754,0.1701521334256793,0.100381647756865,199.7797203999944,90,23,male,True,1997,2003,False,False,inspiration,inspiration
26,0.15,25,up,up,0.383751800050959,1.2863953945994715,,psi_staircase_training,cRDM,,0.14018955742449365,0.14660133511875031,0.0971307628663642,201.91299600002827,90,23,male,True,2018,2022,False,False,expiration,expiration
27,0.13,25,down,down,0.43759969994425774,0.39013344642344,,psi_staircase_training,cRDM,,0.11987606021454796,0.12605547676183335,0.09361076941961036,202.99627840006724,90,23,male,True,2029,2033,False,False,trough,inspiration
28,0.11,25,up,up,0.4002416000002995,1.8188281671442348,,psi_staircase_training,cRDM,,0.10257735236965487,0.10849103445698656,0.08958521019937955,205.52953559998426,90,23,male,True,2054,2058,False,False,expiration,expiration
29,0.09,25,down,down,0.4360939000034705,0.5828190854822518,,psi_staircase_training,cRDM,,0.08784432595859408,0.09348182153209693,0.08540131486476357,206.81282330001702,90,23,male,True,2067,2071,False,False,expiration,inspiration
30,0.08,25,down,down,0.3999075000174344,1.6575431175348594,,psi_staircase_training,cRDM,,0.07518520921180863,0.0805556301471181,0.08135545354720439,209.1963330000872,90,23,male,True,2091,2095,False,False,expiration,expiration
31,0.06,25,up,up,0.4168253999669105,0.7338076162498868,,psi_staircase_training,cRDM,,0.06447903911685147,0.06954222446062751,0.0767012018235253,210.62934810004663,90,23,male,True,2105,2109,False,False,expiration,inspiration
32,0.06,25,down,down,0.4712037000572309,1.688582449099538,,psi_staircase_training,cRDM,,0.05512527674218701,0.059944365972074615,0.07300343766430684,213.01264710002582,90,23,male,True,2129,2134,False,False,expiration,expiration
33,0.05,25,down,down,0.8566742000402883,1.81895733773598,,psi_staircase_training,cRDM,,0.04725350084921385,0.051726898301245584,0.06776662071573335,215.57915040000807,90,23,male,True,2155,2164,False,False,inspiration,expiration
34,0.04,25,down,up,0.8677710999036208,0.8175612186211436,,psi_staircase_training,cRDM,,0.04050667600155933,0.04465105192729081,0.06278233813874594,217.52909269998784,90,23,male,True,2174,2183,False,False,expiration,inspiration
35,0.08,25,up,up,0.5181376000400633,0.42821436955737135,,psi_staircase_training,cRDM,,0.06209221031275786,0.06728864965857488,0.07871984056778937,219.09573790000286,90,23,male,True,2190,2195,False,False,inspiration,expiration
36,0.07,25,up,up,0.6145730999996886,1.9284237158581008,,psi_staircase_training,cRDM,,0.056085876841621335,0.060843673147853876,0.07207492318410927,221.81227110000327,90,23,male,True,2217,2223,False,False,inspiration,inspiration
37,0.07,25,down,down,0.4449815999250859,0.774521458288539,,psi_staircase_training,cRDM,,0.05127957769272886,0.05562737057187345,0.06586386167357856,223.4788684999803,90,23,male,True,2234,2238,False,False,expiration,expiration
38,0.07,25,down,down,0.4416681000730023,0.606629377746655,,psi_staircase_training,cRDM,,0.047679099893535984,0.05160702352170723,0.059503344731810626,224.81219930003866,90,23,male,True,2247,2251,False,False,expiration,expiration
39,0.06,25,up,down,0.4184352000011131,1.6239039753041469,,psi_staircase_training,cRDM,,0.045042945677494325,0.04856313610538995,0.05332667444204224,227.1454072999768,90,23,male,True,2270,2274,False,False,expiration,expiration
40,0.09,25,up,up,0.5751854999689385,1.076265897912546,,psi_staircase_training,cRDM,,0.05863790048035316,0.06385482612022983,0.07903018341889936,228.9286868000636,90,23,male,True,2288,2294,False,False,expiration,inspiration
41,0.09,25,up,down,0.6112304000416771,0.4980205711689559,,psi_staircase_training,cRDM,,0.05554912766680969,0.06029968041460565,0.07196519193789931,230.2786128000589,90,23,male,True,2301,2307,False,False,inspiration,expiration
42,0.1,25,up,up,0.4396189000690356,0.6268071041230106,,psi_staircase_training,cRDM,,0.07133759299848492,0.07942069374763391,0.12244930805910267,231.79521350003782,90,23,male,True,2317,2321,False,False,expiration,expiration
43,0.1,25,down,down,0.5840023999335244,0.4498931501659361,,psi_staircase_training,cRDM,,0.06550144729846387,0.07333300485678061,0.11863872959172055,232.96185459999836,90,23,male,True,2328,2334,False,False,inspiration,inspiration
44,0.1,25,down,down,0.8820878000697121,1.0468180582016808,,psi_staircase_training,cRDM,,0.06081308780943701,0.06834759861789172,0.1141388266323716,234.86179190000985,90,23,male,True,2347,2356,False,False,expiration,expiration
45,0.09,25,down,down,0.4281406999798492,1.4347428711496697,,psi_staircase_training,cRDM,,0.05709451636177694,0.06429814569153501,0.10912636800128972,237.4617202000227,90,23,male,True,2373,2377,False,False,expiration,expiration
46,0.09,25,up,up,0.5491887000389397,0.4177751738419437,,psi_staircase_training,cRDM,,0.05394147691490138,0.060813880514932764,0.10410869437886526,238.56166750006375,90,23,male,True,2384,2389,False,False,expiration,expiration
47,0.09,25,up,up,0.5670629000524059,0.6153370425600355,,psi_staircase_training,cRDM,,0.05148152550060952,0.05799589346333854,0.09868488272431053,239.9948794000084,90,23,male,True,2399,2405,False,False,inspiration,inspiration
48,0.09,25,down,down,0.5373718000482768,1.5359213485623682,,psi_staircase_training,cRDM,,0.049613618793253086,0.05575184152195272,0.09298673234043987,242.36152050003875,90,23,male,True,2422,2427,False,False,expiration,expiration
49,0.09,25,down,down,0.4897433000151068,0.6381427067552483,,psi_staircase_training,cRDM,,0.0482487400793608,0.05400059925398746,0.08713378663016022,243.82813470007386,90,23,male,True,2437,2442,False,False,inspiration,inspiration
50,0.08,25,up,up,0.43283860001247376,1.5386077222231451,,psi_staircase_training,cRDM,,0.04730803768179395,0.05267048986859815,0.08123473653886196,246.1280377000803,90,23,male,True,2460,2464,False,False,expiration,expiration
51,0.08,25,up,down,0.4459106000140309,1.7339958847943822,,psi_staircase_training,cRDM,,0.04631879112650615,0.05133597090434012,0.07600427252729366,248.57792820001487,90,23,male,True,2484,2488,False,False,inspiration,inspiration
52,100.0,25,M,down,0.4171033999882639,0.4891874715961332,,psi_staircase_training,emotion,,100.0,100.0,25.00050000000001,256.0776496999897,90,23,male,True,2559,2563,False,False,inspiration,expiration
53,145.0,25,M,up,0.4266273999819532,0.3449579364663011,,psi_staircase_training,emotion,,145.25719053245996,145.25719053245996,25.000500000000283,257.19419569999445,90,23,male,True,2571,2575,False,False,expiration,expiration
54,121.0,25,F,up,0.5603147000074387,1.1266782022004636,,psi_staircase_training,emotion,,120.36392901436103,120.36392901436103,25.71326925488699,259.07754279999057,90,23,male,True,2589,2595,False,False,inspiration,peak
55,97.0,25,F,down,0.850446299999021,0.9175691592028375,,psi_staircase_training,emotion,,102.38876106084959,102.38876106084959,26.14633372628729,260.89442889997736,90,23,male,True,2608,2617,False,False,expiration,trough
56,113.0,25,M,up,0.9225661000236868,1.7797632100920404,,psi_staircase_training,emotion,,114.01123255420406,114.01123255420406,23.003056417783352,263.89431230002083,90,23,male,True,2638,2647,False,False,expiration,expiration
57,105.0,25,F,up,0.6805099999764934,0.972063338484456,,psi_staircase_training,emotion,,104.94359593877377,104.94359593877377,22.15060322358215,266.1273177000694,90,23,male,True,2660,2667,False,False,inspiration,inspiration
58,92.0,25,M,down,0.6646316000260413,1.0418375481818876,,psi_staircase_training,emotion,,97.32104229908207,97.32104229908207,23.933073614490553,268.1772069000872,90,23,male,True,2680,2687,False,False,expiration,expiration
59,95.0,25,F,down,0.6410044999793172,0.5596491778512427,,psi_staircase_training,emotion,,102.844886035729,102.844886035729,20.021669804154055,269.7438356999773,90,23,male,True,2696,2702,False,False,inspiration,inspiration
60,108.0,25,F,up,0.7867674999870359,1.7118720662816942,,psi_staircase_training,emotion,,105.64949659566051,105.64949659566051,16.907117635955938,272.427094600047,90,23,male,True,2723,2731,False,False,inspiration,inspiration
61,103.0,25,M,up,0.7009098998969421,1.5193263757285072,,psi_staircase_training,emotion,,102.66278123067144,102.66278123067144,13.849209143468027,275.07696179999044,90,23,male,True,2749,2756,False,False,expiration,expiration
62,96.0,25,F,down,0.816931499983184,1.25138735269798,,psi_staircase_training,emotion,,100.0777445058133,100.0777445058133,13.420456935215757,277.37684959999746,90,23,male,True,2772,2780,False,False,peak,expiration
63,104.0,25,F,up,0.9589933999814092,1.6363581252671806,,psi_staircase_training,emotion,,101.77192950809861,101.77192950809861,10.185730945978976,280.1767942000879,90,23,male,True,2800,2810,False,False,inspiration,expiration
64,101.0,25,F,up,0.6028055000351742,1.7357964812183717,,psi_staircase_training,emotion,,100.66270445443752,100.66270445443752,7.985083885485027,283.21000900003133,90,23,male,True,2831,2837,False,False,expiration,inspiration
65,97.0,25,M,down,0.8227019000332803,1.5199007239353437,,psi_staircase_training,emotion,,99.07890358004008,99.07890358004008,9.015443994887637,285.69312770001125,90,23,male,True,2856,2864,False,False,expiration,expiration
66,99.0,25,M,up,0.7236422999994829,0.5358865822902014,,psi_staircase_training,emotion,,100.22523716367552,100.22523716367552,6.429635775138579,287.39320779999247,90,23,male,True,2873,2880,False,False,inspiration,inspiration
67,93.0,25,F,up,0.6741686000023037,0.9402141456949602,,psi_staircase_training,emotion,,98.5475499465522,98.5475499465522,10.416572117534685,289.40982860000804,90,23,male,True,2893,2900,False,False,expiration,expiration
68,83.0,25,F,up,0.6455011999933049,1.8386194559359168,,psi_staircase_training,emotion,,94.51000419811571,94.51000419811571,21.65852037562955,292.276332700043,90,23,male,True,2921,2927,False,False,expiration,expiration
69,69.0,25,M,up,0.7185568999266252,1.640988106026758,,psi_staircase_training,emotion,,88.81350047002499,88.81350047002499,30.911562017645647,294.92627360008186,90,23,male,True,2948,2955,False,False,trough,inspiration
70,59.0,25,M,down,0.5917211999185383,1.1222501311771995,,psi_staircase_training,emotion,,82.66519256167288,82.66519256167288,36.638660512633635,297.1261467000004,90,23,male,True,2970,2976,False,False,expiration,expiration
71,60.0,25,M,down,0.549876399920322,1.0308919557092189,,psi_staircase_training,emotion,,84.73658299655462,84.73658299655462,35.49467768893353,299.09303109999746,90,23,male,True,2990,2995,False,False,inspiration,inspiration
72,61.0,25,M,down,0.5631787999300286,1.6273250586519232,,psi_staircase_training,emotion,,86.49807183534338,86.49807183534338,34.36212280935852,301.6426698000869,90,23,male,True,3015,3021,False,False,expiration,expiration
73,62.0,25,F,down,0.5359420001041144,0.3116934027929554,,psi_staircase_training,emotion,,88.00515461286787,88.00515461286787,33.2471742341446,302.8759493000107,90,23,male,True,3027,3032,False,False,expiration,expiration
74,62.0,25,F,up,0.8605993000091985,0.5623161472019598,,psi_staircase_training,emotion,,89.30001436975536,89.30001436975536,32.155688963145586,304.3092388000805,90,23,male,True,3042,3051,False,False,inspiration,expiration
75,56.0,25,F,down,0.6736878999508917,1.0772153421466413,,psi_staircase_training,emotion,,84.98355043884682,84.98355043884682,36.335599058587434,306.6091616000049,90,23,male,True,3065,3072,False,False,inspiration,inspiration
76,56.0,25,M,down,0.7501040999777615,0.9003635457810895,,psi_staircase_training,emotion,,86.1732471896117,86.1732471896117,35.56153047640167,308.5257521000458,90,23,male,True,3084,3092,False,False,expiration,expiration
77,57.0,25,M,down,0.7821770999580622,0.8290646670532453,,psi_staircase_training,emotion,,87.20857947968052,87.20857947968052,34.8047175302841,310.47565819998266,90,23,male,True,3103,3111,False,False,expiration,inspiration
78,57.0,25,F,down,0.6459098999621347,1.6032126503582276,,psi_staircase_training,emotion,,88.13918970689645,88.13918970689645,34.059744323943235,313.2089101000456,90,23,male,True,3131,3137,False,False,expiration,expiration
79,120.0,25,F,up,0.6816977999405935,1.2311577928514663,,psi_staircase_training,emotion,,88.95136137570667,88.95136137570667,33.335834393861184,315.44216209999286,90,23,male,True,3153,3160,False,False,inspiration,inspiration
80,58.0,25,M,down,0.7363908999832347,0.3904389640098955,,psi_staircase_training,emotion,,88.17535193449508,88.17535193449508,32.58056745919099,316.87542290007696,90,23,male,True,3167,3174,False,False,expiration,expiration
81,120.0,25,M,up,0.6341262999922037,1.3752030004669114,,psi_staircase_training,emotion,,88.90851315835467,88.90851315835467,31.83138473081075,319.30868750007363,90,23,male,True,3192,3198,False,False,inspiration,inspiration
82,0.29,25,up,up,0.6353338999906555,1.9993120195381104,,psi_staircase,cRDM,,0.25,0.25693124029946324,0.10500000000000002,370.32348500005895,90,23,male,True,3702,3708,False,False,expiration,inspiration
83,0.25,25,up,up,0.44087320007383823,1.7539658305080523,,psi_staircase,cRDM,,0.21910266653183127,0.2260132002683493,0.10468632033873933,372.9900201000273,90,23,male,True,3729,3733,False,False,expiration,expiration
84,0.21,25,down,down,0.5025222999975085,0.7878266957006754,,psi_staircase,cRDM,,0.1900540959403307,0.19684979615540016,0.10294672984249993,374.47332039999316,90,23,male,True,3743,3748,False,False,expiration,expiration
85,0.18,25,down,down,0.5119353000773117,1.005499851114796,,psi_staircase,cRDM,,0.1635257589279754,0.1701521334256793,0.100381647756865,376.2399250000017,90,23,male,True,3761,3766,False,False,inspiration,inspiration
86,0.15,25,up,up,0.5000045000342652,0.7716477523975056,,psi_staircase,cRDM,,0.14018955742449365,0.14660133511875031,0.0971307628663642,377.78984350000974,90,23,male,True,3777,3782,False,False,expiration,expiration
87,0.13,25,down,down,0.4746941999765113,1.3736316837846303,,psi_staircase,cRDM,,0.11987606021454796,0.12605547676183335,0.09361076941961036,379.9231267999857,90,23,male,True,3798,3803,False,False,inspiration,inspiration
88,0.11,25,up,up,0.4614747000159696,1.7898638617111282,,psi_staircase,cRDM,,0.10257735236965487,0.10849103445698656,0.08958521019937955,382.4563624000875,90,23,male,True,3823,3828,False,False,expiration,expiration
89,0.09,25,down,down,0.6072149000829086,1.7578251940712777,,psi_staircase,cRDM,,0.08784432595859408,0.09348182153209693,0.08540131486476357,384.9396115000127,90,23,male,True,3848,3854,False,False,expiration,inspiration
90,0.08,25,down,down,1.1862703999504447,0.6330459922590574,,psi_staircase,cRDM,,0.07518520921180863,0.0805556301471181,0.08135545354720439,386.43954539997503,90,23,male,True,3863,3875,False,False,inspiration,expiration
91,0.06,25,up,down,0.9173883000621572,1.5115840536326857,,psi_staircase,cRDM,,0.06447903911685147,0.06954222446062751,0.0767012018235253,389.3894791000057,90,23,male,True,3893,3902,False,False,inspiration,inspiration
92,0.11,25,down,down,0.5672113000182435,1.9460154886249224,,psi_staircase,cRDM,,0.0948602595780939,0.10071627432598904,0.08871161898348927,392.52264480001764,90,23,male,True,3924,3930,False,False,expiration,inspiration
93,0.1,25,down,down,0.6338845000136644,0.5991728424386398,,psi_staircase,cRDM,,0.08505363728379163,0.09053308292944777,0.08300704750323673,393.9559132000432,90,23,male,True,3938,3944,False,False,inspiration,expiration
94,0.1,25,down,down,0.7706476999446751,0.8728182587299251,,psi_staircase,cRDM,,0.07734387123035197,0.08244821182855559,0.0773246547018264,395.7392050999915,90,23,male,True,3956,3964,False,False,expiration,expiration
95,0.09,25,up,up,0.9220473999157548,1.615617947763846,,psi_staircase,cRDM,,0.07162362637496901,0.07632158084494688,0.07116839094236507,398.40580389997916,90,23,male,True,3983,3992,False,False,expiration,expiration
96,0.09,25,up,up,0.5511189999524504,1.3081588177078782,,psi_staircase,cRDM,,0.06694277573534929,0.0713045448116411,0.06607558434326745,400.9056826999877,90,23,male,True,4008,4014,False,False,inspiration,inspiration
97,0.07,25,down,down,0.5552893999265507,1.7957334231691444,,psi_staircase,cRDM,,0.06348035897030117,0.06749219551450057,0.06077452504042554,403.50559279997833,90,23,male,True,4034,4040,False,False,expiration,expiration
98,0.07,25,down,up,0.5154199000680819,1.0508282696558722,,psi_staircase,cRDM,,0.059063314955253125,0.06307706914553303,0.060803575084826464,405.3724313999992,90,23,male,True,4053,4058,False,False,inspiration,inspiration
99,0.1,25,up,up,0.5081024999963121,1.9500641911574037,,psi_staircase,cRDM,,0.0726555062278858,0.07693285910352601,0.06479677987459198,408.08876850001985,90,23,male,True,4080,4085,False,False,expiration,expiration
100,0.1,25,up,up,0.4917551999678835,0.7669147439090297,,psi_staircase,cRDM,,0.07019811606276577,0.07406331429366332,0.05855312998968897,409.62203010008665,90,23,male,True,4095,4100,False,False,inspiration,inspiration
101,0.1,25,up,up,0.5121457000495866,0.4300777343829214,,psi_staircase,cRDM,,0.06860870537729309,0.0720909090107849,0.05275121994326945,410.78870270005433,90,23,male,True,4107,4112,False,False,expiration,expiration
102,0.08,25,up,up,0.8236539999488741,1.0161031455501637,,psi_staircase,cRDM,,0.06764344855959839,0.07077708249595603,0.0474708059599419,412.5721884000814,90,23,male,True,4125,4133,False,False,expiration,inspiration
103,0.08,25,down,down,0.4329962000483647,1.8572982457839433,,psi_staircase,cRDM,,0.06551277449031809,0.06855640420445694,0.04610734964842096,415.5218234000495,90,23,male,True,4154,4158,False,False,expiration,expiration
104,0.08,25,down,down,0.4717831999296322,0.7886647479954858,,psi_staircase,cRDM,,0.06377352959333144,0.06670052508541208,0.044340480691784236,417.0050908999983,90,23,male,True,4169,4174,False,False,inspiration,inspiration
105,0.07,25,down,down,0.7327884000260383,1.305020112327189,,psi_staircase,cRDM,,0.06238263975444069,0.06517462168906231,0.04229518678756107,419.05504220002337,90,23,male,True,4189,4196,False,False,expiration,expiration
106,0.06,25,up,down,0.7132601999910548,1.6211485551775002,,psi_staircase,cRDM,,0.059946453185111125,0.06282329593397468,0.0435807266203228,421.6715876000235,90,23,male,True,4216,4223,False,False,inspiration,expiration
107,0.08,25,up,down,0.8293159999884665,1.476720086743201,,psi_staircase,cRDM,,0.06697391684081598,0.06918272128959475,0.033460745422392885,424.12150420004036,90,23,male,True,4240,4248,False,False,expiration,inspiration
108,0.1,25,down,down,0.5944201999809593,1.0129149658287826,,psi_staircase,cRDM,,0.07219441464700865,0.0750586449991521,0.043389663895847266,426.2214095999952,90,23,male,True,4261,4267,False,False,expiration,expiration
109,0.1,25,down,down,0.7545117000117898,1.5521703078401392,,psi_staircase,cRDM,,0.07171038672381873,0.07426677702388744,0.03872625531796956,428.6213314000052,90,23,male,True,4285,4293,False,False,inspiration,inspiration
110,0.08,25,up,up,0.7088761000195518,1.3046464163244138,,psi_staircase,cRDM,,0.07149124598939928,0.07377953852095158,0.03466489479979458,430.9379200000549,90,23,male,True,4308,4315,False,False,expiration,expiration
111,0.08,25,up,up,0.5493378000101075,0.7705403915619922,,psi_staircase,cRDM,,0.07013030557084353,0.0723794773868904,0.03407226275262913,432.67144330008887,90,23,male,True,4326,4331,False,False,inspiration,inspiration
112,0.08,25,down,down,0.7156977000413463,0.5749712834208154,,psi_staircase,cRDM,,0.06896624440595571,0.07116071283440037,0.03324357186181105,434.07113200007007,90,23,male,True,4340,4347,False,False,expiration,expiration
113,0.08,25,up,down,0.5987841000314802,1.821383456744692,,psi_staircase,cRDM,,0.06798680117417677,0.07011437178702416,0.03223014997276517,436.8710486000637,90,23,male,True,4368,4374,False,False,inspiration,inspiration
114,0.1,25,down,down,0.6392137000802904,0.4067092509492132,,psi_staircase,cRDM,,0.07192599900143767,0.07442196629183331,0.03781091899408491,438.13764400000224,90,23,male,True,4380,4386,False,False,expiration,expiration
115,0.1,25,up,up,0.7705799000104889,1.9520711951655447,,psi_staircase,cRDM,,0.07196871644015485,0.0742082595329004,0.0339263991116414,441.0042107000481,90,23,male,True,4409,4417,False,False,peak,expiration
116,0.08,25,down,down,0.6360999000025913,1.1318256372800404,,psi_staircase,cRDM,,0.07211595442218115,0.07413339008096187,0.03056173715235062,443.17074670002336,90,23,male,True,4431,4437,False,False,trough,inspiration
117,0.08,25,up,down,0.5307486000237986,0.642218205242991,,psi_staircase,cRDM,,0.07102383096602413,0.07303411595711491,0.030453413089844693,444.70408340008,90,23,male,True,4446,4451,False,False,expiration,expiration
118,0.11,25,down,down,0.5844539001118392,0.3410084737702593,,psi_staircase,cRDM,,0.07484941949045795,0.07693556633473107,0.031602629426314977,445.837359600002,90,23,male,True,4457,4463,False,False,expiration,expiration
119,0.1,25,up,down,0.4698953999904916,0.6639737148278951,,psi_staircase,cRDM,,0.07503825472149676,0.07691675355519363,0.02845701043627702,447.3539379000431,90,23,male,True,4472,4477,False,False,inspiration,inspiration
120,0.11,25,up,down,0.8058990000281483,1.5663927975534768,,psi_staircase,cRDM,,0.07293317536159435,0.07741186330439308,0.06784676532283583,449.6538896000711,90,23,male,True,4495,4503,False,False,expiration,trough
121,0.12,25,down,down,0.7264033999526873,0.8457104831479874,,psi_staircase,cRDM,,0.07551576963703899,0.0836928823273987,0.12387347651967248,451.57043279998464,90,23,male,True,4515,4522,False,False,inspiration,expiration
122,0.12,25,down,down,0.5346769000170752,0.8190699719804857,,psi_staircase,cRDM,,0.07290944415269776,0.08076627752947238,0.1190216280086576,453.3871742000337,90,23,male,True,4533,4538,False,False,expiration,expiration
123,0.12,25,down,down,0.814769700053148,1.2119749853724198,,psi_staircase,cRDM,,0.07080704709797922,0.07832235108690447,0.1138478662899996,455.3870394000552,90,23,male,True,4553,4561,False,False,peak,expiration
124,0.12,25,up,down,0.9168680000584573,1.4606927281715083,,psi_staircase,cRDM,,0.06916443571602174,0.07632065541948005,0.10840816887005203,457.9369224000257,90,23,male,True,4578,4587,False,False,inspiration,inspiration
125,0.13,25,up,up,0.5229757999768481,1.9294416116980415,,psi_staircase,cRDM,,0.07639667755790197,0.08575405618893625,0.14175309379111872,461.03681249998044,90,23,male,True,4609,4614,False,False,expiration,inspiration
126,0.12,25,down,down,0.7464389000087976,1.0794138582731878,,psi_staircase,cRDM,,0.07340705781414279,0.08260430135848068,0.13932723876710193,462.9033979000523,90,23,male,True,4628,4635,False,False,expiration,expiration
127,0.12,25,down,down,0.5861594999441877,1.267139880866765,,psi_staircase,cRDM,,0.07065550117944012,0.07968575353877938,0.1367975220544647,465.18668560008524,90,23,male,True,4651,4657,False,False,inspiration,inspiration
128,0.12,25,down,down,0.7709604999981821,1.5803925447855482,,psi_staircase,cRDM,,0.0682233746204068,0.07707120976389359,0.13403411942564653,467.619889200083,90,23,male,True,4675,4683,False,False,expiration,expiration
129,0.12,25,up,up,0.5679686999646947,0.4627105383789388,,psi_staircase,cRDM,,0.06609251476336875,0.07474228328602428,0.13103364702983394,469.11985200003255,90,23,male,True,4690,4696,False,False,expiration,inspiration
130,0.12,25,up,down,0.8227249999763444,0.8412207537909207,,psi_staircase,cRDM,,0.06424913029239357,0.07268504969234374,0.12779408860826233,470.80310660006944,90,23,male,True,4707,4715,False,False,inspiration,expiration
131,0.2,25,up,up,0.5834846999496222,1.5607834560118807,,psi_staircase,cRDM,,0.07212133278608784,0.08171083915239634,0.14526955132984834,473.43634950008715,90,23,male,True,4733,4739,False,False,inspiration,inspiration
132,100.0,25,M,up,0.6130812999326736,0.782699881896844,,psi_staircase,emotion,,100.0,100.0,25.00050000000001,480.8027568000834,90,23,male,True,4807,4813,False,False,expiration,inspiration
133,55.0,25,M,down,0.5154781000455841,0.7574239227850826,,psi_staircase,emotion,,54.742809467541896,54.742809467541896,25.00050000000011,482.51934760005685,90,23,male,True,4824,4829,False,False,inspiration,expiration
134,79.0,25,F,up,1.0379471000051126,0.3887569135057786,,psi_staircase,emotion,,79.636070985635,79.636070985635,25.71326925488641,483.7699103000341,90,23,male,True,4837,4847,False,False,expiration,expiration
135,63.0,25,F,down,0.5862969999434426,1.9057082359732151,,psi_staircase,emotion,,62.164016703383474,62.164016703383474,25.29232598628389,487.05251509998925,90,23,male,True,4869,4875,False,False,expiration,expiration
136,73.0,25,M,down,0.6117046999279411,0.4769316188824246,,psi_staircase,emotion,,73.5393094419089,73.5393094419089,23.64975108561003,488.46909690008033,90,23,male,True,4884,4890,False,False,expiration,expiration
137,87.0,25,F,down,0.6447196999797598,0.3860663095580084,,psi_staircase,emotion,,82.48355301883353,82.48355301883353,24.57617413513036,489.8190933000296,90,23,male,True,4897,4903,False,False,inspiration,inspiration
138,106.0,25,M,up,0.8178311000810936,1.696553947870464,,psi_staircase,emotion,,93.47321971198342,93.47321971198342,30.115701177202173,492.51897420000745,90,23,male,True,4924,4932,False,False,expiration,expiration
139,102.0,25,F,up,0.5692615999141708,0.8617204308365571,,psi_staircase,emotion,,87.30823528954795,87.30823528954795,27.727353430799198,494.5355770000024,90,23,male,True,4944,4950,False,False,inspiration,expiration
140,68.0,25,F,down,0.5156631999416277,0.8027308036148755,,psi_staircase,emotion,,83.44475538654902,83.44475538654902,25.68608228109167,496.2521650000708,90,23,male,True,4961,4966,False,False,expiration,expiration
141,97.0,25,M,down,0.7987494999542832,1.3489272741297829,,psi_staircase,emotion,,86.24064723047103,86.24064723047103,23.87752068767171,498.45206999999937,90,23,male,True,4983,4991,False,False,inspiration,expiration
142,111.0,25,F,up,0.5844549000030383,0.4828967765933441,,psi_staircase,emotion,,93.02999974275616,93.02999974275616,28.47559920864515,500.08538369997405,90,23,male,True,5000,5006,False,False,expiration,expiration
143,109.0,25,F,up,0.761520600062795,1.4545180944193308,,psi_staircase,emotion,,90.35872978789631,90.35872978789631,26.604015150836602,502.48530000005854,90,23,male,True,5024,5032,False,False,peak,expiration
144,72.0,25,F,down,0.6102645000210032,1.3206082569032016,,psi_staircase,emotion,,88.40967319181586,88.40967319181586,24.93229087155934,504.9185321000405,90,23,male,True,5048,5054,False,False,expiration,inspiration
145,108.0,25,M,up,0.675315500004217,0.4614175480443684,,psi_staircase,emotion,,90.28983323775749,90.28983323775749,23.293737689908827,506.3184724000748,90,23,male,True,5062,5069,False,False,inspiration,expiration
146,76.0,25,M,up,0.8478401999454945,0.6446534908934263,,psi_staircase,emotion,,88.89655128314942,88.89655128314942,21.658502096393423,507.9849813000765,90,23,male,True,5079,5087,False,False,expiration,inspiration
147,62.0,25,F,down,0.6439010000322014,1.801730019548992,,psi_staircase,emotion,,84.20983605014321,84.20983605014321,26.199123921360325,510.9848884000676,90,23,male,True,5109,5115,False,False,expiration,expiration
148,107.0,25,F,up,0.7275873000035062,0.6885264081303835,,psi_staircase,emotion,,85.4977055974969,85.4977055974969,24.81592919984672,512.668214000063,90,23,male,True,5126,5133,False,False,expiration,inspiration
149,64.0,25,M,down,0.8986116999294609,0.3833795707343816,,psi_staircase,emotion,,84.43622080349098,84.43622080349098,23.55459484657761,514.1181925000856,90,23,male,True,5140,5149,False,False,inspiration,expiration
150,105.0,25,M,up,0.5111310000065714,1.6359684496449265,,psi_staircase,emotion,,85.48729449114259,85.48729449114259,22.250046438820764,516.9847462000325,90,23,male,True,5169,5174,False,False,inspiration,inspiration
151,65.0,25,M,up,0.9735283000627531,1.6949739335168077,,psi_staircase,emotion,,84.60087290187512,84.60087290187512,21.07970480014613,519.5513092000036,90,23,male,True,5194,5204,False,False,expiration,expiration
152,56.0,25,M,up,0.6279274999396876,0.8429183268919991,,psi_staircase,emotion,,80.64539060020995,80.64539060020995,26.5828923312432,521.7178775999928,90,23,male,True,5216,5222,False,False,inspiration,expiration
153,49.0,25,F,down,0.8970045999158174,1.5128167129980732,,psi_staircase,emotion,,76.26401454224467,76.26401454224467,31.924284162086373,524.2178170999978,90,23,male,True,5241,5250,False,False,trough,inspiration
154,49.0,25,F,down,0.8580381999490783,0.36072123182087373,,psi_staircase,emotion,,77.40653357654578,77.40653357654578,30.906098713276197,525.8177552000852,90,23,male,True,5257,5266,False,False,expiration,expiration
155,50.0,25,F,down,0.9405128000071272,1.3824959386984506,,psi_staircase,emotion,,78.3559003297508,78.3559003297508,29.949600938046068,528.4343291000697,90,23,male,True,5283,5292,False,False,inspiration,expiration
156,106.0,25,M,up,0.6493663999717683,1.654272927571844,,psi_staircase,emotion,,79.17623508463713,79.17623508463713,29.042849051084772,531.367452400038,90,23,male,True,5313,5319,False,False,expiration,inspiration
157,51.0,25,M,down,0.7986305000958964,0.722914553252465,,psi_staircase,emotion,,78.37843833753978,78.37843833753978,28.137381480997067,533.0841971000192,90,23,male,True,5330,5338,False,False,expiration,expiration
158,105.0,25,F,up,0.6260753000387922,1.6624150114618093,,psi_staircase,emotion,,79.09006851030856,79.09006851030856,27.25254441085273,535.900735400035,90,23,male,True,5358,5364,False,False,inspiration,expiration
159,52.0,25,F,down,0.6304562999866903,0.3090389310230069,,psi_staircase,emotion,,78.3922146405498,78.3922146405498,26.378961926992122,537.2173406999791,90,23,male,True,5371,5377,False,False,expiration,expiration
160,104.0,25,M,up,0.6622688000788912,1.9488960555907613,,psi_staircase,emotion,,79.01221196353616,79.01221196353616,25.54032623629413,540.1505649000173,90,23,male,True,5400,5407,False,False,peak,expiration
161,53.0,25,M,up,0.6006645999150351,0.6082251748925456,,psi_staircase,emotion,,78.39764284647167,78.39764284647167,24.72045168340437,541.7671685999958,90,23,male,True,5417,5423,False,False,expiration,expiration
162,46.0,25,F,down,0.5660187999019399,0.4526127580090416,,psi_staircase,emotion,,75.46492031068105,75.46492031068105,28.894163420655907,543.183798699989,90,23,male,True,5431,5437,False,False,inspiration,peak
163,104.0,25,M,up,0.5004318000283092,1.1197496022818316,,psi_staircase,emotion,,76.05833833953031,76.05833833953031,28.12041894274441,545.2003824000711,90,23,male,True,5451,5456,False,False,expiration,expiration
164,47.0,25,F,down,0.7338795999530703,1.5516083075865692,,psi_staircase,emotion,,75.49628104257944,75.49628104257944,27.382271687896925,547.6169522000711,90,23,male,True,5475,5482,False,False,inspiration,expiration
165,103.0,25,M,up,0.5950728000607342,0.8514005109336018,,psi_staircase,emotion,,76.02539948339522,76.02539948339522,26.6478599686237,549.5667271000566,90,23,male,True,5495,5501,False,False,expiration,inspiration
166,48.0,25,F,down,0.6051117000170052,1.2379287246446284,,psi_staircase,emotion,,75.51557208510688,75.51557208510688,25.94890045684409,551.7667135000229,90,23,male,True,5517,5523,False,False,expiration,expiration
167,102.0,25,M,up,0.5210965001024306,1.0359205493806911,,psi_staircase,emotion,,75.98995753206451,75.98995753206451,25.265694948122643,553.7666971000143,90,23,male,True,5537,5542,False,False,expiration,inspiration
168,49.0,25,F,down,0.7713013000320643,1.8279146741963692,,psi_staircase,emotion,,75.52373103647211,75.52373103647211,24.615770229094306,556.4665267000673,90,23,male,True,5564,5572,False,False,expiration,expiration
169,100.0,25,M,up,0.6502722000004724,0.735855206882579,,psi_staircase,emotion,,75.95244682736035,75.95244682736035,23.990523893884312,558.3165631999727,90,23,male,True,5582,5589,False,False,inspiration,inspiration
170,51.0,25,M,down,0.6067310000071302,0.8800693829814035,,psi_staircase,emotion,,75.499823075937,75.499823075937,23.386449473855766,560.1830087000271,90,23,male,True,5601,5607,False,False,expiration,expiration
171,99.0,25,F,up,0.5790145000210032,1.8514514994068236,,psi_staircase,emotion,,75.91188143376971,75.91188143376971,22.811786578276553,562.9997343000723,90,23,male,True,5629,5635,False,False,peak,expiration
172,52.0,25,F,down,0.679502599989064,0.4458876620920078,,psi_staircase,emotion,,75.48955619331058,75.48955619331058,22.26218845301899,564.3663250000683,90,23,male,True,5643,5650,False,False,expiration,expiration
173,97.0,25,F,up,1.1268966000061482,0.7985629149309164,,psi_staircase,emotion,,75.87031289929712,75.87031289929712,21.74590718213408,566.1829193000449,90,23,male,True,5661,5672,False,False,inspiration,expiration
174,96.0,25,M,up,0.8202632999746129,0.6373570950762989,,psi_staircase,emotion,,75.44926362062782,75.44926362062782,21.242313468018093,568.2995343999937,90,23,male,True,5682,5690,False,False,expiration,inspiration
175,54.0,25,M,down,0.7173000000184402,0.7631976306608981,,psi_staircase,emotion,,75.04963733188066,75.04963733188066,20.77415663242649,570.2494576000609,90,23,male,True,5701,5708,False,False,expiration,expiration
176,95.0,25,F,up,0.69007180002518,0.31352174091127466,,psi_staircase,emotion,,75.42583363291234,75.42583363291234,20.317328272631396,571.6327398000285,90,23,male,True,5715,5722,False,False,expiration,inspiration
177,55.0,25,F,down,0.6757805000524968,0.8452355359169741,,psi_staircase,emotion,,75.0416805973148,75.0416805973148,19.892397117959327,573.5160106000258,90,23,male,True,5734,5741,False,False,inspiration,expiration
178,94.0,25,F,up,1.0168264000676572,0.6682588024511764,,psi_staircase,emotion,,75.3980284911358,75.3980284911358,19.48302782659566,575.2159430000464,90,23,male,True,5751,5761,False,False,expiration,inspiration
179,93.0,25,M,up,0.7032629000023007,0.4501617379915085,,psi_staircase,emotion,,75.02555167501562,75.02555167501562,19.096085144473726,577.0325516000157,90,23,male,True,5769,5776,False,False,peak,expiration
180,57.0,25,M,down,0.5902277999557555,1.9716881318409896,,psi_staircase,emotion,,74.66292788127683,74.66292788127683,18.733145681450647,580.0655820000684,90,23,male,True,5800,5806,False,False,inspiration,expiration
181,91.0,25,M,up,0.7562289999332279,0.8707836977175254,,psi_staircase,emotion,,75.025897486742,75.025897486742,18.369505119720756,581.8655330999753,90,23,male,True,5818,5826,False,False,expiration,trough
182,0.07037761672623097,25,down,down,0.6293449000222608,1.360055403068139,,experiment,cRDM,0.0,,,,588.615446700016,90,23,male,True,5885,5891,False,False,inspiration,expiration
183,0.07037761672623097,25,up,down,0.8184285999741405,0.3673417836350492,,experiment,cRDM,0.0,,,,589.8653924000682,90,23,male,True,5897,5905,False,False,expiration,expiration
184,0.07037761672623097,25,down,down,0.4965162000153214,1.9594047476665135,,experiment,cRDM,0.0,,,,592.9152902000351,90,23,male,True,5928,5933,False,False,expiration,expiration
185,0.07037761672623097,25,up,up,0.6526097001042217,1.5458821594293486,,experiment,cRDM,0.0,,,,595.2152187000029,90,23,male,True,5951,5958,False,False,expiration,inspiration
186,0.07037761672623097,25,down,down,0.5416531999362633,0.8937183865139362,,experiment,cRDM,0.0,,,,597.0151344999904,90,23,male,True,5969,5974,False,False,expiration,expiration
187,0.07037761672623097,25,down,down,0.6243311000289395,1.5373962616730106,,experiment,cRDM,0.0,,,,599.3484071000713,90,23,male,True,5992,5998,False,False,inspiration,expiration
188,0.07037761672623097,25,up,up,0.4931355000007898,0.8958176341637063,,experiment,cRDM,0.0,,,,601.1316530000186,90,23,male,True,6010,6015,False,False,expiration,expiration
189,0.07037761672623097,25,down,down,0.6739242000039667,1.9652394594801164,,experiment,cRDM,0.0,,,,603.8648756999755,90,23,male,True,6037,6044,False,False,expiration,expiration
190,0.07037761672623097,25,up,up,0.5069628000492229,1.314123500998034,,experiment,cRDM,0.0,,,,606.1148055000231,90,23,male,True,6060,6065,False,False,trough,inspiration
191,0.07037761672623097,25,up,down,0.5901132000144571,0.9956526717306728,,experiment,cRDM,0.0,,,,607.8817167000378,90,23,male,True,6078,6084,False,False,expiration,expiration
192,0.07037761672623097,25,down,down,0.5394182000309229,0.8081806709577883,,experiment,cRDM,0.0,,,,609.5313498000613,90,23,male,True,6094,6099,False,False,expiration,inspiration
193,0.07037761672623097,25,up,down,0.5076605000067502,0.8600756855729051,,experiment,cRDM,0.0,,,,611.1811513000866,90,23,male,True,6111,6116,False,False,expiration,expiration
194,0.07037761672623097,25,up,up,0.8939794000471011,1.70531525278499,,experiment,cRDM,0.0,,,,613.6478509000734,90,23,male,True,6135,6144,False,False,inspiration,expiration
195,0.07037761672623097,25,up,down,0.7906757000600919,0.9240118544123554,,experiment,cRDM,0.0,,,,615.7311219000258,90,23,male,True,6156,6164,False,False,expiration,inspiration
196,0.07037761672623097,25,down,down,0.5134506999747828,0.6700253077219621,,experiment,cRDM,0.0,,,,617.4643519000382,90,23,male,True,6173,6178,False,False,peak,expiration
197,0.07037761672623097,25,down,down,0.5200961999362335,0.9703860715890597,,experiment,cRDM,0.0,,,,619.1977086000842,90,23,male,True,6191,6196,False,False,expiration,inspiration
198,0.07037761672623097,25,up,up,1.1292491999920458,1.4720907726157342,,experiment,cRDM,0.0,,,,621.447581000044,90,23,male,True,6213,6224,False,False,expiration,expiration
199,0.07037761672623097,25,up,down,0.5253076000371948,1.2664097598886972,,experiment,cRDM,0.0,,,,624.0975123000097,90,23,male,True,6240,6245,False,False,inspiration,inspiration
200,0.07037761672623097,25,down,down,0.8523571999976411,0.4053182190389117,,experiment,cRDM,0.0,,,,625.2974572000094,90,23,male,True,6252,6261,False,False,expiration,expiration
201,0.07037761672623097,25,down,down,0.6821441999636589,1.5181070515865676,,experiment,cRDM,0.0,,,,627.9306739000604,90,23,male,True,6278,6285,False,False,inspiration,expiration
202,0.07037761672623097,25,up,up,0.7672355000395328,1.899748107039818,,experiment,cRDM,0.0,,,,630.7805366000392,90,23,male,True,6307,6315,False,False,inspiration,expiration
203,0.07037761672623097,25,down,down,0.68008550000377,1.1622961571437838,,experiment,cRDM,0.0,,,,632.9636953000445,90,23,male,True,6329,6336,False,False,expiration,inspiration
204,0.07037761672623097,25,up,down,0.710719499969855,1.1049254154553896,,experiment,cRDM,0.0,,,,634.9970838000299,90,23,male,True,6349,6356,False,False,expiration,expiration
205,0.07037761672623097,25,down,up,0.5751367999473587,1.0376604305975414,,experiment,cRDM,0.0,,,,637.0136790000834,90,23,male,True,6369,6375,False,False,inspiration,inspiration
206,0.07037761672623097,25,down,down,0.5552134999306872,0.9087491070907212,,experiment,cRDM,0.0,,,,638.7635895999847,90,23,male,True,6386,6392,False,False,expiration,expiration
207,0.07037761672623097,25,up,up,0.811940599931404,1.2940361101308735,,experiment,cRDM,0.0,,,,640.8968891000842,90,23,male,True,6408,6416,False,False,expiration,inspiration
208,0.07037761672623097,25,up,up,0.5034077999880537,1.991560495757688,,experiment,cRDM,0.0,,,,643.9634034000337,90,23,male,True,6438,6443,False,False,expiration,inspiration
209,0.07037761672623097,25,down,down,0.5674644000828266,1.4864281811531366,,experiment,cRDM,0.0,,,,646.2133579000365,90,23,male,True,6461,6467,False,False,expiration,expiration
210,0.07037761672623097,25,up,up,0.5621761999791488,1.401364621372746,,experiment,cRDM,0.0,,,,648.44658540003,90,23,male,True,6483,6489,False,False,inspiration,inspiration
211,0.07037761672623097,25,down,down,0.6225582999177277,0.5475138133062863,,experiment,cRDM,0.0,,,,649.8132013999857,90,23,male,True,6497,6503,False,False,expiration,expiration
212,0.07037761672623097,25,up,down,0.5209452999988571,0.8805265514614611,,experiment,cRDM,0.0,,,,651.5798411000287,90,23,male,True,6515,6520,False,False,inspiration,inspiration
213,0.07037761672623097,25,down,,,0.4330960738825522,,experiment,cRDM,0.0,,,,652.7964371000418,90,23,male,True,6527,0,False,False,expiration,0
214,0.07037761672623097,25,up,down,0.4005975000327453,0.3814315989207781,,experiment,cRDM,0.0,,,,655.8628963000374,90,23,male,True,6558,6562,False,False,peak,expiration
215,0.07037761672623097,25,down,down,0.6076045000227168,1.620065643116427,,experiment,cRDM,0.0,,,,658.163150700042,90,23,male,True,6581,6587,False,False,inspiration,inspiration
216,0.07037761672623097,25,up,down,0.4596618000650778,1.1092620897352536,,experiment,cRDM,0.0,,,,660.1461815000513,90,23,male,True,6600,6605,False,False,expiration,expiration
217,0.07037761672623097,25,down,up,0.4167813999811187,1.7594255607658644,,experiment,cRDM,0.0,,,,662.6127309000585,90,23,male,True,6625,6629,False,False,inspiration,inspiration
218,0.07037761672623097,25,up,down,0.6978002999676391,0.5112747813699057,,experiment,cRDM,0.0,,,,663.7959978000728,90,23,male,True,6637,6644,False,False,expiration,expiration
219,0.07037761672623097,25,down,down,0.4455533999716863,1.6770879382923811,,experiment,cRDM,0.0,,,,666.429236200056,90,23,male,True,6663,6667,False,False,inspiration,expiration
220,0.07037761672623097,25,up,down,0.5885836000088602,0.6917681693977429,,experiment,cRDM,0.0,,,,667.8292152000358,90,23,male,True,6677,6683,False,False,expiration,expiration
221,0.07037761672623097,25,down,down,0.4709951999830082,0.9722324955391416,,experiment,cRDM,0.0,,,,669.6457858000648,90,23,male,True,6695,6700,False,False,inspiration,inspiration
222,0.07037761672623097,25,down,down,0.4307448000181465,1.4502274136955036,,experiment,cRDM,0.0,,,,671.8290594000136,90,23,male,True,6717,6721,False,False,expiration,expiration
223,0.07037761672623097,25,up,down,0.5155189000070095,1.7907971636069335,,experiment,cRDM,0.0,,,,674.3122892000247,90,23,male,True,6742,6747,False,False,expiration,expiration
224,0.07037761672623097,25,down,down,0.6012662999564782,1.8028547925275589,,experiment,cRDM,0.0,,,,676.8955465999898,90,23,male,True,6768,6774,False,False,inspiration,inspiration
225,0.07037761672623097,25,up,up,0.6602980000898242,0.3389630503463273,,experiment,cRDM,0.0,,,,678.0955116000258,90,23,male,True,6780,6787,False,False,expiration,expiration
226,0.07037761672623097,25,up,down,0.9530104000587016,0.6181631500537336,,experiment,cRDM,0.0,,,,679.628763500019,90,23,male,True,6795,6805,False,False,expiration,inspiration
227,0.07037761672623097,25,down,down,0.5164317999733612,0.8909589315184543,,experiment,cRDM,0.0,,,,681.7453747000545,90,23,male,True,6816,6821,False,False,expiration,expiration
228,0.07037761672623097,25,down,down,0.461514399969019,1.3864206381496578,,experiment,cRDM,0.0,,,,683.8952849999769,90,23,male,True,6838,6843,False,False,inspiration,inspiration
229,0.07037761672623097,25,up,up,0.4592641999479383,1.3096671033354603,,experiment,cRDM,0.0,,,,685.9285396999912,90,23,male,True,6858,6863,False,False,expiration,expiration
230,0.07037761672623097,25,down,down,0.4836808999534696,1.9438536417560752,,experiment,cRDM,0.0,,,,688.5950889000668,90,23,male,True,6885,6890,False,False,inspiration,expiration
231,0.07037761672623097,25,up,up,0.5734131999779493,0.9355202417788346,,experiment,cRDM,0.0,,,,690.2783998000667,90,23,male,True,6902,6908,False,False,expiration,inspiration
232,0.07037761672623097,25,up,down,0.5934608000097796,1.2170654079406,,experiment,cRDM,0.0,,,,692.3282954000169,90,23,male,True,6922,6928,False,False,expiration,expiration
233,0.07037761672623097,25,up,up,0.4369074000278488,0.7109823995769033,,experiment,cRDM,0.0,,,,693.8949128000531,90,23,male,True,6938,6942,False,False,expiration,expiration
234,0.07037761672623097,25,up,down,0.5192548999330029,1.012581401809234,,experiment,cRDM,0.0,,,,695.6115099000745,90,23,male,True,6955,6960,False,False,inspiration,expiration
235,0.07037761672623097,25,up,down,0.4746783999726176,1.2351853923406064,,experiment,cRDM,0.0,,,,697.6281003999758,90,23,male,True,6975,6980,False,False,expiration,expiration
236,0.07037761672623097,25,down,down,0.6520415999693796,0.3260445873607259,,experiment,cRDM,0.0,,,,698.6947224000469,90,23,male,True,6986,6993,False,False,inspiration,inspiration
237,0.07037761672623097,25,down,up,0.2838283999590203,1.6355270080912607,,experiment,cRDM,0.0,,,,701.2446274000687,90,23,male,True,7011,7014,False,False,expiration,expiration
238,0.07037761672623097,25,down,down,0.4471921999938786,0.956020519125163,,experiment,cRDM,0.0,,,,702.8945876000216,90,23,male,True,7028,7032,False,False,inspiration,inspiration
239,0.07037761672623097,25,up,down,0.4608803999144584,0.5715791997481869,,experiment,cRDM,0.0,,,,704.1778948000865,90,23,male,True,7041,7046,False,False,expiration,expiration
240,0.07037761672623097,25,down,down,0.4933995000319555,1.0555328292657282,,experiment,cRDM,0.0,,,,705.9444443000248,90,23,male,True,7058,7063,False,False,inspiration,inspiration
241,0.07037761672623097,25,down,down,0.4950545999454334,1.1278783656874565,,experiment,cRDM,0.0,,,,707.8277357000626,90,23,male,True,7077,7082,False,False,expiration,expiration
242,0.07037761672623097,25,down,down,0.5077584999380633,0.4277399231029376,,experiment,cRDM,0.0,,,,709.0110178000758,90,23,male,True,7089,7094,False,False,expiration,inspiration
243,0.07037761672623097,25,up,up,0.7258998000761494,1.891490970454606,,experiment,cRDM,0.0,,,,711.6608394000214,90,23,male,True,7116,7123,False,False,expiration,expiration
244,0.07037761672623097,25,down,down,0.5062892999267206,1.2304269009695603,,experiment,cRDM,0.0,,,,713.8775500999764,90,23,male,True,7138,7143,False,False,inspiration,inspiration
245,0.07037761672623097,25,up,up,0.4946623001014814,0.6000962761894453,,experiment,cRDM,0.0,,,,715.2441309000133,90,23,male,True,7151,7156,False,False,expiration,expiration
246,0.07037761672623097,25,up,down,0.6037062000250444,0.5477634593955799,,experiment,cRDM,0.0,,,,716.5440528000473,90,23,male,True,7164,7170,False,False,expiration,expiration
247,0.07037761672623097,25,down,down,0.5798035000916569,1.9413383349627669,,experiment,cRDM,0.0,,,,719.3439659000142,90,23,male,True,7192,7198,False,False,expiration,expiration
248,0.07037761672623097,25,up,down,0.4972863000584766,1.7140580890443946,,experiment,cRDM,0.0,,,,721.9105472000083,90,23,male,True,7218,7223,False,False,inspiration,inspiration
249,0.07037761672623097,25,down,down,0.4913028000155464,0.4346603142351072,,experiment,cRDM,0.0,,,,723.1105095000238,90,23,male,True,7230,7235,False,False,expiration,expiration
250,0.07037761672623097,25,up,up,0.4227217000443488,1.4605181264866378,,experiment,cRDM,0.0,,,,725.3270863000072,90,23,male,True,7252,7256,False,False,inspiration,inspiration
251,0.07037761672623097,25,down,down,0.5051152999512851,0.5405537471062021,,experiment,cRDM,0.0,,,,726.5436883000658,90,23,male,True,7264,7269,False,False,expiration,expiration
252,0.07037761672623097,25,up,up,0.6038267000112683,1.326595364614385,,experiment,cRDM,0.0,,,,728.6269624000415,90,23,male,True,7285,7291,False,False,expiration,inspiration
253,0.07037761672623097,25,down,down,0.4712966999504715,1.357345076460942,,experiment,cRDM,0.0,,,,730.8604893999872,90,23,male,True,7308,7313,False,False,expiration,expiration
254,0.07037761672623097,25,down,down,0.5570173000451177,1.839008713643522,,experiment,cRDM,0.0,,,,733.4268002000173,90,23,male,True,7333,7339,False,False,inspiration,expiration
255,0.07037761672623097,25,down,down,0.4167759000556544,0.8657047195866114,,experiment,cRDM,0.0,,,,735.1267340000487,90,23,male,True,7350,7354,False,False,expiration,expiration
256,0.07037761672623097,25,down,down,0.5321133000543341,1.3745386182998132,,experiment,cRDM,0.0,,,,737.1767102000304,90,23,male,True,7371,7376,False,False,inspiration,expiration
257,0.07037761672623097,25,down,down,0.4334267000667751,0.8317910389017842,,experiment,cRDM,0.0,,,,738.793283200008,90,23,male,True,7387,7391,False,False,expiration,expiration
258,0.07037761672623097,25,up,up,0.4792205999838188,1.0900032873561945,,experiment,cRDM,0.0,,,,740.5765181999885,90,23,male,True,7405,7410,False,False,inspiration,inspiration
259,0.07037761672623097,25,up,down,0.4896767000900582,1.2256002127408347,,experiment,cRDM,0.0,,,,742.5431152000093,90,23,male,True,7424,7429,False,False,expiration,expiration
260,0.07037761672623097,25,up,down,0.4168107000878081,1.8780817935068792,,experiment,cRDM,0.0,,,,745.1763543999988,90,23,male,True,7451,7455,False,False,inspiration,expiration
261,0.07037761672623097,25,up,up,0.4687561000464484,1.1876014880817551,,experiment,cRDM,0.0,,,,747.042962700012,90,23,male,True,7469,7474,False,False,expiration,expiration
262,81.0,25,M,up,0.7451353999786079,1.6187791051249156,,experiment,emotion,0.0,,,,754.8926570999903,90,23,male,True,7548,7555,False,False,expiration,inspiration
263,67.0,25,M,down,0.6881498999428004,1.8725788540717525,,experiment,emotion,0.0,,,,757.792560000089,90,23,male,True,7577,7584,False,False,expiration,expiration
264,76.0,25,F,up,1.0263204000657424,1.2863934477695722,,experiment,emotion,0.0,,,,760.0594304000259,90,23,male,True,7600,7610,False,False,inspiration,expiration
265,81.0,25,F,up,0.566420300048776,0.8061487711112236,,experiment,emotion,0.0,,,,762.1593598000474,90,23,male,True,7621,7627,False,False,expiration,expiration
266,76.0,25,M,down,0.5718364999629557,1.6669307636498223,,experiment,emotion,0.0,,,,764.658952100086,90,23,male,True,7646,7652,False,False,expiration,expiration
267,72.0,25,F,up,1.1772436000173911,1.963551846218893,,experiment,emotion,0.0,,,,767.4755493000847,90,23,male,True,7674,7686,False,False,inspiration,expiration
268,67.0,25,M,up,0.6796695999801159,0.4609874359002164,,experiment,emotion,0.0,,,,769.3921351999742,90,23,male,True,7693,7700,False,False,expiration,expiration
269,72.0,25,M,up,0.788359500002116,1.4398265546083358,,experiment,emotion,0.0,,,,771.7753886000719,90,23,male,True,7717,7725,False,False,inspiration,expiration
270,81.0,25,F,up,0.9634568999754264,0.9939672462369952,,experiment,emotion,0.0,,,,773.8253363000695,90,23,male,True,7737,7747,False,False,expiration,inspiration
271,72.0,25,F,down,0.8549323999322951,0.9378111728279748,,experiment,emotion,0.0,,,,775.9918927000837,90,23,male,True,7759,7768,False,False,expiration,expiration
272,76.0,25,F,up,0.953619199921377,0.5417487571901083,,experiment,emotion,0.0,,,,777.675161399995,90,23,male,True,7776,7786,False,False,expiration,inspiration
273,81.0,25,F,up,0.6703675000462681,1.5977214889149798,,experiment,emotion,0.0,,,,780.508398200036,90,23,male,True,7804,7811,False,False,expiration,expiration
274,76.0,25,F,down,0.7568303999723867,1.7763939453302342,,experiment,emotion,0.0,,,,783.2249678000807,90,23,male,True,7831,7839,False,False,peak,expiration
275,67.0,25,F,down,0.6142774999607354,1.46900487975476,,experiment,emotion,0.0,,,,785.7415262000868,90,23,male,True,7856,7862,False,False,inspiration,inspiration
276,72.0,25,M,down,0.6436749000567943,1.7712504394390918,,experiment,emotion,0.0,,,,788.4081196000334,90,23,male,True,7883,7889,False,False,expiration,expiration
277,67.0,25,M,down,0.5098035000264645,1.0324334456965345,,experiment,emotion,0.0,,,,790.3580255000853,90,23,male,True,7903,7908,False,False,inspiration,inspiration
278,81.0,25,M,down,0.7798366999486461,1.9560904505228944,,experiment,emotion,0.0,,,,793.1079300000565,90,23,male,True,7930,7938,False,False,expiration,expiration
279,67.0,25,M,down,0.913567899959162,1.2888156453825503,,experiment,emotion,0.0,,,,795.4411917000543,90,23,male,True,7953,7962,False,False,inspiration,expiration
280,76.0,25,F,up,0.9490502000553532,0.8284668227696297,,experiment,emotion,0.0,,,,797.4577605000231,90,23,male,True,7974,7983,False,False,expiration,inspiration
281,76.0,25,M,up,0.6406923000467941,1.2123782735575312,,experiment,emotion,0.0,,,,799.8910102000227,90,23,male,True,7998,8004,False,False,expiration,expiration
282,72.0,25,M,up,0.5615114999236539,1.5303754837094097,,experiment,emotion,0.0,,,,802.3242529000854,90,23,male,True,8022,8028,False,False,inspiration,inspiration
283,72.0,25,F,up,0.6045614000177011,0.562063305895574,,experiment,emotion,0.0,,,,803.7242104000178,90,23,male,True,8036,8042,False,False,expiration,expiration
284,67.0,25,M,up,0.8989751000190154,1.3959691219669836,,experiment,emotion,0.0,,,,805.9908176000463,90,23,male,True,8059,8068,False,False,inspiration,expiration
285,81.0,25,F,up,0.5380606999387965,1.5256509104220022,,experiment,emotion,0.0,,,,808.6906951999989,90,23,male,True,8086,8091,False,False,expiration,inspiration
286,76.0,25,F,up,0.6704893999267371,0.9497449529602042,,experiment,emotion,0.0,,,,810.4572794000851,90,23,male,True,8104,8111,False,False,expiration,expiration
287,67.0,25,M,down,1.2855029000202194,0.3116657970939152,,experiment,emotion,0.0,,,,811.707248400082,90,23,male,True,8116,8129,False,False,expiration,inspiration
288,81.0,25,M,down,0.9002227999735624,1.0763150050129076,,experiment,emotion,0.0,,,,814.3404921999901,90,23,male,True,8142,8151,False,False,expiration,expiration
289,81.0,25,F,down,1.1683739000000057,1.6729903750649446,,experiment,emotion,0.0,,,,817.1903873999837,90,23,male,True,8171,8183,False,False,inspiration,expiration
290,72.0,25,M,down,0.7564860999118537,0.5030363116790054,,experiment,emotion,0.0,,,,819.1402883999982,90,23,male,True,8190,8198,False,False,expiration,expiration
291,67.0,25,F,down,0.5702038999879733,0.4580066828019225,,experiment,emotion,0.0,,,,820.6235860000598,90,23,male,True,8205,8211,False,False,inspiration,inspiration
292,72.0,25,F,down,0.6342504000058398,1.9496030180266997,,experiment,emotion,0.0,,,,823.4234745000722,90,23,male,True,8233,8239,False,False,expiration,expiration
293,76.0,25,F,down,0.7917536000022665,0.510499416507877,,experiment,emotion,0.0,,,,824.8400789999869,90,23,male,True,8247,8255,False,False,inspiration,expiration
294,67.0,25,M,down,0.6117396000772715,0.9424550582804744,,experiment,emotion,0.0,,,,826.8400103000458,90,23,male,True,8267,8273,False,False,expiration,expiration
295,81.0,25,M,down,0.9758464000187814,1.8158629650405853,,experiment,emotion,0.0,,,,829.5399062000215,90,23,male,True,8294,8304,False,False,expiration,expiration
296,76.0,25,M,down,0.994275699951686,1.7148074968619125,,experiment,emotion,0.0,,,,832.5064799999817,90,23,male,True,8324,8334,False,False,inspiration,expiration
297,81.0,25,F,down,0.637385500012897,1.282571635909871,,experiment,emotion,0.0,,,,835.0563623000635,90,23,male,True,8350,8356,False,False,expiration,inspiration
298,67.0,25,F,down,0.8307564000133425,0.9121536655511272,,experiment,emotion,0.0,,,,836.8729935000882,90,23,male,True,8368,8376,False,False,inspiration,expiration
299,76.0,25,M,down,0.8492186999646947,1.3277065204097327,,experiment,emotion,0.0,,,,839.2895652999869,90,23,male,True,8392,8400,False,False,expiration,inspiration
300,72.0,25,F,down,1.2273646999383343,1.4167497068470742,,experiment,emotion,0.0,,,,841.8394476000685,90,23,male,True,8417,8429,False,False,expiration,expiration
301,72.0,25,M,down,1.1146983000217006,1.1167727656825104,,experiment,emotion,0.0,,,,844.4560213000515,90,23,male,True,8444,8455,False,False,inspiration,expiration
302,76.0,25,M,down,1.0324903998989612,0.7468896241819212,,experiment,emotion,0.0,,,,846.589301400003,90,23,male,True,8465,8475,False,False,expiration,inspiration
303,81.0,25,M,up,0.4432555999374017,0.5196688452582445,,experiment,emotion,0.0,,,,848.4225483000046,90,23,male,True,8483,8487,False,False,inspiration,peak
304,72.0,25,F,down,0.8445395999588072,0.400003616000251,,experiment,emotion,0.0,,,,849.5391696000006,90,23,male,True,8494,8502,False,False,expiration,expiration
305,67.0,25,F,down,0.6312296999385579,1.999230520758557,,experiment,emotion,0.0,,,,852.6555273000848,90,23,male,True,8526,8532,False,False,expiration,expiration
306,67.0,25,M,down,1.0427857000613583,0.4462006842149981,,experiment,emotion,0.0,,,,853.989022900001,90,23,male,True,8539,8549,False,False,expiration,inspiration
307,72.0,25,F,up,0.5798451999435201,1.889712628492093,,experiment,emotion,0.0,,,,857.1889039999804,90,23,male,True,8571,8577,False,False,expiration,expiration
308,81.0,25,F,up,0.9332909999648108,1.635294412799972,,experiment,emotion,0.0,,,,859.6554603000404,90,23,male,True,8596,8605,False,False,expiration,expiration
309,76.0,25,M,down,1.1256630999268964,0.6419198239501087,,experiment,emotion,0.0,,,,861.5220871000785,90,23,male,True,8614,8625,False,False,expiration,inspiration
310,67.0,25,M,up,0.5864272000035271,1.0422320414215187,,experiment,emotion,0.0,,,,863.9553042000625,90,23,male,True,8639,8645,False,False,expiration,expiration
311,81.0,25,F,up,0.5449420000659302,1.5553746358025826,,experiment,emotion,0.0,,,,866.3718365000094,90,23,male,True,8663,8668,False,False,inspiration,inspiration
312,76.0,25,M,up,0.674217400024645,0.9086164662347682,,experiment,emotion,0.0,,,,868.0885267000411,90,23,male,True,8680,8687,False,False,expiration,expiration
313,76.0,25,F,up,0.4827444000402466,0.8098987989548536,,experiment,emotion,0.0,,,,869.855009800056,90,23,male,True,8698,8703,False,False,inspiration,inspiration
314,67.0,25,F,down,0.6027215999783948,0.7557934891708602,,experiment,emotion,0.0,,,,871.3550492000068,90,23,male,True,8713,8719,False,False,expiration,expiration
315,72.0,25,F,down,0.8554421999724582,1.4830038724339825,,experiment,emotion,0.0,,,,873.7383094000398,90,23,male,True,8736,8745,False,False,inspiration,expiration
316,81.0,25,M,down,0.8848608999978751,1.5309248227177972,,experiment,emotion,0.0,,,,876.4048820000608,90,23,male,True,8763,8772,False,False,inspiration,inspiration
317,72.0,25,M,down,0.7349686999805272,0.9452516667904168,,experiment,emotion,0.0,,,,878.5047935000621,90,23,male,True,8784,8791,False,False,expiration,expiration
318,72.0,25,F,down,0.753110000048764,1.8907452723637803,,experiment,emotion,0.0,,,,881.4046636000277,90,23,male,True,8813,8821,False,False,inspiration,expiration
319,72.0,25,F,down,0.6384915000526235,1.688386994316893,,experiment,emotion,0.0,,,,884.1212564000161,90,23,male,True,8840,8846,False,False,inspiration,inspiration
320,81.0,25,M,up,0.5299618999706581,1.4977720127906289,,experiment,emotion,0.0,,,,886.5378091000019,90,23,male,True,8864,8869,False,False,expiration,expiration
321,76.0,25,M,down,0.6776887000305578,0.8838770076212723,,experiment,emotion,0.0,,,,888.2210803000488,90,23,male,True,8881,8888,False,False,inspiration,inspiration
322,67.0,25,M,up,0.8637136000907049,1.089932477443293,,experiment,emotion,0.0,,,,890.27102320001,90,23,male,True,8902,8911,False,False,expiration,expiration
323,67.0,25,M,down,0.6611369000747801,0.8484065079223098,,experiment,emotion,0.0,,,,892.2376053000336,90,23,male,True,8921,8928,False,False,inspiration,inspiration
324,76.0,25,M,up,0.5231796000152826,0.433478031743735,,experiment,emotion,0.0,,,,893.5875695000868,90,23,male,True,8935,8940,False,False,expiration,expiration
325,81.0,25,F,up,0.5632188000017777,1.3043807627495427,,experiment,emotion,0.0,,,,895.6874899000395,90,23,male,True,8956,8962,False,False,inspiration,inspiration
326,81.0,25,F,up,0.5030007999157533,0.8456635130874391,,experiment,emotion,0.0,,,,897.3707652000012,90,23,male,True,8973,8978,False,False,expiration,expiration
327,67.0,25,M,up,0.8794512000167742,1.7051872499157603,,experiment,emotion,0.0,,,,899.8373456000118,90,23,male,True,8997,9006,False,False,inspiration,inspiration
328,81.0,25,F,up,0.8845503999618813,1.9031308003030691,,experiment,emotion,0.0,,,,902.887225600076,90,23,male,True,9028,9037,False,False,expiration,expiration
329,72.0,25,F,up,0.5966252000071108,1.5854529468998422,,experiment,emotion,0.0,,,,905.6371192000805,90,23,male,True,9055,9061,False,False,peak,expiration
330,76.0,25,F,down,0.9276549000060186,0.7586453008176481,,experiment,emotion,0.0,,,,907.28709290002,90,23,male,True,9072,9081,False,False,expiration,inspiration
331,72.0,25,M,down,0.6031156999524683,0.3127874631473874,,experiment,emotion,0.0,,,,908.8036873000674,90,23,male,True,9087,9093,False,False,inspiration,expiration
332,67.0,25,F,down,0.6165305000031367,1.965896835618568,,experiment,emotion,0.0,,,,911.670238199993,90,23,male,True,9116,9122,False,False,inspiration,inspiration
333,76.0,25,F,down,0.6999412999721244,0.7389430958477065,,experiment,emotion,0.0,,,,913.2868369000497,90,23,male,True,9132,9139,False,False,expiration,expiration
334,72.0,25,F,down,0.554308700026013,1.5058489069925165,,experiment,emotion,0.0,,,,915.7534322000573,90,23,male,True,9157,9163,False,False,inspiration,peak
335,76.0,25,M,down,0.6774138000328094,1.0336323871348234,,experiment,emotion,0.0,,,,917.603351800004,90,23,male,True,9175,9182,False,False,expiration,expiration
336,67.0,25,M,down,0.7034860999556258,0.4639429658029994,,experiment,emotion,0.0,,,,919.0033104000612,90,23,male,True,9189,9196,False,False,inspiration,inspiration
337,81.0,25,F,down,0.7386657999595627,1.5712248482110533,,experiment,emotion,0.0,,,,921.5530662999954,90,23,male,True,9215,9222,False,False,expiration,trough
338,76.0,25,M,down,0.5819387000519782,0.4921047048733629,,experiment,emotion,0.0,,,,923.0698170000688,90,23,male,True,9230,9236,False,False,inspiration,inspiration
339,81.0,25,F,up,0.6503099000547081,1.9112333747060708,,experiment,emotion,0.0,,,,925.8363870000467,90,23,male,True,9257,9264,False,False,expiration,inspiration
340,67.0,25,M,down,0.6360716999042779,0.8073535677722805,,experiment,emotion,0.0,,,,927.569685399998,90,23,male,True,9275,9281,False,False,peak,expiration
341,72.0,25,M,down,0.5968382999999449,0.5567298842510326,,experiment,emotion,0.0,,,,929.0529191000387,90,23,male,True,9290,9296,False,False,expiration,inspiration
342,0.07037761672623097,25,up,up,1.6584078000159934,1.08487935910583,,experiment,cRDM,1.0,,,,950.0853533999762,90,23,male,True,9500,9517,False,False,inspiration,expiration
343,0.07037761672623097,25,up,up,0.6438703999156132,1.8412802538448159,,experiment,cRDM,1.0,,,,953.8518680999988,90,23,male,True,9538,9544,False,False,inspiration,inspiration
344,0.07037761672623097,25,down,down,0.5348106999881566,0.5554470409789606,,experiment,cRDM,1.0,,,,955.3019577000523,90,23,male,True,9552,9557,False,False,expiration,expiration
345,0.07037761672623097,25,down,down,0.5342154999962077,1.9680025325502648,,experiment,cRDM,1.0,,,,958.0685171000661,90,23,male,True,9580,9585,False,False,inspiration,inspiration
346,0.07037761672623097,25,up,up,0.5413114000111818,0.8173658776694672,,experiment,cRDM,1.0,,,,959.6684323999797,90,23,male,True,9596,9601,False,False,expiration,expiration
347,0.07037761672623097,25,down,down,0.4813135999720544,0.7613858008910177,,experiment,cRDM,1.0,,,,961.2184206000528,90,23,male,True,9611,9616,False,False,inspiration,inspiration
348,0.07037761672623097,25,up,up,0.7950160000473261,1.4009566119748942,,experiment,cRDM,1.0,,,,963.3516717000166,90,23,male,True,9633,9641,False,False,expiration,expiration
349,0.07037761672623097,25,up,up,0.5828230000333859,0.7717169022875068,,experiment,cRDM,1.0,,,,965.184936100035,90,23,male,True,9651,9657,False,False,trough,inspiration
350,0.07037761672623097,25,down,down,0.5162686000112444,1.8232093228568182,,experiment,cRDM,1.0,,,,967.8514944000636,90,23,male,True,9678,9683,False,False,expiration,expiration
351,0.07037761672623097,25,down,down,0.5233239999506623,1.6222884158591568,,experiment,cRDM,1.0,,,,970.25144370005,90,23,male,True,9702,9707,False,False,inspiration,inspiration
352,0.07037761672623097,25,down,down,0.4814219999825582,1.5647592296467732,,experiment,cRDM,1.0,,,,972.6013308999827,90,23,male,True,9725,9730,False,False,expiration,expiration
353,0.07037761672623097,25,down,down,0.5727735999971628,0.4200836580258447,,experiment,cRDM,1.0,,,,973.7679801000047,90,23,male,True,9737,9743,False,False,inspiration,inspiration
354,0.07037761672623097,25,down,up,0.3338331999257207,0.8368844417342687,,experiment,cRDM,1.0,,,,975.4345631999896,90,23,male,True,9753,9756,False,False,expiration,expiration
355,0.07037761672623097,25,down,down,0.6268842000281438,1.1622502296696733,,experiment,cRDM,1.0,,,,977.2678468000377,90,23,male,True,9772,9778,False,False,expiration,inspiration
356,0.07037761672623097,25,up,up,0.4473650000290945,0.6369929329262309,,experiment,cRDM,1.0,,,,978.7844336000273,90,23,male,True,9787,9791,False,False,inspiration,expiration
357,0.07037761672623097,25,up,up,0.4580918999854475,0.7766421614352479,,experiment,cRDM,1.0,,,,980.2676387000827,90,23,male,True,9802,9807,False,False,expiration,expiration
358,0.07037761672623097,25,up,down,0.6744146998971701,1.2910789809426355,,experiment,cRDM,1.0,,,,982.2843067999927,90,23,male,True,9822,9829,False,False,inspiration,expiration
359,0.07037761672623097,25,up,down,0.5428397000068799,1.6271120924051878,,experiment,cRDM,1.0,,,,984.8509155000792,90,23,male,True,9848,9853,False,False,inspiration,inspiration
360,0.07037761672623097,25,down,up,0.6976473999675363,1.9741675883056202,,experiment,cRDM,1.0,,,,987.6340903000673,90,23,male,True,9876,9883,False,False,expiration,expiration
361,0.07037761672623097,25,up,up,0.6801437999820337,1.0520650602264523,,experiment,cRDM,1.0,,,,989.650605199975,90,23,male,True,9896,9903,False,False,inspiration,expiration
362,0.07037761672623097,25,up,up,0.6500996000831947,1.4547756641188216,,experiment,cRDM,1.0,,,,992.0506394000258,90,23,male,True,9920,9927,False,False,expiration,inspiration
363,0.07037761672623097,25,down,down,0.6632162000751123,0.8399836928429998,,experiment,cRDM,1.0,,,,993.8005632000276,90,23,male,True,9937,9944,False,False,peak,expiration
364,0.07037761672623097,25,up,up,0.4389874000335112,0.3934694027067061,,experiment,cRDM,1.0,,,,995.1337934000184,90,23,male,True,9951,9955,False,False,expiration,expiration
365,0.07037761672623097,25,down,down,0.5986087000928819,0.8766668128444509,,experiment,cRDM,1.0,,,,996.7171324000227,90,23,male,True,9966,9972,False,False,inspiration,peak
366,0.07037761672623097,25,down,down,0.6290250000311062,0.7519655762123754,,experiment,cRDM,1.0,,,,998.333716000081,90,23,male,True,9983,9989,False,False,expiration,expiration
367,0.07037761672623097,25,up,up,0.4391329999780281,0.6155366194310077,,experiment,cRDM,1.0,,,,999.8335944000863,90,23,male,True,9998,10002,False,False,inspiration,inspiration
368,0.07037761672623097,25,up,up,0.7587767000077292,1.2369720459503646,,experiment,cRDM,1.0,,,,1001.766946900054,90,23,male,True,10017,10025,False,False,expiration,expiration
369,0.07037761672623097,25,down,down,0.5272572999820113,1.6964678454065183,,experiment,cRDM,1.0,,,,1004.4834928000346,90,23,male,True,10044,10049,False,False,inspiration,expiration
370,0.07037761672623097,25,up,up,0.4186856999294832,0.9714083054572096,,experiment,cRDM,1.0,,,,1006.250029399991,90,23,male,True,10062,10066,False,False,expiration,expiration
371,0.07037761672623097,25,down,down,0.5008685000939295,1.1196645084788133,,experiment,cRDM,1.0,,,,1008.0498564000007,90,23,male,True,10080,10085,False,False,inspiration,peak
372,0.07037761672623097,25,down,down,0.4894732000539079,0.7250259610109011,,experiment,cRDM,1.0,,,,1009.5332890000427,90,23,male,True,10094,10099,False,False,expiration,expiration
373,0.07037761672623097,25,down,down,0.6014613999286667,1.6971957382139222,,experiment,cRDM,1.0,,,,1011.9832426999927,90,23,male,True,10119,10125,False,False,inspiration,expiration
374,0.07037761672623097,25,up,up,0.5659208000870422,0.8466134821876612,,experiment,cRDM,1.0,,,,1013.6998263000278,90,23,male,True,10136,10142,False,False,expiration,trough
375,0.07037761672623097,25,up,up,0.8079577999887988,0.9728218500833584,,experiment,cRDM,1.0,,,,1015.4997639000647,90,23,male,True,10154,10162,False,False,inspiration,expiration
376,0.07037761672623097,25,up,down,0.4283887998899445,1.1025531640610409,,experiment,cRDM,1.0,,,,1017.6663552999962,90,23,male,True,10176,10180,False,False,expiration,inspiration
377,0.07037761672623097,25,down,down,0.4654342000139877,1.157644549687137,,experiment,cRDM,1.0,,,,1019.5162945999764,90,23,male,True,10194,10199,False,False,peak,expiration
378,0.07037761672623097,25,down,down,0.4846066000172869,1.5145254820581315,,experiment,cRDM,1.0,,,,1021.7661815000464,90,23,male,True,10217,10222,False,False,inspiration,inspiration
379,0.07037761672623097,25,up,up,0.51929199998267,0.8923210427911874,,experiment,cRDM,1.0,,,,1023.3994653000263,90,23,male,True,10233,10238,False,False,expiration,expiration
380,0.07037761672623097,25,down,down,0.4831230000127107,1.953797404880256,,experiment,cRDM,1.0,,,,1026.1326796000358,90,23,male,True,10260,10265,False,False,inspiration,inspiration
381,0.07037761672623097,25,up,up,0.4168014000169933,1.2093693600166573,,experiment,cRDM,1.0,,,,1028.099300700007,90,23,male,True,10280,10284,False,False,expiration,expiration
382,0.07037761672623097,25,up,up,0.9258438999531792,0.9400006922630562,,experiment,cRDM,1.0,,,,1029.7159026000882,90,23,male,True,10296,10305,False,False,inspiration,inspiration
383,0.07037761672623097,25,up,up,0.4499007000122219,1.0693268066703694,,experiment,cRDM,1.0,,,,1031.965853700065,90,23,male,True,10319,10323,False,False,expiration,expiration
384,0.07037761672623097,25,down,down,0.5093304000329226,0.7952856987569266,,experiment,cRDM,1.0,,,,1033.4824181000004,90,23,male,True,10334,10339,False,False,inspiration,inspiration
385,0.07037761672623097,25,down,down,0.6123544001020491,1.08076489952564,,experiment,cRDM,1.0,,,,1035.3323455000063,90,23,male,True,10352,10358,False,False,expiration,expiration
386,0.07037761672623097,25,up,down,0.6670869999798015,0.94555194671453,,experiment,cRDM,1.0,,,,1037.1656572000356,90,23,male,True,10371,10378,False,False,inspiration,inspiration
387,0.07037761672623097,25,down,down,0.5514757999917492,0.4875529003178273,,experiment,cRDM,1.0,,,,1038.5822451000568,90,23,male,True,10385,10391,False,False,expiration,expiration
388,0.07037761672623097,25,down,down,0.5439596999203786,0.5576805181341689,,experiment,cRDM,1.0,,,,1039.9487804999808,90,23,male,True,10399,10404,False,False,expiration,expiration
389,0.07037761672623097,25,up,up,0.3839975000591949,0.685970780618693,,experiment,cRDM,1.0,,,,1041.4486016000155,90,23,male,True,10414,10418,False,False,inspiration,inspiration
390,0.07037761672623097,25,up,up,0.6247027000645176,1.7576034832630412,,experiment,cRDM,1.0,,,,1043.882037900039,90,23,male,True,10438,10444,False,False,expiration,expiration
391,0.07037761672623097,25,down,down,0.5784712999593467,1.5486096267961058,,experiment,cRDM,1.0,,,,1046.315274200053,90,23,male,True,10462,10468,False,False,peak,expiration
392,0.07037761672623097,25,up,up,0.5101834000088274,0.6437064269342185,,experiment,cRDM,1.0,,,,1047.7985642000567,90,23,male,True,10477,10482,False,False,expiration,expiration
393,0.07037761672623097,25,down,down,0.41686740005388856,0.9523140634930708,,experiment,cRDM,1.0,,,,1049.5317849999992,90,23,male,True,10495,10499,False,False,inspiration,peak
394,0.07037761672623097,25,down,down,0.5129557000473142,1.815375261997983,,experiment,cRDM,1.0,,,,1052.0317407000114,90,23,male,True,10520,10525,False,False,expiration,inspiration
395,0.07037761672623097,25,down,down,0.4860600000247359,1.2707145793032308,,experiment,cRDM,1.0,,,,1054.0816798000596,90,23,male,True,10540,10545,False,False,expiration,expiration
396,0.07037761672623097,25,up,up,0.4568019999423996,0.4441723702304162,,experiment,cRDM,1.0,,,,1055.2649478000822,90,23,male,True,10552,10557,False,False,expiration,expiration
397,0.07037761672623097,25,up,down,0.5838362999493256,0.93699345274123,,experiment,cRDM,1.0,,,,1056.914894900052,90,23,male,True,10568,10574,False,False,trough,inspiration
398,0.07037761672623097,25,down,down,0.5423891999525949,0.8789225090732931,,experiment,cRDM,1.0,,,,1058.6313256000867,90,23,male,True,10586,10591,False,False,expiration,expiration
399,0.07037761672623097,25,down,down,0.5375610999763012,0.4088567636409867,,experiment,cRDM,1.0,,,,1059.8481748000486,90,23,male,True,10598,10603,False,False,expiration,expiration
400,0.07037761672623097,25,up,down,0.4714492000639439,1.7280204459460269,,experiment,cRDM,1.0,,,,1062.3813481000252,90,23,male,True,10623,10628,False,False,inspiration,expiration
401,0.07037761672623097,25,up,down,0.4884451000252738,1.0655051950232906,,experiment,cRDM,1.0,,,,1064.1812990000474,90,23,male,True,10641,10646,False,False,expiration,inspiration
402,0.07037761672623097,25,up,up,0.6708273999392986,1.429095616163312,,experiment,cRDM,1.0,,,,1066.347901900066,90,23,male,True,10663,10670,False,False,expiration,expiration
403,0.07037761672623097,25,up,down,0.7932432000525296,0.9234877821219658,,experiment,cRDM,1.0,,,,1068.2144906000467,90,23,male,True,10681,10689,False,False,expiration,inspiration
404,0.07037761672623097,25,up,up,0.42495659994892776,0.4885240461769372,,experiment,cRDM,1.0,,,,1069.7477668999927,90,23,male,True,10697,10701,False,False,peak,expiration
405,0.07037761672623097,25,down,down,0.5460766999749467,0.9151999525287192,,experiment,cRDM,1.0,,,,1071.347642900073,90,23,male,True,10713,10718,False,False,expiration,trough
406,0.07037761672623097,25,down,down,0.5204237999860197,1.6509174986022337,,experiment,cRDM,1.0,,,,1073.8142944000426,90,23,male,True,10737,10742,False,False,expiration,expiration
407,0.07037761672623097,25,up,down,0.4168025000253692,0.9034547300290708,,experiment,cRDM,1.0,,,,1075.5142240000425,90,23,male,True,10754,10758,False,False,expiration,inspiration
408,0.07037761672623097,25,down,up,0.3004250000230968,1.3631404529132034,,experiment,cRDM,1.0,,,,1077.5474589000223,90,23,male,True,10775,10778,False,False,expiration,expiration
409,0.07037761672623097,25,down,down,0.49529889994300896,1.2739713808504618,,experiment,cRDM,1.0,,,,1079.497410400072,90,23,male,True,10794,10799,False,False,inspiration,inspiration
410,0.07037761672623097,25,down,down,0.4726914999773726,1.1530483967172191,,experiment,cRDM,1.0,,,,1081.4140197000231,90,23,male,True,10813,10818,False,False,expiration,expiration
411,0.07037761672623097,25,up,up,0.4867672000546008,0.7633771277101701,,experiment,cRDM,1.0,,,,1082.913947400055,90,23,male,True,10828,10833,False,False,expiration,inspiration
412,0.07037761672623097,25,down,down,0.4795423001050949,1.4303369341550944,,experiment,cRDM,1.0,,,,1085.097190600005,90,23,male,True,10850,10855,False,False,expiration,expiration
413,0.07037761672623097,25,down,down,0.4912738000275567,1.3810890142957564,,experiment,cRDM,1.0,,,,1087.2304502000334,90,23,male,True,10871,10876,False,False,inspiration,inspiration
414,0.07037761672623097,25,down,down,0.5146664999192581,1.6150013982180995,,experiment,cRDM,1.0,,,,1089.5970506999874,90,23,male,True,10895,10900,False,False,expiration,expiration
415,0.07037761672623097,25,up,up,0.4699322000378743,1.4788040051073057,,experiment,cRDM,1.0,,,,1091.8467777000042,90,23,male,True,10918,10923,False,False,inspiration,peak
416,0.07037761672623097,25,up,down,0.4691711999475956,1.7327689687471661,,experiment,cRDM,1.0,,,,1094.313547000056,90,23,male,True,10942,10947,False,False,expiration,inspiration
417,0.07037761672623097,25,down,down,0.6039014999987558,0.460732118723836,,experiment,cRDM,1.0,,,,1095.4968127000611,90,23,male,True,10954,10960,False,False,inspiration,peak
418,0.07037761672623097,25,up,down,0.4306740000611171,1.8630658149795465,,experiment,cRDM,1.0,,,,1098.2300376000348,90,23,male,True,10981,10985,False,False,expiration,inspiration
419,0.07037761672623097,25,down,down,0.5437257000012323,0.4614962420084629,,experiment,cRDM,1.0,,,,1099.380006600055,90,23,male,True,10993,10998,False,False,inspiration,expiration
420,0.07037761672623097,25,up,down,0.4908478000434116,1.3333163567762711,,experiment,cRDM,1.0,,,,1101.529906700016,90,23,male,True,11014,11019,False,False,expiration,expiration
421,0.07037761672623097,25,up,down,0.4763475999934599,0.5707605046003914,,experiment,cRDM,1.0,,,,1102.8463835000293,90,23,male,True,11028,11033,False,False,inspiration,inspiration
422,81.0,25,M,down,0.8119558999314904,0.8907927968369977,,experiment,emotion,1.0,,,,1106.8297290999908,90,23,male,True,11068,11076,False,False,inspiration,expiration
423,67.0,25,M,down,0.6353896999498829,1.6104316673438483,,experiment,emotion,1.0,,,,1109.5463090999983,90,23,male,True,11095,11101,False,False,inspiration,inspiration
424,76.0,25,F,down,0.5227792999939993,0.9844872343297442,,experiment,emotion,1.0,,,,1111.4629174000584,90,23,male,True,11114,11119,False,False,expiration,expiration
425,81.0,25,F,down,0.4862765000434592,1.7408187215202222,,experiment,emotion,1.0,,,,1113.9794620000757,90,23,male,True,11139,11144,False,False,inspiration,expiration
426,76.0,25,M,down,0.4870514000067488,1.1693618275137283,,experiment,emotion,1.0,,,,1115.9127194000177,90,23,male,True,11158,11163,False,False,expiration,expiration
427,72.0,25,F,down,0.5270554999588057,1.3837427254767234,,experiment,emotion,1.0,,,,1118.062660100055,90,23,male,True,11180,11185,False,False,inspiration,expiration
428,67.0,25,M,down,0.5195308000547811,1.5199655016954352,,experiment,emotion,1.0,,,,1120.3792275000596,90,23,male,True,11203,11208,False,False,expiration,inspiration
429,72.0,25,M,down,0.4562348999315873,1.4765845058287443,,experiment,emotion,1.0,,,,1122.662482600077,90,23,male,True,11226,11231,False,False,expiration,expiration
430,81.0,25,F,down,0.5099705000175163,1.6136020319056097,,experiment,emotion,1.0,,,,1124.9957141000777,90,23,male,True,11249,11254,False,False,inspiration,inspiration
431,72.0,25,F,down,0.4002777000423521,1.3681348041364172,,experiment,emotion,1.0,,,,1127.1455513000255,90,23,male,True,11271,11275,False,False,expiration,expiration
432,76.0,25,F,down,0.5204930999316275,1.718716682725617,,experiment,emotion,1.0,,,,1129.5622229999865,90,23,male,True,11295,11300,False,False,inspiration,expiration
433,81.0,25,F,down,0.6405904999701306,1.8636551129744428,,experiment,emotion,1.0,,,,1132.2121215000516,90,23,male,True,11321,11327,False,False,expiration,inspiration
434,76.0,25,F,down,0.5643390999175608,1.9700796077399136,,experiment,emotion,1.0,,,,1135.0953533999855,90,23,male,True,11350,11356,False,False,expiration,expiration
435,67.0,25,F,down,0.5274178000399843,0.8335653716161857,,experiment,emotion,1.0,,,,1136.7952913000481,90,23,male,True,11367,11372,True,True,inspiration,inspiration
436,72.0,25,M,down,0.4832342000445351,1.85257213417306,,experiment,emotion,1.0,,,,1139.44546800002,90,23,male,True,11394,11399,True,True,expiration,expiration
437,67.0,25,M,down,0.5559130000183359,1.359801190062344,,experiment,emotion,1.0,,,,1141.5617938999785,90,23,male,True,11415,11421,True,True,inspiration,inspiration
438,81.0,25,M,down,0.5506900999462232,1.0580072045810642,,experiment,emotion,1.0,,,,1143.4450068000006,90,23,male,True,11434,11440,True,True,expiration,expiration
439,67.0,25,M,down,0.6428959000622854,1.9754263532682608,,experiment,emotion,1.0,,,,1146.2448384000454,90,23,male,True,11462,11468,False,False,inspiration,inspiration
440,76.0,25,F,up,0.8554794000228867,0.35675197301343803,,experiment,emotion,1.0,,,,1147.5282289000459,90,23,male,True,11474,11483,False,False,inspiration,expiration
441,76.0,25,M,down,0.6724165000487119,1.4149390926199332,,experiment,emotion,1.0,,,,1150.0613114000298,90,23,male,True,11500,11507,False,False,expiration,inspiration
442,72.0,25,M,down,0.6260373999830335,1.9318898063144028,,experiment,emotion,1.0,,,,1152.9446638000666,90,23,male,True,11529,11535,False,False,expiration,expiration
443,72.0,25,F,up,0.8870623999973759,0.9564632649577348,,experiment,emotion,1.0,,,,1154.7946448000148,90,23,male,True,11547,11556,False,False,inspiration,inspiration
444,67.0,25,M,down,1.0144749999744818,0.9552724486440898,,experiment,emotion,1.0,,,,1156.911227600067,90,23,male,True,11568,11578,False,False,expiration,expiration
445,81.0,25,F,up,0.8029589999932796,1.1231192127454228,,experiment,emotion,1.0,,,,1159.327784000081,90,23,male,True,11592,11600,False,False,inspiration,inspiration
446,76.0,25,F,up,1.2764477999880908,1.7279838401068643,,experiment,emotion,1.0,,,,1162.1442536000395,90,23,male,True,11621,11634,False,False,expiration,inspiration
447,67.0,25,M,up,0.9161064000800252,0.3817554575370219,,experiment,emotion,1.0,,,,1164.0776243000294,90,23,male,True,11640,11649,False,False,expiration,expiration
448,81.0,25,M,up,0.8182097000535578,1.2127749852631184,,experiment,emotion,1.0,,,,1166.477532000048,90,23,male,True,11664,11672,False,False,inspiration,inspiration
449,81.0,25,F,up,0.7195827000541613,1.2207172666384865,,experiment,emotion,1.0,,,,1168.7941124000356,90,23,male,True,11687,11694,False,False,expiration,expiration
450,72.0,25,M,down,0.9434089999413118,1.895194826098811,,experiment,emotion,1.0,,,,1171.6773493000073,90,23,male,True,11716,11725,False,False,peak,expiration
451,67.0,25,F,down,0.9391012999694794,1.6326940701585018,,experiment,emotion,1.0,,,,1174.510558100068,90,23,male,True,11744,11753,False,False,inspiration,inspiration
452,72.0,25,F,up,0.6945269000716507,0.7106008496193739,,experiment,emotion,1.0,,,,1176.4271819000132,90,23,male,True,11763,11770,False,False,expiration,expiration
453,76.0,25,F,up,0.9002662999555469,1.1547535939917704,,experiment,emotion,1.0,,,,1178.560418899986,90,23,male,True,11785,11794,False,False,inspiration,peak
454,67.0,25,M,up,0.6837516999803483,1.5387413658510378,,experiment,emotion,1.0,,,,1181.2769808999726,90,23,male,True,11812,11819,False,False,expiration,expiration
455,81.0,25,M,up,0.686073400080204,1.0038833479035791,,experiment,emotion,1.0,,,,1183.2436256000076,90,23,male,True,11832,11839,False,False,inspiration,inspiration
456,76.0,25,M,up,0.8718375000171363,0.7651098319863348,,experiment,emotion,1.0,,,,1184.9768443000505,90,23,male,True,11849,11858,False,False,expiration,expiration
457,81.0,25,F,up,0.4866305000614375,0.486159547852065,,experiment,emotion,1.0,,,,1186.6101119000232,90,23,male,True,11865,11870,False,False,expiration,expiration
458,67.0,25,F,up,0.5319901000475511,1.2991882167975044,,experiment,emotion,1.0,,,,1188.6767111000372,90,23,male,True,11886,11891,False,False,inspiration,expiration
459,76.0,25,M,up,0.5782284999731928,0.639947627855876,,experiment,emotion,1.0,,,,1190.126494300086,90,23,male,True,11901,11907,False,False,expiration,expiration
460,72.0,25,F,up,0.8014421999687329,0.6193470298795858,,experiment,emotion,1.0,,,,1191.5932856000727,90,23,male,True,11915,11923,False,False,inspiration,inspiration
461,72.0,25,M,up,0.8538707999978215,1.4935506467567845,,experiment,emotion,1.0,,,,1194.1598398999777,90,23,male,True,11941,11950,False,False,expiration,expiration
462,76.0,25,M,down,0.6542785000056028,1.2403594656400003,,experiment,emotion,1.0,,,,1196.5264166999839,90,23,male,True,11964,11971,False,False,inspiration,peak
463,81.0,25,M,up,0.8743553999811411,0.8185836724284639,,experiment,emotion,1.0,,,,1198.2763627000384,90,23,male,True,11982,11991,False,False,expiration,expiration
464,72.0,25,F,up,0.5487443000311032,0.4759416913393085,,experiment,emotion,1.0,,,,1199.8929703000467,90,23,male,True,11998,12003,False,False,inspiration,inspiration
465,67.0,25,F,up,0.5624459999380633,0.5197730630417947,,experiment,emotion,1.0,,,,1201.226241700002,90,23,male,True,12011,12017,False,False,inspiration,expiration
466,67.0,25,M,up,0.5051642999751493,0.5703232910892011,,experiment,emotion,1.0,,,,1202.6095349000536,90,23,male,True,12025,12030,False,False,expiration,expiration
467,72.0,25,F,down,0.6130605000071228,0.6615998324756056,,experiment,emotion,1.0,,,,1204.042672600015,90,23,male,True,12040,12046,False,False,trough,inspiration
468,81.0,25,F,up,0.6442583000753075,0.3900399115209813,,experiment,emotion,1.0,,,,1205.3094442000147,90,23,male,True,12052,12058,False,False,inspiration,expiration
469,76.0,25,M,up,0.5906558000715451,1.344375452414739,,experiment,emotion,1.0,,,,1207.5760164000094,90,23,male,True,12075,12081,False,False,expiration,inspiration
470,67.0,25,M,up,0.4967373999534175,0.39914555349614056,,experiment,emotion,1.0,,,,1208.8259800000815,90,23,male,True,12087,12092,False,False,inspiration,inspiration
471,81.0,25,F,up,0.9108069000067188,1.9320737916264872,,experiment,emotion,1.0,,,,1211.5258624000708,90,23,male,True,12114,12123,False,False,expiration,inspiration
472,76.0,25,M,up,0.5742047000676394,1.2963711030555387,,experiment,emotion,1.0,,,,1213.9924655000216,90,23,male,True,12139,12145,False,False,expiration,expiration
473,76.0,25,F,up,0.9175746999680996,0.5214214004887793,,experiment,emotion,1.0,,,,1215.3591084000655,90,23,male,True,12153,12162,False,False,expiration,expiration
474,67.0,25,F,up,0.7447720000054687,0.5232682133571638,,experiment,emotion,1.0,,,,1217.0589659999825,90,23,male,True,12170,12177,False,False,inspiration,inspiration
475,72.0,25,F,up,0.7828044999623671,1.7152786879280195,,experiment,emotion,1.0,,,,1219.8088893999811,90,23,male,True,12197,12205,False,False,expiration,expiration
476,81.0,25,M,up,0.8378820000216365,1.1928320515992434,,experiment,emotion,1.0,,,,1222.0588213000447,90,23,male,True,12220,12228,False,False,inspiration,expiration
477,72.0,25,M,down,0.8849640000844374,0.9949295249186768,,experiment,emotion,1.0,,,,1224.1587603000223,90,23,male,True,12241,12250,False,False,expiration,inspiration
478,72.0,25,F,down,0.6344666000222787,1.7181253290035083,,experiment,emotion,1.0,,,,1227.025283300085,90,23,male,True,12269,12275,False,False,expiration,expiration
479,72.0,25,F,down,0.6154714000876993,0.8541234230689887,,experiment,emotion,1.0,,,,1228.77526080003,90,23,male,True,12287,12293,False,False,inspiration,inspiration
480,81.0,25,M,down,0.5505307000130415,1.6147524491654333,,experiment,emotion,1.0,,,,1231.2751607000828,90,23,male,True,12312,12318,False,False,expiration,expiration
481,76.0,25,M,up,0.8916020999895409,0.6534854220308398,,experiment,emotion,1.0,,,,1232.7750932000345,90,23,male,True,12327,12336,False,False,expiration,expiration
482,67.0,25,M,up,0.9633503999793902,1.1502740311422142,,experiment,emotion,1.0,,,,1235.1083388000259,90,23,male,True,12350,12360,False,False,expiration,expiration
483,67.0,25,M,up,0.6960691000567749,0.6484886413503774,,experiment,emotion,1.0,,,,1236.991607600008,90,23,male,True,12369,12376,False,False,inspiration,expiration
484,76.0,25,M,up,0.6862399999517947,1.1814845484969776,,experiment,emotion,1.0,,,,1239.1414763000796,90,23,male,True,12391,12398,False,False,expiration,expiration
485,81.0,25,F,down,0.7412559000076726,0.3942225767990358,,experiment,emotion,1.0,,,,1240.4914812999775,90,23,male,True,12404,12411,False,False,expiration,inspiration
486,81.0,25,F,up,0.6303963999962434,0.93521382099462,,experiment,emotion,1.0,,,,1242.4413142000558,90,23,male,True,12424,12430,False,False,expiration,expiration
487,67.0,25,M,down,0.6053380999946967,0.6540591562017168,,experiment,emotion,1.0,,,,1243.9913529000478,90,23,male,True,12439,12445,False,False,expiration,expiration
488,81.0,25,F,down,0.7386192999547347,1.7764513384295806,,experiment,emotion,1.0,,,,1246.6411221000599,90,23,male,True,12466,12473,False,False,inspiration,expiration
489,72.0,25,F,down,0.6626068999757989,1.3744878594550418,,experiment,emotion,1.0,,,,1249.041170499986,90,23,male,True,12490,12497,False,False,expiration,expiration
490,76.0,25,F,down,0.661329900030978,1.4513914467698243,,experiment,emotion,1.0,,,,1251.4243697000204,90,23,male,True,12514,12521,False,False,inspiration,expiration
491,72.0,25,M,down,0.578693899908103,1.023350244142771,,experiment,emotion,1.0,,,,1253.3910063999938,90,23,male,True,12533,12539,False,False,expiration,expiration
492,67.0,25,F,down,0.6265403999714181,1.5869577855669583,,experiment,emotion,1.0,,,,1255.8241487999912,90,23,male,True,12558,12564,False,False,expiration,expiration
493,76.0,25,F,down,0.7267998000606894,0.7204221834731935,,experiment,emotion,1.0,,,,1257.4408717000626,90,23,male,True,12574,12581,False,False,expiration,expiration
494,72.0,25,F,down,0.5712363000493497,0.6657220701072347,,experiment,emotion,1.0,,,,1259.1074509000173,90,23,male,True,12590,12596,False,False,inspiration,peak
495,76.0,25,M,down,0.6419562000082806,1.2975124504298052,,experiment,emotion,1.0,,,,1261.2407216000138,90,23,male,True,12612,12618,False,False,expiration,expiration
496,67.0,25,M,down,0.8517496000276878,1.416542416654781,,experiment,emotion,1.0,,,,1263.573943400057,90,23,male,True,12635,12644,False,False,peak,expiration
497,81.0,25,F,down,1.0152029999298977,1.7890803960446933,,experiment,emotion,1.0,,,,1266.4905338999815,90,23,male,True,12664,12674,False,False,inspiration,expiration
498,76.0,25,M,down,0.7662867999169976,1.3058225548615534,,experiment,emotion,1.0,,,,1269.0904291999761,90,23,male,True,12690,12698,False,False,expiration,trough
499,81.0,25,F,down,0.6236855000024661,1.6244450983953147,,experiment,emotion,1.0,,,,1271.7569959000684,90,23,male,True,12717,12723,False,False,expiration,expiration
500,67.0,25,M,down,0.7007798999547958,0.5623836198044051,,experiment,emotion,1.0,,,,1273.2069261000725,90,23,male,True,12731,12738,False,False,expiration,expiration
501,72.0,25,M,down,0.5297788999741897,0.3447630177906311,,experiment,emotion,1.0,,,,1274.5569102000445,90,23,male,True,12745,12750,False,False,inspiration,inspiration
502,0.07037761672623097,25,up,up,0.5229013999924064,1.43952712988474,,experiment,cRDM,2.0,,,,1393.4358015999896,90,23,male,True,13934,13939,False,False,expiration,expiration
503,0.07037761672623097,25,up,up,0.4575529000721872,0.8888111771188012,,experiment,cRDM,2.0,,,,1395.1191162000173,90,23,male,True,13951,13956,False,False,inspiration,peak
504,0.07037761672623097,25,down,down,0.4953626999631524,0.811810594740024,,experiment,cRDM,2.0,,,,1396.6524119999958,90,23,male,True,13966,13971,False,False,expiration,expiration
505,0.07037761672623097,25,down,down,0.41681049996986985,0.4482727642385249,,experiment,cRDM,2.0,,,,1397.8523566999938,90,23,male,True,13978,13982,False,False,expiration,expiration
506,0.07037761672623097,25,up,up,0.5267301000421867,1.7403014539524284,,experiment,cRDM,2.0,,,,1400.2689361000666,90,23,male,True,14002,14007,False,False,inspiration,expiration
507,0.07037761672623097,25,down,down,0.47478150005918,1.4600107393198762,,experiment,cRDM,2.0,,,,1402.5188842000207,90,23,male,True,14025,14030,False,False,expiration,expiration
508,0.07037761672623097,25,up,up,0.5275914999656379,1.8459565952123382,,experiment,cRDM,2.0,,,,1405.1020804999862,90,23,male,True,14050,14055,False,False,inspiration,expiration
509,0.07037761672623097,25,up,down,0.484644899959676,0.3973057768564471,,experiment,cRDM,2.0,,,,1406.302032000036,90,23,male,True,14062,14067,False,False,expiration,expiration
510,0.07037761672623097,25,down,down,0.4866834999993444,0.7018356228783318,,experiment,cRDM,2.0,,,,1407.7519851999825,90,23,male,True,14077,14082,False,False,trough,inspiration
511,0.07037761672623097,25,down,down,0.7727602000813931,0.4553920481647836,,experiment,cRDM,2.0,,,,1408.9519518000309,90,23,male,True,14089,14097,False,False,inspiration,expiration
512,0.07037761672623097,25,down,down,0.45615830004680896,1.6812693227636213,,experiment,cRDM,2.0,,,,1411.6685041000599,90,23,male,True,14116,14121,False,False,expiration,inspiration
513,0.07037761672623097,25,down,down,0.4732882999815047,1.926808319235444,,experiment,cRDM,2.0,,,,1414.3183836999815,90,23,male,True,14143,14148,False,False,expiration,expiration
514,0.07037761672623097,25,down,down,0.4623487000353634,0.4600028861038384,,experiment,cRDM,2.0,,,,1415.5183163000036,90,23,male,True,14155,14160,False,False,expiration,expiration
515,0.07037761672623097,25,down,down,0.41678390000015497,0.7100664978678597,,experiment,cRDM,2.0,,,,1416.9516627000412,90,23,male,True,14169,14173,False,False,inspiration,inspiration
516,0.07037761672623097,25,up,down,0.44712829997297376,1.778688224193584,,experiment,cRDM,2.0,,,,1419.4015451000305,90,23,male,True,14193,14197,False,False,expiration,expiration
517,0.07037761672623097,25,up,down,0.546810100087896,0.36833162209264697,,experiment,cRDM,2.0,,,,1420.4848809000105,90,23,male,True,14204,14209,False,False,expiration,expiration
518,0.07037761672623097,25,up,down,0.5202170999255031,0.5447657889802676,,experiment,cRDM,2.0,,,,1421.8514703999972,90,23,male,True,14218,14223,False,False,inspiration,inspiration
519,0.07037761672623097,25,up,down,0.4392923000268638,1.7653997928497567,,experiment,cRDM,2.0,,,,1424.4013941000449,90,23,male,True,14243,14247,False,False,expiration,expiration
520,0.07037761672623097,25,down,down,0.5564132999861613,1.8536723029546105,,experiment,cRDM,2.0,,,,1426.9512753000015,90,23,male,True,14269,14275,False,False,peak,expiration
521,0.07037761672623097,25,up,down,0.466365100000985,0.6801410889587323,,experiment,cRDM,2.0,,,,1428.451299800072,90,23,male,True,14284,14289,False,False,expiration,expiration
522,0.07037761672623097,25,up,down,0.5872140000574291,1.9091862878999488,,experiment,cRDM,2.0,,,,1431.0844754000427,90,23,male,True,14310,14316,False,False,expiration,expiration
523,0.07037761672623097,25,down,down,0.615504699992016,0.6041837543743646,,experiment,cRDM,2.0,,,,1432.5342448999872,90,23,male,True,14325,14331,False,False,expiration,trough
524,0.07037761672623097,25,up,down,0.5075891999294981,0.535246579144151,,experiment,cRDM,2.0,,,,1433.951087100082,90,23,male,True,14339,14344,False,False,inspiration,inspiration
525,0.07037761672623097,25,down,down,0.5307328000199051,1.7841195136661283,,experiment,cRDM,2.0,,,,1436.5009343000131,90,23,male,True,14364,14369,False,False,expiration,expiration
526,0.07037761672623097,25,down,down,0.538384799961932,0.3472698770516118,,experiment,cRDM,2.0,,,,1437.6342607000845,90,23,male,True,14376,14381,False,False,inspiration,inspiration
527,0.07037761672623097,25,up,up,0.4384634000016376,0.44365425330921293,,experiment,cRDM,2.0,,,,1438.8841887000015,90,23,male,True,14388,14392,False,False,expiration,expiration
528,0.07037761672623097,25,up,down,0.4382005999796093,0.9836767836470504,,experiment,cRDM,2.0,,,,1440.5674488000805,90,23,male,True,14405,14409,False,False,expiration,inspiration
529,0.07037761672623097,25,down,down,0.6399021999677643,1.3297337087646959,,experiment,cRDM,2.0,,,,1442.6007155000698,90,23,male,True,14425,14431,False,False,expiration,expiration
530,0.07037761672623097,25,up,up,0.3335314999567345,0.3289646602450948,,experiment,cRDM,2.0,,,,1443.8342675999738,90,23,male,True,14438,14441,False,False,expiration,expiration
531,0.07037761672623097,25,down,down,0.4450161000713706,0.7410117892515151,,experiment,cRDM,2.0,,,,1445.2506430000067,90,23,male,True,14452,14456,False,False,inspiration,inspiration
532,0.07037761672623097,25,down,down,0.4994796999963,1.4621229863796708,,experiment,cRDM,2.0,,,,1447.4171905000696,90,23,male,True,14473,14478,False,False,expiration,expiration
533,0.07037761672623097,25,down,down,0.4916053999913856,0.891485683144772,,experiment,cRDM,2.0,,,,1449.0671425000767,90,23,male,True,14490,14495,False,False,trough,inspiration
534,0.07037761672623097,25,up,down,0.4726109000621364,0.5049696673829156,,experiment,cRDM,2.0,,,,1450.3170915000371,90,23,male,True,14502,14507,False,False,inspiration,peak
535,0.07037761672623097,25,up,down,0.6116829001111911,1.93251122619662,,experiment,cRDM,2.0,,,,1452.9669768000022,90,23,male,True,14529,14535,False,False,inspiration,inspiration
536,0.07037761672623097,25,up,down,0.4720962999854237,0.4435624638256217,,experiment,cRDM,2.0,,,,1454.283610500046,90,23,male,True,14542,14547,False,False,inspiration,expiration
537,0.07037761672623097,25,down,down,0.4167548000114039,1.0879852935203302,,experiment,cRDM,2.0,,,,1456.1002216000345,90,23,male,True,14560,14564,False,False,expiration,expiration
538,0.07037761672623097,25,down,down,0.4218488000333309,0.7447563764705398,,experiment,cRDM,2.0,,,,1457.5168074000394,90,23,male,True,14574,14578,False,False,inspiration,inspiration
539,0.07037761672623097,25,up,up,0.6848844999913126,1.3747751764461158,,experiment,cRDM,2.0,,,,1459.5667839000234,90,23,male,True,14595,14602,False,False,expiration,expiration
540,0.07037761672623097,25,down,down,0.4168992000631988,1.7188917355885711,,experiment,cRDM,2.0,,,,1462.2165800000075,90,23,male,True,14622,14626,False,False,expiration,expiration
541,0.07037761672623097,25,up,down,0.4002802999457344,0.6988158100864152,,experiment,cRDM,2.0,,,,1463.599923599977,90,23,male,True,14635,14639,False,False,expiration,expiration
542,0.07037761672623097,25,up,down,0.4167475000722334,1.3461196362714816,,experiment,cRDM,2.0,,,,1465.6332300000356,90,23,male,True,14656,14660,False,False,inspiration,inspiration
543,0.07037761672623097,25,up,down,0.5088658999884501,1.395570257535906,,experiment,cRDM,2.0,,,,1467.6997731000886,90,23,male,True,14676,14681,False,False,expiration,expiration
