,stimLvl,stimTime,rand,response,rt,precedingITI,trialNumber,trialType,stimuli,block,estIntens,estThres,estSlope,trialStart,subject,age,gender,headRest,onset,responsI,manBadOnset,manBadRespons,onset_phase,respons_phase
0,0.9,100,down,,,1.5597824414799992,,introTrial,cRDM,,,,,193.5377634000033,94,48,male,True,1934,0,False,False,inspiration,0
1,150.0,100,F,,,0.9120970991667532,,introTrial,emotion,,,,,198.38760479993653,94,48,male,True,1983,0,False,False,expiration,0
2,0.9,25,up,up,0.5553811000427231,1.1172918808059982,,tutorial,cRDM,,,,,218.50351109995967,94,48,male,True,2184,2190,False,False,inspiration,expiration
3,0.9,25,up,up,0.7147308000130579,0.4903698988967878,,tutorial,cRDM,,,,,219.8201132999966,94,48,male,True,2197,2204,False,False,expiration,expiration
4,0.9,25,down,down,0.7254841000540182,1.5173457944338908,,tutorial,cRDM,,,,,222.35333069995974,94,48,male,True,2222,2229,False,False,inspiration,peak
5,0.9,25,down,down,0.505236400058493,1.1853174830471416,,tutorial,cRDM,,,,,224.53659479995255,94,48,male,True,2244,2249,False,False,expiration,expiration
6,0.9,25,down,down,0.5190174999879673,1.9517900877841872,,tutorial,cRDM,,,,,227.2698215999408,94,48,male,True,2271,2276,False,False,inspiration,peak
7,0.9,25,down,down,0.4514659000560641,1.6741361496566247,,tutorial,cRDM,,,,,229.73638909996956,94,48,male,True,2296,2301,False,False,expiration,expiration
8,0.9,25,up,up,0.480489999987185,1.0214169533907185,,tutorial,cRDM,,,,,231.4863299999852,94,48,male,True,2314,2319,False,False,inspiration,inspiration
9,0.9,25,up,up,0.5005262000486255,1.0010119335582786,,tutorial,cRDM,,,,,233.23628599999938,94,48,male,True,2331,2336,False,False,expiration,expiration
10,0.9,25,down,down,0.5150418999837711,1.6781290466201302,,tutorial,cRDM,,,,,235.7028509000084,94,48,male,True,2356,2361,False,False,inspiration,inspiration
11,0.9,25,up,up,0.595040199928917,0.9942730235563362,,tutorial,cRDM,,,,,237.50278530002103,94,48,male,True,2374,2380,False,False,expiration,inspiration
12,200.0,25,M,up,1.1740575999720022,1.4845004969585598,,tutorial,emotion,,,,,246.08580250001975,94,48,male,True,2460,2472,False,False,expiration,expiration
13,200.0,25,M,up,0.7907498000422493,1.5395658105594496,,tutorial,emotion,,,,,249.06906090001576,94,48,male,True,2490,2498,False,False,inspiration,expiration
14,200.0,25,F,up,0.8064316000090912,0.6784607815432999,,tutorial,emotion,,,,,250.80235949996862,94,48,male,True,2507,2515,False,False,expiration,expiration
15,0.0,25,F,down,0.5365204000845551,1.2508747427339078,,tutorial,emotion,,,,,253.15228779998142,94,48,male,True,2530,2535,False,False,inspiration,inspiration
16,0.0,25,M,down,0.7328671999275684,0.5150965020458688,,tutorial,emotion,,,,,254.48595819994807,94,48,male,True,2544,2551,False,False,inspiration,expiration
17,200.0,25,F,up,0.9086853000335396,0.4027440243676115,,tutorial,emotion,,,,,255.90215009998062,94,48,male,True,2558,2567,False,False,expiration,expiration
18,0.0,25,M,down,0.5987273000646383,0.6598557023907199,,tutorial,emotion,,,,,257.75210429995786,94,48,male,True,2576,2582,False,False,inspiration,inspiration
19,200.0,25,M,up,0.9597733999835328,0.3660812606999777,,tutorial,emotion,,,,,259.0020678000292,94,48,male,True,2589,2599,False,False,inspiration,expiration
20,0.0,25,F,down,0.6578054000856355,0.7479406480973231,,tutorial,emotion,,,,,261.00199889997015,94,48,male,True,2609,2616,False,False,expiration,expiration
21,0.0,25,F,down,0.7416378000052646,0.9589080086790768,,tutorial,emotion,,,,,262.88521099998616,94,48,male,True,2628,2635,False,False,inspiration,peak
22,0.29,25,up,up,0.6261328000109643,1.0496704323310182,,psi_staircase_training,cRDM,,0.25,0.25693124029946324,0.10500000000000002,267.20171149994707,94,48,male,True,2671,2677,False,False,inspiration,expiration
23,0.25,25,up,up,0.4959064000286162,1.1884513737040807,,psi_staircase_training,cRDM,,0.21910266653183127,0.2260132002683493,0.10468632033873933,269.28496339998674,94,48,male,True,2692,2697,False,False,expiration,expiration
24,0.21,25,down,up,1.146683499915525,1.005415770827501,,psi_staircase_training,cRDM,,0.1900540959403307,0.19684979615540016,0.10294672984249993,271.0681947999401,94,48,male,True,2709,2720,False,False,inspiration,expiration
25,0.32,25,down,down,0.5663784000789747,1.8153070672037943,,psi_staircase_training,cRDM,,0.28193877959813873,0.2893209636160949,0.11183125795615867,274.30145719996653,94,48,male,True,2742,2748,False,False,trough,inspiration
26,0.29,25,up,up,0.6115227000555024,1.9962580119370763,,psi_staircase_training,cRDM,,0.25942687694212696,0.2667634756990502,0.11114069577656796,277.151290699956,94,48,male,True,2770,2776,False,False,expiration,expiration
27,0.27,25,down,down,0.5298378000734374,1.4860622298531418,,psi_staircase_training,cRDM,,0.23867195095052604,0.2458822432686335,0.10922730430510502,279.51797689998057,94,48,male,True,2794,2799,False,False,inspiration,inspiration
28,0.26,25,up,up,0.5699756001122296,1.1439091437448687,,psi_staircase_training,cRDM,,0.22011578024889514,0.22717390155917144,0.1069220955499698,281.4678103999468,94,48,male,True,2813,2819,False,False,inspiration,expiration
29,0.24,25,down,down,0.5431164000183344,1.3456207864682128,,psi_staircase_training,cRDM,,0.2041505375414391,0.21103014118178134,0.10421776637752347,283.6677310999948,94,48,male,True,2835,2840,False,False,expiration,expiration
30,0.2,25,down,down,0.5321676998864859,0.5768456506784638,,psi_staircase_training,cRDM,,0.18886445544182692,0.19570804001934874,0.10367212065861199,285.06769069994334,94,48,male,True,2849,2854,False,False,expiration,expiration
31,0.2,25,up,up,0.5782347000204027,1.0025505916517428,,psi_staircase_training,cRDM,,0.1705557926382123,0.17784973218897618,0.11049445982842553,286.86760859994683,94,48,male,True,2867,2873,False,False,inspiration,inspiration
32,0.19,25,down,down,0.7869334999704733,1.9390615984984436,,psi_staircase_training,cRDM,,0.1533088738836659,0.16088341853737592,0.11474529150304325,289.65086729999166,94,48,male,True,2895,2903,False,False,expiration,expiration
33,0.18,25,down,down,1.0270807000342757,1.8437941560346984,,psi_staircase_training,cRDM,,0.13747146237482788,0.14519649428426112,0.117024993427699,292.55075479997316,94,48,male,True,2924,2934,False,False,inspiration,expiration
34,0.16,25,down,down,0.4967595000052825,0.4813820932814658,,psi_staircase_training,cRDM,,0.1235084939531084,0.1312501447469713,0.11727674964876796,294.33404679992236,94,48,male,True,2942,2947,False,False,expiration,expiration
35,0.13,25,up,up,0.5271575999213383,0.9392675593630672,,psi_staircase_training,cRDM,,0.11100238590762823,0.11867092021163303,0.11616912228289887,296.05062649992766,94,48,male,True,2959,2964,False,False,inspiration,inspiration
36,0.12,25,up,up,0.9509377999929712,1.2433845389306548,,psi_staircase_training,cRDM,,0.09932153392740392,0.10688706081911878,0.11460868319506615,298.08388980000746,94,48,male,True,2980,2990,False,False,inspiration,expiration
37,0.1,25,down,down,0.4833385000238195,0.435762624901442,,psi_staircase_training,cRDM,,0.08899351605666753,0.09637513424230172,0.11182268627327928,299.7674754000036,94,48,male,True,2997,3002,False,False,expiration,expiration
38,0.09,25,down,down,0.6207540999166667,1.8786558479882007,,psi_staircase_training,cRDM,,0.07950168702056408,0.08668038330787275,0.10874866223088256,302.4170630000299,94,48,male,True,3023,3029,False,False,inspiration,inspiration
39,0.08,25,up,up,0.5281507999170572,1.216290073504508,,psi_staircase_training,cRDM,,0.07098466154117529,0.07790496773527697,0.10483436138218244,304.5336584999459,94,48,male,True,3044,3049,False,False,expiration,expiration
40,0.07,25,up,up,0.6899068000493571,1.0903506020006442,,psi_staircase_training,cRDM,,0.06331406838139389,0.0699351610971197,0.1003016350774976,306.4169154999545,94,48,male,True,3063,3070,False,False,inspiration,inspiration
41,0.06,25,up,up,0.4583340999670327,1.6387861364908778,,psi_staircase_training,cRDM,,0.056355710360845676,0.0626530631417854,0.09539736229457713,309.03345889993943,94,48,male,True,3089,3094,False,False,inspiration,inspiration
42,0.06,25,up,up,0.6023829999612644,1.9088733604572088,,psi_staircase_training,cRDM,,0.04999091973446442,0.055956241572985066,0.09036749066298737,311.6834224000341,94,48,male,True,3116,3122,False,False,expiration,expiration
43,0.05,25,down,down,0.8661928999936208,1.0626049660097237,,psi_staircase_training,cRDM,,0.0444424407822568,0.049990077715662266,0.08404006394824924,313.6166433999315,94,48,male,True,3135,3144,False,False,expiration,expiration
44,0.04,25,down,down,0.6989432999398559,1.77697892246428,,psi_staircase_training,cRDM,,0.03932331561002858,0.0444828503949772,0.07816078061260649,316.54986339993775,94,48,male,True,3164,3171,False,False,inspiration,inspiration
45,0.04,25,down,up,0.8753250000299886,0.3251808257285334,,psi_staircase_training,cRDM,,0.03454969598023759,0.039375604744068114,0.07310674544661841,317.86648710002186,94,48,male,True,3178,3187,False,False,inspiration,expiration
46,0.08,25,up,down,0.9811402999330312,1.8362522837396755,,psi_staircase_training,cRDM,,0.05234197474521531,0.05887163463112866,0.09891653706970656,320.84970110002905,94,48,male,True,3207,3217,False,False,inspiration,inspiration
47,0.11,25,up,up,0.8294682999840006,0.3000766234516911,,psi_staircase_training,cRDM,,0.07075756420852007,0.07971668500829213,0.13571996400830488,322.41633839998394,94,48,male,True,3223,3231,False,False,inspiration,expiration
48,0.11,25,down,up,0.7047361999284476,0.3464450905957133,,psi_staircase_training,cRDM,,0.06579972598888849,0.07456977795182372,0.13285579727765456,323.86626259994233,94,48,male,True,3238,3245,False,False,expiration,expiration
49,0.16,25,down,down,0.7966582999797538,1.6752402226389853,,psi_staircase_training,cRDM,,0.08416493486893167,0.09392211278008464,0.14780957468036368,326.51616200001445,94,48,male,True,3264,3272,False,False,inspiration,inspiration
50,0.15,25,up,down,0.937313900096342,0.7124947258687371,,psi_staircase_training,cRDM,,0.07925107304612955,0.08889972989235873,0.14616561035007195,328.2994541999651,94,48,male,True,3282,3291,False,False,expiration,expiration
51,0.19,25,up,up,0.6735018999315798,1.4412025048472372,,psi_staircase_training,cRDM,,0.10069385187701016,0.11091984606089264,0.1549115804556378,330.94933839992154,94,48,male,True,3308,3315,False,False,expiration,inspiration
52,100.0,25,M,up,1.1122027999954298,0.3534123041803596,,psi_staircase_training,emotion,,100.0,100.0,25.00050000000001,334.93259700003546,94,48,male,True,3348,3359,False,False,trough,inspiration
53,55.0,25,M,down,0.6930080000311136,1.178838955929993,,psi_staircase_training,emotion,,54.742809467541896,54.742809467541896,25.00050000000011,337.5658305999823,94,48,male,True,3375,3382,False,False,expiration,expiration
54,79.0,25,F,down,0.7254101999569684,1.600576222185646,,psi_staircase_training,emotion,,79.636070985635,79.636070985635,25.71326925488641,340.23242559994105,94,48,male,True,3401,3408,False,False,inspiration,inspiration
55,103.0,25,F,up,1.1278697999659926,0.7457642597590036,,psi_staircase_training,emotion,,97.61123893914808,97.61123893914808,26.1463337262867,342.0490237999474,94,48,male,True,3419,3430,False,False,expiration,expiration
56,87.0,25,M,up,1.0532546000322327,1.1920775706408702,,psi_staircase_training,emotion,,85.98876744579668,85.98876744579668,23.003056417783494,344.71558199997526,94,48,male,True,3446,3457,False,False,inspiration,expiration
57,73.0,25,F,down,0.8176372000016272,1.007296270869831,,psi_staircase_training,emotion,,76.84494728761523,76.84494728761523,23.862671666125227,347.13216439995455,94,48,male,True,3470,3478,False,False,expiration,expiration
58,83.0,25,M,up,0.9671928000170738,1.1843297898995515,,psi_staircase_training,emotion,,83.27335240078494,83.27335240078494,20.612160618333935,349.4987425999716,94,48,male,True,3494,3504,False,False,inspiration,trough
59,72.0,25,F,up,1.73947680008132,0.3515842830552742,,psi_staircase_training,emotion,,77.76901308559849,77.76901308559849,20.83216394857253,351.1653270999668,94,48,male,True,3510,3527,False,False,inspiration,expiration
60,56.0,25,F,down,0.8252602000720799,0.986910297409008,,psi_staircase_training,emotion,,70.08415515618914,70.08415515618914,27.886300857516627,354.24855869996827,94,48,male,True,3541,3549,False,False,expiration,expiration
61,59.0,25,M,down,1.0199308999581262,0.4174418619358161,,psi_staircase_training,emotion,,73.86414802484896,73.86414802484896,25.478277152740198,355.83186359994585,94,48,male,True,3557,3567,False,False,inspiration,inspiration
62,92.0,25,F,down,0.972789500025101,1.3714814100677093,,psi_staircase_training,emotion,,76.48526014212328,76.48526014212328,23.357545741462374,358.56505039997865,94,48,male,True,3584,3594,False,False,expiration,expiration
63,104.0,25,F,down,0.9598197999875993,1.2276086911215258,,psi_staircase_training,emotion,,82.52956448994533,82.52956448994533,29.517866728591752,361.11497659992887,94,48,male,True,3610,3620,False,False,inspiration,expiration
64,113.0,25,F,down,1.1602686999831349,1.1426997860826291,,psi_staircase_training,emotion,,89.43410238982014,89.43410238982014,34.571361473386325,363.58155559992883,94,48,male,True,3635,3647,False,False,expiration,expiration
65,119.0,25,M,up,0.6626441000262275,0.3457809963284942,,psi_staircase_training,emotion,,96.44861392771648,96.44861392771648,37.92436345002372,365.44815139996354,94,48,male,True,3653,3660,False,False,inspiration,inspiration
66,118.0,25,M,down,1.0511373999761418,1.8005475956508017,,psi_staircase_training,emotion,,93.83371572919322,93.83371572919322,37.082770323055136,368.26468020002363,94,48,male,True,3682,3693,False,False,expiration,trough
67,122.0,25,F,down,0.705809099948965,1.083011264451167,,psi_staircase_training,emotion,,99.92883629512602,99.92883629512602,39.333461188295395,370.747941599926,94,48,male,True,3706,3713,False,False,inspiration,expiration
68,126.0,25,F,down,1.0679484999272972,1.6576522475609312,,psi_staircase_training,emotion,,105.62774426552713,105.62774426552713,40.86986044103842,373.4648582999362,94,48,male,True,3734,3745,False,False,expiration,inspiration
69,129.0,25,M,up,0.6826685999985784,0.7347631505457421,,psi_staircase_training,emotion,,110.99989444168483,110.99989444168483,42.01285934825675,375.63112679996993,94,48,male,True,3755,3762,False,False,expiration,expiration
70,128.0,25,M,down,0.8248065999941899,1.3094262591350756,,psi_staircase_training,emotion,,108.41607545961722,108.41607545961722,41.5705699057065,377.98103100003215,94,48,male,True,3779,3787,False,False,expiration,inspiration
71,131.0,25,M,up,0.9985132999718188,0.8552473228797797,,psi_staircase_training,emotion,,113.13508762220033,113.13508762220033,42.46275463435772,380.01429409999395,94,48,male,True,3799,3809,False,False,expiration,expiration
72,129.0,25,M,up,0.9482268000720068,0.6462219047166866,,psi_staircase_training,emotion,,110.81033041253895,110.81033041253895,42.08926681302352,381.9975494999672,94,48,male,True,3819,3828,False,False,expiration,inspiration
73,128.0,25,F,up,0.7203625999391079,1.600973654628661,,psi_staircase_training,emotion,,108.68646754092018,108.68646754092018,41.73010306042805,384.8974503999343,94,48,male,True,3848,3855,False,False,inspiration,expiration
74,126.0,25,F,up,0.6684401000384241,0.740701558764555,,psi_staircase_training,emotion,,106.76491139229223,106.76491139229223,41.38184919200719,386.6973726999713,94,48,male,True,3866,3873,False,False,expiration,expiration
75,125.0,25,F,up,0.6096461999695748,0.3303617034481754,,psi_staircase_training,emotion,,104.96965228270544,104.96965228270544,41.050533920847506,388.0473085999256,94,48,male,True,3879,3885,False,False,expiration,expiration
76,80.0,25,M,down,0.6278825999470428,1.30958272646254,,psi_staircase_training,emotion,,103.31686323992679,103.31686323992679,40.73126601054281,390.31391299993277,94,48,male,True,3902,3908,False,False,inspiration,expiration
77,130.0,25,M,up,0.7452734999824315,0.6959802660255788,,psi_staircase_training,emotion,,104.78022941370126,104.78022941370126,40.360011845079654,391.98052600002853,94,48,male,True,3919,3926,False,False,expiration,expiration
78,77.0,25,F,down,0.6043687000637874,1.7209884315568449,,psi_staircase_training,emotion,,103.46264530911971,103.46264530911971,39.980100773694794,394.7804251000052,94,48,male,True,3947,3953,False,False,inspiration,expiration
79,133.0,25,F,up,0.7938017999986187,1.2103116792600903,,psi_staircase_training,emotion,,104.69115515173642,104.69115515173642,39.56186673044905,396.9469840999227,94,48,male,True,3968,3976,False,False,expiration,expiration
80,74.0,25,M,down,0.6534936999669299,0.9641644877271396,,psi_staircase_training,emotion,,103.5898646658418,103.5898646658418,39.13854132834519,399.0302265000064,94,48,male,True,3989,3996,False,False,inspiration,inspiration
81,136.0,25,M,up,0.8786250000121072,1.1022911233162511,,psi_staircase_training,emotion,,104.61867636846615,104.61867636846615,38.68060695339188,401.1301845000126,94,48,male,True,4010,4019,False,False,expiration,expiration
82,0.29,25,up,up,0.7339482000097632,1.29412153890725,,psi_staircase,cRDM,,0.25,0.25693124029946324,0.10500000000000002,406.77987580001366,94,48,male,True,4067,4074,False,False,inspiration,inspiration
83,0.25,25,up,up,0.5609422000125049,1.6040902806899422,,psi_staircase,cRDM,,0.21910266653183127,0.2260132002683493,0.10468632033873933,409.37983729993,94,48,male,True,4093,4099,False,False,expiration,expiration
84,0.21,25,down,down,0.6131628999719396,1.97155741006953,,psi_staircase,cRDM,,0.1900540959403307,0.19684979615540016,0.10294672984249993,412.17968990001833,94,48,male,True,4121,4127,False,False,inspiration,inspiration
85,0.18,25,down,down,0.98654189996887,1.889533565100629,,psi_staircase,cRDM,,0.1635257589279754,0.1701521334256793,0.100381647756865,414.94628000003286,94,48,male,True,4148,4158,False,False,expiration,inspiration
86,0.15,25,up,up,0.5520436000078917,1.7620044316291508,,psi_staircase,cRDM,,0.14018955742449365,0.14660133511875031,0.0971307628663642,417.96280410001054,94,48,male,True,4178,4184,False,False,expiration,expiration
87,0.13,25,down,down,0.6844153000274673,1.3541431690414858,,psi_staircase,cRDM,,0.11987606021454796,0.12605547676183335,0.09361076941961036,420.1293994999724,94,48,male,True,4200,4207,False,False,expiration,inspiration
88,0.11,25,up,up,0.5601991000585258,1.7805650770799806,,psi_staircase,cRDM,,0.10257735236965487,0.10849103445698656,0.08958521019937955,422.86262769997114,94,48,male,True,4227,4233,False,False,expiration,expiration
89,0.09,25,down,down,0.7982007999671623,0.4666304717629415,,psi_staircase,cRDM,,0.08784432595859408,0.09348182153209693,0.08540131486476357,424.16259760002134,94,48,male,True,4241,4249,False,False,expiration,expiration
90,0.08,25,down,up,0.7029590000165626,1.6364962778905887,,psi_staircase,cRDM,,0.07518520921180863,0.0805556301471181,0.08135545354720439,426.86284159997007,94,48,male,True,4268,4275,False,False,inspiration,expiration
91,0.13,25,up,up,0.6863655999768525,0.5379132481971398,,psi_staircase,cRDM,,0.1145374077699418,0.12103712105675656,0.09846288191283688,428.3624230999267,94,48,male,True,4282,4289,False,False,expiration,expiration
92,0.13,25,down,down,0.954419199959375,0.6097246811330677,,psi_staircase,cRDM,,0.1023941484636294,0.10857748278643099,0.09367011903258447,429.91238420002634,94,48,male,True,4298,4308,False,False,expiration,inspiration
93,0.12,25,down,down,0.8698531999252737,1.2950175609870376,,psi_staircase,cRDM,,0.093157405715179,0.09896538803474302,0.08798398514641666,432.4289574000286,94,48,male,True,4323,4332,False,False,expiration,expiration
94,0.11,25,down,down,0.7762484999839216,0.3803336150232621,,psi_staircase,cRDM,,0.0859226620933624,0.09137013233424036,0.0825226583669993,433.94555980002036,94,48,male,True,4338,4346,False,False,expiration,inspiration
95,0.1,25,up,up,0.6436531000072137,1.5326607833172368,,psi_staircase,cRDM,,0.07993993986706525,0.08508630373561188,0.07796125698300181,436.5121490999591,94,48,male,True,4364,4370,False,False,expiration,expiration
96,0.07,25,up,up,0.8974242000840604,0.4372592294463549,,psi_staircase,cRDM,,0.07451104613556002,0.07946231361901372,0.0750057801058921,437.8453951999545,94,48,male,True,4377,4386,False,False,expiration,expiration
97,0.07,25,down,down,0.8052112000295892,1.6209169646326083,,psi_staircase,cRDM,,0.06744146495940069,0.07278404611372316,0.08093371416473599,440.6286334999604,94,48,male,True,4405,4413,False,False,peak,expiration
98,0.06,25,down,down,0.7848582000005991,1.008952361581625,,psi_staircase,cRDM,,0.06052099521041422,0.06611411888879858,0.08472913372745625,442.7119239999447,94,48,male,True,4426,4434,False,False,trough,inspiration
99,0.06,25,up,up,1.0598669999744743,0.4618996191017155,,psi_staircase,cRDM,,0.05375931611647298,0.059555181656601584,0.08780043043099071,444.2118692999938,94,48,male,True,4441,4452,False,False,inspiration,expiration
100,0.06,25,up,up,0.7763773000333458,1.0348557690700293,,psi_staircase,cRDM,,0.047600189915897255,0.05342746578610833,0.08827625936148029,446.57846200000495,94,48,male,True,4465,4473,False,False,expiration,inspiration
101,0.06,25,up,up,0.7267926000058651,1.2274396600745503,,psi_staircase,cRDM,,0.04224611598066645,0.04795156161292965,0.08643067697912972,448.8450164999813,94,48,male,True,4487,4494,False,False,inspiration,expiration
102,0.06,25,up,up,0.7665339999366552,1.1097563873480067,,psi_staircase,cRDM,,0.0377500104575109,0.04321231484536303,0.082747377950363,450.92826900002547,94,48,male,True,4508,4516,False,False,expiration,expiration
103,0.05,25,down,down,0.6632538000121713,1.4964745279413452,,psi_staircase,cRDM,,0.03406380298393312,0.03919745825202257,0.07776873688698016,453.46152849996,94,48,male,True,4534,4541,False,False,inspiration,expiration
104,0.04,25,down,down,1.2510536999907345,1.1567833767797435,,psi_staircase,cRDM,,0.030657275983841888,0.03546308416934662,0.07280224572751748,455.5447519000154,94,48,male,True,4554,4567,False,False,inspiration,inspiration
105,0.04,25,down,down,1.1130966999335214,1.0828392818903303,,psi_staircase,cRDM,,0.02736556843439652,0.0318852745663453,0.06846814182612762,458.14466609992087,94,48,male,True,4580,4591,False,False,expiration,expiration
106,0.03,25,up,up,1.1998833999969063,1.1107948340238558,,psi_staircase,cRDM,,0.024539656519083217,0.028716242494934405,0.06327028187124534,460.6279006999685,94,48,male,True,4605,4617,False,False,inspiration,expiration
107,0.03,25,up,up,0.7823658999986947,1.659309508554479,,psi_staircase,cRDM,,0.021698699754403042,0.0256139197131526,0.05931089933507828,463.74445100000594,94,48,male,True,4636,4644,False,False,expiration,inspiration
108,0.03,25,down,up,0.7044452000409365,0.9553754439546328,,psi_staircase,cRDM,,0.019201674610102068,0.022805014292072247,0.054586286185485035,465.74436969996896,94,48,male,True,4656,4663,False,False,expiration,expiration
109,0.06,25,down,down,0.8598502000095323,1.5020877729131423,,psi_staircase,cRDM,,0.03037973953152292,0.035728419460581376,0.0810261033071711,468.210978899966,94,48,male,True,4681,4690,False,False,expiration,inspiration
110,0.06,25,up,up,0.6636223000241444,1.5164338281152268,,psi_staircase,cRDM,,0.02883425756460454,0.033752257801119935,0.07450182110611656,470.84417940001,94,48,male,True,4707,4714,False,False,inspiration,expiration
111,0.06,25,up,down,1.7783711999654768,1.8145777002442367,,psi_staircase,cRDM,,0.02763400004042881,0.032118194410539536,0.06793018111031114,473.57739560003387,94,48,male,True,4735,4753,False,False,expiration,peak
112,0.07,25,down,down,0.7091711999382824,1.6871567807114776,,psi_staircase,cRDM,,0.034327561572173704,0.04191533724231366,0.11494572557618454,477.3106515000109,94,48,male,True,4772,4779,False,False,inspiration,inspiration
113,0.07,25,up,down,1.1372275000903755,0.3101210264134238,,psi_staircase,cRDM,,0.03245482277986072,0.039791344115923784,0.1111395229431411,478.61059089994524,94,48,male,True,4785,4796,False,False,expiration,expiration
114,0.13,25,down,down,0.8259554000105709,0.5407060194903264,,psi_staircase,cRDM,,0.03979791932288705,0.0484561016625307,0.1311611062933402,480.5438227999257,94,48,male,True,4804,4812,False,False,expiration,expiration
115,0.08,25,up,down,0.8515620999969542,1.5426836294405497,,psi_staircase,cRDM,,0.03814342801922402,0.04663335670171901,0.12861226463768755,483.17713470000314,94,48,male,True,4831,4840,False,False,inspiration,expiration
116,0.14,25,down,down,0.6807594000129029,1.3905815275301867,,psi_staircase,cRDM,,0.04697344030726013,0.055899480632840885,0.1352188343922452,485.6770379999653,94,48,male,True,4856,4863,False,False,expiration,expiration
117,0.14,25,up,down,0.6932382000377402,1.972741515026596,,psi_staircase,cRDM,,0.04518768836432015,0.053949517188535384,0.13273122656183806,488.5935658999952,94,48,male,True,4885,4892,False,False,expiration,expiration
118,0.19,25,down,down,0.647981800022535,0.7164554928482976,,psi_staircase,cRDM,,0.05552016595326481,0.06538022199188097,0.14936805525771055,490.27682719996665,94,48,male,True,4902,4908,False,False,expiration,expiration
119,0.19,25,up,down,0.6283071999205276,0.5074413419296716,,psi_staircase,cRDM,,0.05343569697095014,0.06315910006769147,0.14729792664047453,491.69346879993105,94,48,male,True,4916,4922,False,False,inspiration,inspiration
120,0.2,25,up,up,0.5867040000157431,0.9905741916597012,,psi_staircase,cRDM,,0.06883397766491083,0.07968164171302379,0.16432913531219834,493.56004889996257,94,48,male,True,4935,4941,False,False,inspiration,expiration
121,0.2,25,down,down,0.5981923000654206,1.8158050633764145,,psi_staircase,cRDM,,0.06595853135686122,0.07669035417012121,0.16257427916321965,496.22662139998283,94,48,male,True,4961,4967,False,False,expiration,expiration
122,0.2,25,down,down,0.6979081999743357,0.615861166841639,,psi_staircase,cRDM,,0.06342051576002328,0.07403425898468351,0.16078551463229793,497.70987919997424,94,48,male,True,4976,4983,False,False,inspiration,inspiration
123,0.2,25,down,down,0.5523560999426991,1.7187587514853033,,psi_staircase,cRDM,,0.06115831336976324,0.07165260745359486,0.15897600302324655,500.3764569000341,94,48,male,True,5003,5009,False,False,expiration,expiration
124,0.2,25,up,up,0.6697088000364602,1.0947297116053916,,psi_staircase,cRDM,,0.05912585976994589,0.06949995544352458,0.15715514087862645,502.29309529997414,94,48,male,True,5022,5029,False,False,inspiration,inspiration
125,0.2,25,up,up,0.7341220999369398,1.4879731269822474,,psi_staircase,cRDM,,0.05728796148732675,0.06754158190085359,0.15533008479069607,504.709629299934,94,48,male,True,5046,5053,False,False,expiration,expiration
126,0.19,25,down,down,0.6405881999526173,1.5231538774556774,,psi_staircase,cRDM,,0.05561711803875352,0.06575037006180491,0.15350664764902014,507.2261997000314,94,48,male,True,5071,5077,False,False,inspiration,peak
127,0.19,25,down,down,0.5876081000315025,1.4500481548336066,,psi_staircase,cRDM,,0.05398426937995491,0.06399734212070098,0.1516860752699272,509.57612530002365,94,48,male,True,5095,5101,False,False,expiration,expiration
128,0.19,25,down,down,0.6844033999368548,1.5279478662790844,,psi_staircase,cRDM,,0.05248635360442668,0.062379635543193375,0.1498713879031067,511.95941389992373,94,48,male,True,5119,5126,False,False,inspiration,expiration
129,0.19,25,up,down,0.6238618999486789,1.5214347498272438,,psi_staircase,cRDM,,0.05110765228576628,0.060881838931641334,0.1480672366670588,514.4259455000283,94,48,male,True,5143,5149,False,False,expiration,inspiration
130,0.21,25,up,up,0.6929219999583438,0.9017567052210256,,psi_staircase,cRDM,,0.061883793342069324,0.07265807828901058,0.1632175296990402,516.2258756000083,94,48,male,True,5161,5168,False,False,inspiration,expiration
131,0.21,25,up,up,0.5402840999886394,0.6741172843912742,,psi_staircase,cRDM,,0.060290865327583015,0.07096035886587977,0.1616300652002951,517.8424705999205,94,48,male,True,5177,5182,False,False,expiration,expiration
132,100.0,25,M,down,0.844458100036718,0.4632886472112178,,psi_staircase,emotion,,100.0,100.0,25.00050000000001,522.7423392999917,94,48,male,True,5227,5235,False,False,expiration,expiration
133,145.0,25,M,up,0.6295100999996066,0.7533207405726758,,psi_staircase,emotion,,145.25719053245996,145.25719053245996,25.000500000000283,524.6923068999313,94,48,male,True,5246,5252,False,False,expiration,expiration
134,121.0,25,F,down,0.6355021999916062,1.0307770889509722,,psi_staircase,emotion,,120.36392901436103,120.36392901436103,25.71326925488699,526.6922350999666,94,48,male,True,5266,5272,False,False,expiration,expiration
135,137.0,25,F,down,0.6293243999825789,1.8411191319669664,,psi_staircase,emotion,,137.8359832966118,137.8359832966118,25.292325986285494,529.5254715000046,94,48,male,True,5294,5300,False,False,peak,expiration
136,154.0,25,M,up,0.8284298999933526,1.7764442826642637,,psi_staircase,emotion,,150.04293000169994,150.04293000169994,27.054990449744093,532.275374299963,94,48,male,True,5322,5330,False,False,expiration,expiration
137,149.0,25,F,down,0.6578349000774324,0.7850351089914989,,psi_staircase,emotion,,141.73337100141325,141.73337100141325,23.997705832463016,534.2419399999781,94,48,male,True,5341,5348,False,False,inspiration,inspiration
138,164.0,25,M,down,1.0816141000250354,1.5207063102392029,,psi_staircase,emotion,,151.54593530786988,151.54593530786988,29.429280106921176,536.7751918999711,94,48,male,True,5367,5378,False,False,expiration,expiration
139,175.0,25,F,down,0.6630396000109613,1.044244543131559,,psi_staircase,emotion,,161.73374947545852,161.73374947545852,34.16218580940625,539.2587583999848,94,48,male,True,5392,5399,False,False,inspiration,expiration
140,181.0,25,F,up,1.31742320000194,1.0248831204411477,,psi_staircase,emotion,,170.29241969482402,170.29241969482402,36.74535067601561,541.3083858999888,94,48,male,True,5412,5425,False,False,inspiration,inspiration
141,182.0,25,M,up,0.6058491999283433,0.6621272126164655,,psi_staircase,emotion,,166.24587700342258,166.24587700342258,35.93499658511704,543.6249468999448,94,48,male,True,5435,5441,False,False,expiration,expiration
142,182.0,25,F,up,0.6689115000190213,1.2133758007329296,,psi_staircase,emotion,,162.8002576768831,162.8002576768831,34.99914097636618,545.7748583999928,94,48,male,True,5457,5464,False,False,inspiration,inspiration
143,139.0,25,F,up,0.5523545999312773,1.0489047899205155,,psi_staircase,emotion,,159.88525418973202,159.88525418973202,34.05232822789439,547.8414488999406,94,48,male,True,5477,5483,False,False,expiration,expiration
144,132.0,25,F,up,0.6831001999089494,1.8782474750342604,,psi_staircase,emotion,,153.20185420165052,153.20185420165052,36.39985719132922,550.624655499938,94,48,male,True,5505,5512,False,False,inspiration,expiration
145,127.0,25,M,up,1.397509599919431,0.9706600775984506,,psi_staircase,emotion,,146.73114569150678,146.73114569150678,38.247537043095264,552.6412588999374,94,48,male,True,5525,5539,False,False,expiration,expiration
146,121.0,25,M,down,0.9039689999772236,0.8622243330627648,,psi_staircase,emotion,,140.65939796873909,140.65939796873909,39.6523510868345,555.2578319000313,94,48,male,True,5552,5561,False,False,inspiration,expiration
147,123.0,25,F,up,0.8783624999923632,0.8126076033455556,,psi_staircase,emotion,,143.36155125249633,143.36155125249633,39.09742256218678,557.3244387999874,94,48,male,True,5572,5581,False,False,expiration,expiration
148,119.0,25,F,up,0.8494524999987334,1.775819672861335,,psi_staircase,emotion,,138.01293105728755,138.01293105728755,40.27255976796077,560.3243188000051,94,48,male,True,5602,5610,False,False,inspiration,expiration
149,115.0,25,M,up,0.7058561000740156,1.0359385463435171,,psi_staircase,emotion,,132.96942181478985,132.96942181478985,41.241142471728246,562.5579098999733,94,48,male,True,5625,5632,False,False,expiration,expiration
150,111.0,25,M,up,0.6826409999048337,1.5049743143108572,,psi_staircase,emotion,,128.17102477011423,128.17102477011423,42.062735440396274,565.1241522999479,94,48,male,True,5650,5657,False,False,inspiration,inspiration
151,108.0,25,M,up,0.6956566999433562,0.6629490917872944,,psi_staircase,emotion,,123.56956478447457,123.56956478447457,42.7718866595509,566.824109399924,94,48,male,True,5667,5674,False,False,inspiration,expiration
152,104.0,25,M,down,0.7851336000021547,1.2997816198868586,,psi_staircase,emotion,,119.19770196388784,119.19770196388784,43.361656005483425,569.1576547999866,94,48,male,True,5691,5699,False,False,expiration,expiration
153,107.0,25,F,down,0.9298060999717565,0.5152874320242634,,psi_staircase,emotion,,121.66906507023029,121.66906507023029,43.05619343728594,570.8239484999795,94,48,male,True,5707,5716,False,False,expiration,inspiration
154,109.0,25,F,down,0.6965711000375451,0.4994444565483602,,psi_staircase,emotion,,123.962731367074,123.962731367074,42.76783226866589,572.6072158999741,94,48,male,True,5725,5732,False,False,inspiration,expiration
155,111.0,25,F,up,0.9070173000218348,1.6312060315772607,,psi_staircase,emotion,,126.07724839968971,126.07724839968971,42.494304335896224,575.2737845999653,94,48,male,True,5752,5761,False,False,expiration,expiration
156,107.0,25,M,down,0.6934370999224484,0.9323000673859164,,psi_staircase,emotion,,122.65765524698077,122.65765524698077,42.939715722549856,577.4403359999415,94,48,male,True,5773,5780,False,False,inspiration,inspiration
157,109.0,25,M,down,0.681808999972418,1.2412836500477311,,psi_staircase,emotion,,124.56491151614443,124.56491151614443,42.684491306117046,579.706947300001,94,48,male,True,5796,5803,False,False,expiration,expiration
158,112.0,25,F,up,0.7586482000770047,1.1073025773856782,,psi_staircase,emotion,,126.36201318051205,126.36201318051205,42.44450589911518,581.8401850999799,94,48,male,True,5817,5825,False,False,inspiration,inspiration
159,107.0,25,F,up,0.9949993999907748,0.9758085504413688,,psi_staircase,emotion,,123.4137186640082,123.4137186640082,42.806670708986786,583.9067844999953,94,48,male,True,5838,5848,False,False,expiration,expiration
160,104.0,25,M,down,0.8344027000712231,0.6298800968737988,,psi_staircase,emotion,,120.44991399238607,120.44991399238607,43.228825643734076,585.8733939999947,94,48,male,True,5858,5866,False,False,expiration,inspiration
161,105.0,25,M,up,0.6621271999320015,0.4414482037626025,,psi_staircase,emotion,,122.05228481184116,122.05228481184116,43.00206013918781,587.506672999938,94,48,male,True,5874,5881,False,False,inspiration,expiration
162,102.0,25,F,down,0.6511496000457555,1.5798961592758776,,psi_staircase,emotion,,119.26599587865688,119.26599587865688,43.40997257996381,590.1065895999783,94,48,male,True,5900,5907,False,False,expiration,expiration
163,104.0,25,M,up,1.0432867999188602,0.4587100902260235,,psi_staircase,emotion,,120.7379177830324,120.7379177830324,43.195161295703564,591.5564684999407,94,48,male,True,5915,5925,False,False,inspiration,inspiration
164,101.0,25,F,down,0.7070783999515697,1.7855606476212678,,psi_staircase,emotion,,118.14280264653593,118.14280264653593,43.56660787153297,594.7397033999441,94,48,male,True,5946,5953,False,False,expiration,expiration
165,102.0,25,M,up,1.1294042998924851,0.3307193024357387,,psi_staircase,emotion,,119.52770507352751,119.52770507352751,43.365935923430655,596.1063555999426,94,48,male,True,5960,5971,False,False,inspiration,inspiration
166,100.0,25,F,up,0.860505299991928,0.92313498888734,,psi_staircase,emotion,,117.06025223368314,117.06025223368314,43.73246784245492,598.506254500011,94,48,male,True,5984,5993,False,False,inspiration,expiration
167,98.0,25,M,up,0.8655503999907523,0.5880256489141277,,psi_staircase,emotion,,114.6574818937188,114.6574818937188,44.076805326297254,600.306207699934,94,48,male,True,6002,6011,False,False,expiration,expiration
168,97.0,25,F,down,0.7079931000480428,0.7998079515112375,,psi_staircase,emotion,,112.31231821139929,112.31231821139929,44.40010776002677,602.3227891999994,94,48,male,True,6022,6029,False,False,inspiration,inspiration
169,98.0,25,M,down,0.8717175000347197,0.3837292257594262,,psi_staircase,emotion,,113.63169520900529,113.63169520900529,44.23319642625447,603.7560490999604,94,48,male,True,6037,6046,False,False,inspiration,inspiration
170,99.0,25,M,down,0.8341842000372708,1.9851445484324275,,psi_staircase,emotion,,114.89037080343128,114.89037080343128,44.070388279952624,606.9726120999549,94,48,male,True,6069,6077,False,False,expiration,expiration
171,101.0,25,F,up,0.8686116000171751,1.1683864254583456,,psi_staircase,emotion,,116.09510992462059,116.09510992462059,43.912212210936595,609.3391779999947,94,48,male,True,6092,6101,False,False,expiration,inspiration
172,98.0,25,F,up,0.8036619999911636,1.3032765719012422,,psi_staircase,emotion,,114.0766516769112,114.0766516769112,44.163783581162356,611.8390849999852,94,48,male,True,6117,6125,False,False,expiration,expiration
173,96.0,25,F,up,0.9155225999420508,1.8819933006006344,,psi_staircase,emotion,,112.06444060823328,112.06444060823328,44.432975331289136,614.8722997999283,94,48,male,True,6148,6157,False,False,inspiration,expiration
174,94.0,25,M,down,0.6589610000373796,1.4080751167271024,,psi_staircase,emotion,,110.08518238844002,110.08518238844002,44.696089886327464,617.5388343000086,94,48,male,True,6175,6182,False,False,expiration,expiration
175,95.0,25,M,up,0.8506352999247611,1.9663974363542152,,psi_staircase,emotion,,111.19705226754856,111.19705226754856,44.550339896691426,620.5221114000306,94,48,male,True,6204,6213,False,False,inspiration,expiration
176,94.0,25,F,up,0.8964842000277713,0.9382334309816832,,psi_staircase,emotion,,109.30583420965807,109.30583420965807,44.80152924562968,622.6553143999772,94,48,male,True,6226,6235,False,False,expiration,expiration
177,92.0,25,F,up,0.6901248000795022,1.7276327756360317,,psi_staircase,emotion,,107.46727688489156,107.46727688489156,45.03190405455744,625.6386489999712,94,48,male,True,6256,6263,False,False,inspiration,expiration
178,91.0,25,F,up,0.8183197999605909,1.5527899212086618,,psi_staircase,emotion,,105.65001917554709,105.65001917554709,45.258082914645755,628.2384747000178,94,48,male,True,6281,6289,False,False,expiration,inspiration
179,90.0,25,M,up,0.5816753000253811,1.4829764946737307,,psi_staircase,emotion,,103.87910394118622,103.87910394118622,45.46572518627652,630.9050749000163,94,48,male,True,6308,6314,False,False,inspiration,peak
180,88.0,25,M,up,0.7103977999649942,1.316969968072436,,psi_staircase,emotion,,102.15133453136811,102.15133453136811,45.657162061648684,633.1553049000213,94,48,male,True,6331,6338,False,False,expiration,expiration
181,87.0,25,M,up,0.5671927999937907,0.5001377087405292,,psi_staircase,emotion,,100.43741366848093,100.43741366848093,45.84531200000672,634.7215944000053,94,48,male,True,6346,6352,False,False,trough,inspiration
182,0.058824928031104014,25,down,up,1.2734791999682784,0.7003919972873034,,experiment,cRDM,0.0,,,,639.9213154999306,94,48,male,True,6398,6411,False,False,inspiration,expiration
183,0.058824928031104014,25,up,up,0.7201687000924721,1.1031954330354394,,experiment,cRDM,0.0,,,,642.5545594999568,94,48,male,True,6425,6432,False,False,expiration,expiration
184,0.058824928031104014,25,down,down,0.6519050000933929,0.4989412082171207,,experiment,cRDM,0.0,,,,644.0378327999497,94,48,male,True,6440,6447,False,False,inspiration,inspiration
185,0.058824928031104014,25,up,up,1.2709838000591844,0.3398014471436574,,experiment,cRDM,0.0,,,,645.2878073999891,94,48,male,True,6452,6465,False,False,peak,expiration
186,0.058824928031104014,25,down,down,0.8211015000706539,1.1192006467150923,,experiment,cRDM,0.0,,,,647.9376782999608,94,48,male,True,6478,6486,False,False,inspiration,inspiration
187,0.058824928031104014,25,down,up,0.6601636999985203,1.4055564871124422,,experiment,cRDM,0.0,,,,650.4375940000173,94,48,male,True,6503,6510,False,False,peak,expiration
188,0.058824928031104014,25,up,down,0.8142792000435293,1.6273737080973285,,experiment,cRDM,0.0,,,,652.9875031999545,94,48,male,True,6529,6537,False,False,expiration,inspiration
189,0.058824928031104014,25,down,up,0.6340023999800906,0.7009707524722614,,experiment,cRDM,0.0,,,,654.770843999926,94,48,male,True,6547,6553,False,False,inspiration,peak
190,0.058824928031104014,25,up,down,0.6896460000425577,0.4427842494158559,,experiment,cRDM,0.0,,,,656.1040840999922,94,48,male,True,6560,6567,False,False,expiration,expiration
191,0.058824928031104014,25,up,up,0.7257948000915349,1.4477203740024869,,experiment,cRDM,0.0,,,,658.5039833999473,94,48,male,True,6584,6591,False,False,trough,inspiration
192,0.058824928031104014,25,down,down,0.6695503999944776,1.3443037452854067,,experiment,cRDM,0.0,,,,660.8372027999721,94,48,male,True,6607,6614,False,False,expiration,expiration
193,0.058824928031104014,25,up,down,1.061206999933347,0.6593938056933712,,experiment,cRDM,0.0,,,,662.4205221999438,94,48,male,True,6623,6634,False,False,expiration,inspiration
194,0.058824928031104014,25,up,down,0.703656499972567,0.3890310328279346,,experiment,cRDM,0.0,,,,664.1370774999958,94,48,male,True,6640,6647,False,False,inspiration,expiration
195,0.058824928031104014,25,up,up,0.7330633000237867,0.638224680971406,,experiment,cRDM,0.0,,,,665.7537270999746,94,48,male,True,6657,6664,False,False,expiration,expiration
196,0.058824928031104014,25,down,down,0.6424746999982744,1.861462172851285,,experiment,cRDM,0.0,,,,668.620269899955,94,48,male,True,6685,6691,False,False,inspiration,inspiration
197,0.058824928031104014,25,down,down,1.088171900017187,0.4794403607959745,,experiment,cRDM,0.0,,,,670.003559099976,94,48,male,True,6699,6710,False,False,expiration,expiration
198,0.058824928031104014,25,up,up,0.7253072999883443,1.7597402579122143,,experiment,cRDM,0.0,,,,673.103447600035,94,48,male,True,6730,6737,False,False,inspiration,inspiration
199,0.058824928031104014,25,up,down,0.6457340999040753,0.8243585337836845,,experiment,cRDM,0.0,,,,674.9200480999425,94,48,male,True,6748,6754,False,False,expiration,expiration
200,0.058824928031104014,25,down,down,0.7701048000017181,0.6618442990264884,,experiment,cRDM,0.0,,,,676.4866813999834,94,48,male,True,6764,6772,False,False,expiration,inspiration
201,0.058824928031104014,25,down,down,1.5238104999298232,0.5959804493390423,,experiment,cRDM,0.0,,,,678.1199155999348,94,48,male,True,6780,6795,False,False,inspiration,expiration
202,0.058824928031104014,25,up,up,0.8683145999675617,0.4326957248248833,,experiment,cRDM,0.0,,,,680.3364594000159,94,48,male,True,6802,6811,False,False,expiration,inspiration
203,0.058824928031104014,25,down,down,0.812690099934116,1.4302119221903715,,experiment,cRDM,0.0,,,,682.9030909999274,94,48,male,True,6828,6836,False,False,expiration,expiration
204,0.058824928031104014,25,up,down,1.5697285999776796,0.9805141837273588,,experiment,cRDM,0.0,,,,684.9530067000305,94,48,male,True,6849,6865,False,False,expiration,inspiration
205,0.058824928031104014,25,down,down,0.7153009000467137,1.8256868322416535,,experiment,cRDM,0.0,,,,688.6195379999699,94,48,male,True,6885,6892,False,False,inspiration,inspiration
206,0.058824928031104014,25,down,down,0.6472420999780297,1.3560443422479849,,experiment,cRDM,0.0,,,,690.9694907999366,94,48,male,True,6909,6915,False,False,expiration,expiration
207,0.058824928031104014,25,up,down,0.6854036999866366,1.9255794539091855,,experiment,cRDM,0.0,,,,693.8193572999443,94,48,male,True,6937,6944,False,False,inspiration,inspiration
208,0.058824928031104014,25,up,up,1.456141399918124,1.1353770932698373,,experiment,cRDM,0.0,,,,695.9025997000281,94,48,male,True,6958,6973,False,False,expiration,expiration
209,0.058824928031104014,25,down,down,0.5842231999849901,0.3784354714449748,,experiment,cRDM,0.0,,,,698.0025444999338,94,48,male,True,6979,6985,False,False,expiration,expiration
210,0.058824928031104014,25,up,up,1.1486047999933362,0.6781821491532332,,experiment,cRDM,0.0,,,,699.5191360999597,94,48,male,True,6994,7005,False,False,trough,inspiration
211,0.058824928031104014,25,down,down,0.6330336999380961,0.4622747259307581,,experiment,cRDM,0.0,,,,701.3857503000181,94,48,male,True,7013,7019,False,False,expiration,expiration
212,0.058824928031104014,25,up,down,0.7900590000208467,1.0987302533943446,,experiment,cRDM,0.0,,,,703.3856662999606,94,48,male,True,7033,7041,False,False,expiration,expiration
213,0.058824928031104014,25,down,down,0.6395641999552026,1.4104625685499077,,experiment,cRDM,0.0,,,,705.8522244000342,94,48,male,True,7058,7064,False,False,inspiration,peak
214,0.058824928031104014,25,up,up,0.8835525999311358,0.7452063584840599,,experiment,cRDM,0.0,,,,707.5021751000313,94,48,male,True,7074,7083,False,False,expiration,expiration
215,0.058824928031104014,25,down,down,0.6746460000285879,1.4478477596360704,,experiment,cRDM,0.0,,,,710.102124499972,94,48,male,True,7100,7107,False,False,inspiration,expiration
216,0.058824928031104014,25,up,down,0.8534571999916807,1.3188400852228508,,experiment,cRDM,0.0,,,,712.3523144000211,94,48,male,True,7123,7132,False,False,expiration,inspiration
217,0.058824928031104014,25,down,down,0.6868334000464529,1.6328140991786468,,experiment,cRDM,0.0,,,,715.1019088999602,94,48,male,True,7150,7157,False,False,inspiration,inspiration
218,0.058824928031104014,25,up,up,1.330260599963367,1.6240115083872155,,experiment,cRDM,0.0,,,,717.6684818000067,94,48,male,True,7176,7189,False,False,expiration,expiration
219,0.058824928031104014,25,down,down,0.6104101999662817,1.088530931827568,,experiment,cRDM,0.0,,,,720.3353609000333,94,48,male,True,7203,7209,False,False,expiration,inspiration
220,0.058824928031104014,25,up,down,0.7024813999887556,1.1066087041732142,,experiment,cRDM,0.0,,,,722.318275699974,94,48,male,True,7222,7229,False,False,inspiration,peak
221,0.058824928031104014,25,down,down,0.7264953999547288,1.5322982828869718,,experiment,cRDM,0.0,,,,724.8182048000161,94,48,male,True,7247,7254,False,False,expiration,expiration
222,0.058824928031104014,25,down,down,0.6606341000879183,1.9523318775797105,,experiment,cRDM,0.0,,,,727.76811179996,94,48,male,True,7277,7284,False,False,expiration,expiration
223,0.058824928031104014,25,up,down,1.3664460000582042,1.962519385335442,,experiment,cRDM,0.0,,,,730.6513216999592,94,48,male,True,7306,7320,False,False,expiration,expiration
224,0.058824928031104014,25,down,down,0.6011847999179736,0.3670061307844165,,experiment,cRDM,0.0,,,,732.6345775999362,94,48,male,True,7325,7331,False,False,expiration,expiration
225,0.058824928031104014,25,up,down,0.6823280999669805,1.0597356834784477,,experiment,cRDM,0.0,,,,734.5678666000023,94,48,male,True,7345,7352,False,False,inspiration,inspiration
226,0.058824928031104014,25,up,up,0.9349958000238984,1.3510558012505969,,experiment,cRDM,0.0,,,,736.867763999966,94,48,male,True,7368,7377,False,False,inspiration,expiration
227,0.058824928031104014,25,down,down,0.6430687999818474,0.6861524262887455,,experiment,cRDM,0.0,,,,738.7676710999804,94,48,male,True,7387,7393,False,False,expiration,expiration
228,0.058824928031104014,25,down,down,0.6214576000347733,0.9974116145592532,,experiment,cRDM,0.0,,,,740.6842880999902,94,48,male,True,7406,7412,False,False,expiration,expiration
229,0.058824928031104014,25,up,down,0.6618469000095502,0.3347845586949757,,experiment,cRDM,0.0,,,,741.9009316000156,94,48,male,True,7418,7425,False,False,expiration,expiration
230,0.058824928031104014,25,down,down,0.6862886999733746,1.6425181554912338,,experiment,cRDM,0.0,,,,744.4674846000272,94,48,male,True,7444,7451,False,False,inspiration,inspiration
231,0.058824928031104014,25,up,down,0.86238730000332,1.6222587829880517,,experiment,cRDM,0.0,,,,747.0343780999538,94,48,male,True,7470,7479,False,False,expiration,expiration
232,0.058824928031104014,25,up,down,0.6358057999750599,1.2792338677228967,,experiment,cRDM,0.0,,,,749.4339851000113,94,48,male,True,7494,7500,False,False,expiration,expiration
233,0.058824928031104014,25,up,up,0.7421806000638753,1.2778182705970205,,experiment,cRDM,0.0,,,,751.6005663999823,94,48,male,True,7515,7522,False,False,expiration,expiration
234,0.058824928031104014,25,up,up,1.0462445000885054,1.5939650339021243,,experiment,cRDM,0.0,,,,754.200474299956,94,48,male,True,7541,7551,False,False,inspiration,expiration
235,0.058824928031104014,25,up,down,0.6090634000720456,0.7642501193515164,,experiment,cRDM,0.0,,,,756.2837080999742,94,48,male,True,7562,7568,False,False,expiration,expiration
236,0.058824928031104014,25,down,down,0.7073868999723345,0.9125721289862244,,experiment,cRDM,0.0,,,,758.0503523999361,94,48,male,True,7580,7587,False,False,inspiration,inspiration
237,0.058824928031104014,25,down,down,0.6339112999849021,1.4348856673121448,,experiment,cRDM,0.0,,,,760.4668877000223,94,48,male,True,7604,7610,False,False,expiration,expiration
238,0.058824928031104014,25,down,down,0.6035418000537902,1.5826978488324566,,experiment,cRDM,0.0,,,,762.9502308999654,94,48,male,True,7629,7635,False,False,inspiration,inspiration
239,0.058824928031104014,25,up,up,0.3675131999189034,0.3434569277548537,,experiment,cRDM,0.0,,,,764.1667731000342,94,48,male,True,7641,7645,False,False,inspiration,inspiration
240,0.058824928031104014,25,down,down,0.5673822000389919,0.8321753148571658,,experiment,cRDM,0.0,,,,765.6833893000148,94,48,male,True,7656,7662,False,False,expiration,expiration
241,0.058824928031104014,25,down,down,0.5274504999397323,1.7366870010554276,,experiment,cRDM,0.0,,,,768.2332910000115,94,48,male,True,7682,7687,False,False,inspiration,inspiration
242,0.058824928031104014,25,down,down,0.7689317000331357,1.99015938245662,,experiment,cRDM,0.0,,,,770.9998320000012,94,48,male,True,7709,7717,False,False,expiration,inspiration
243,0.058824928031104014,25,up,down,0.6296294999774545,1.2525180289371238,,experiment,cRDM,0.0,,,,773.283102700021,94,48,male,True,7732,7738,False,False,inspiration,expiration
244,0.058824928031104014,25,down,down,0.6474300998961553,1.4486140511537977,,experiment,cRDM,0.0,,,,775.6163382999367,94,48,male,True,7755,7761,False,False,expiration,trough
245,0.058824928031104014,25,up,down,0.5178470000391826,0.91521742578994,,experiment,cRDM,0.0,,,,777.432930800016,94,48,male,True,7774,7779,False,False,inspiration,peak
246,0.058824928031104014,25,up,down,0.4761884999461472,1.0849217532454831,,experiment,cRDM,0.0,,,,779.2995389000281,94,48,male,True,7792,7797,False,False,expiration,expiration
247,0.058824928031104014,25,down,down,0.6050042000133544,1.5310946589646612,,experiment,cRDM,0.0,,,,781.5828073000303,94,48,male,True,7815,7821,False,False,inspiration,inspiration
248,0.058824928031104014,25,up,down,0.6000329999951646,0.4462361878519458,,experiment,cRDM,0.0,,,,782.8827365000034,94,48,male,True,7828,7834,False,False,expiration,expiration
249,0.058824928031104014,25,down,down,0.6590476999990642,1.4456106721724515,,experiment,cRDM,0.0,,,,785.1826806999742,94,48,male,True,7851,7858,False,False,inspiration,inspiration
250,0.058824928031104014,25,up,down,0.6211598999798298,1.7352206354240025,,experiment,cRDM,0.0,,,,787.8325436000014,94,48,male,True,7877,7883,False,False,expiration,expiration
251,0.058824928031104014,25,down,down,0.6105893000494689,1.0393817056217889,,experiment,cRDM,0.0,,,,789.749168899958,94,48,male,True,7897,7903,False,False,inspiration,inspiration
252,0.058824928031104014,25,up,down,0.6019214000552893,1.0406702580227647,,experiment,cRDM,0.0,,,,791.6658152999588,94,48,male,True,7916,7922,False,False,expiration,expiration
253,0.058824928031104014,25,down,down,0.5324603000190109,1.9290105832760427,,experiment,cRDM,0.0,,,,794.4493386999237,94,48,male,True,7944,7949,False,False,inspiration,inspiration
254,0.058824928031104014,25,down,down,0.572546900017187,1.77780537225014,,experiment,cRDM,0.0,,,,797.0322004000191,94,48,male,True,7970,7976,False,False,inspiration,inspiration
255,0.058824928031104014,25,down,down,0.5112835000036284,1.7470040761315784,,experiment,cRDM,0.0,,,,799.6154752000003,94,48,male,True,7995,8000,False,False,inspiration,expiration
256,0.058824928031104014,25,down,down,0.5736596001079306,0.8919980229510107,,experiment,cRDM,0.0,,,,801.2820682999445,94,48,male,True,8012,8018,False,False,expiration,expiration
257,0.058824928031104014,25,down,down,0.499704800080508,0.3691633772520565,,experiment,cRDM,0.0,,,,802.4820330999793,94,48,male,True,8024,8029,False,False,trough,inspiration
258,0.058824928031104014,25,up,up,1.2701629999792203,1.664260350322466,,experiment,cRDM,0.0,,,,804.8985913000071,94,48,male,True,8048,8061,False,False,inspiration,expiration
259,0.058824928031104014,25,up,down,0.5029099999228492,1.4553937344562409,,experiment,cRDM,0.0,,,,807.8818263999418,94,48,male,True,8078,8083,False,False,expiration,expiration
260,0.058824928031104014,25,up,down,0.4872555000474677,0.401726490386992,,experiment,cRDM,0.0,,,,809.0484615999741,94,48,male,True,8090,8095,False,False,expiration,inspiration
261,0.058824928031104014,25,up,down,0.5013626000145449,1.6932963201293585,,experiment,cRDM,0.0,,,,811.4983662000159,94,48,male,True,8114,8119,False,False,expiration,expiration
262,116.0,25,M,down,1.0215278000105172,1.4094634308285083,,experiment,emotion,0.0,,,,816.9982293000212,94,48,male,True,8169,8179,False,False,expiration,expiration
263,80.0,25,M,down,0.6679571000859141,1.998386007034328,,experiment,emotion,0.0,,,,820.3147755999817,94,48,male,True,8202,8209,False,False,inspiration,inspiration
264,104.0,25,F,up,0.6947391000576317,0.4958448402338212,,experiment,emotion,0.0,,,,821.7480077999644,94,48,male,True,8217,8224,False,False,expiration,expiration
265,116.0,25,F,down,0.6154364000540227,1.370784071351149,,experiment,emotion,0.0,,,,824.0813016999747,94,48,male,True,8240,8246,False,False,inspiration,inspiration
266,104.0,25,M,down,0.7208417999790981,0.8943178662404092,,experiment,emotion,0.0,,,,825.8478831999237,94,48,male,True,8258,8265,False,False,expiration,expiration
267,92.0,25,F,down,0.5848531000083312,0.34499279970175034,,experiment,emotion,0.0,,,,827.1978779999772,94,48,male,True,8271,8277,False,False,expiration,trough
268,80.0,25,M,down,0.6903938000323251,1.3109937187623584,,experiment,emotion,0.0,,,,829.364453200018,94,48,male,True,8293,8300,False,False,inspiration,expiration
269,92.0,25,M,down,0.5557084000902249,1.2591393656687504,,experiment,emotion,0.0,,,,831.581040399964,94,48,male,True,8315,8321,False,False,inspiration,inspiration
270,116.0,25,F,up,0.8117756999563426,0.9903238427144564,,experiment,emotion,0.0,,,,833.3809509000274,94,48,male,True,8333,8341,False,False,inspiration,inspiration
271,92.0,25,F,down,0.5138309000758454,0.5737621675039717,,experiment,emotion,0.0,,,,835.0308948999736,94,48,male,True,8349,8354,False,False,expiration,expiration
272,104.0,25,F,down,0.9705377999925986,0.4956195834708567,,experiment,emotion,0.0,,,,836.3141784999752,94,48,male,True,8362,8372,False,False,expiration,expiration
273,116.0,25,F,up,0.8835716999601573,0.5138043999437362,,experiment,emotion,0.0,,,,838.0641243000282,94,48,male,True,8380,8389,False,False,trough,inspiration
274,104.0,25,F,down,0.9583915000548586,0.8096686965304165,,experiment,emotion,0.0,,,,840.0473755999701,94,48,male,True,8400,8410,False,False,inspiration,expiration
275,80.0,25,F,down,0.6190667999908328,1.1977529056046563,,experiment,emotion,0.0,,,,842.4806325000245,94,48,male,True,8424,8430,False,False,expiration,expiration
276,92.0,25,M,down,0.8484943000366911,1.235642470578366,,experiment,emotion,0.0,,,,844.5972206000006,94,48,male,True,8445,8453,False,False,inspiration,inspiration
277,80.0,25,M,down,0.5319135000463575,0.5485496054494332,,experiment,emotion,0.0,,,,846.2638379000128,94,48,male,True,8462,8467,False,False,expiration,expiration
278,116.0,25,M,up,0.7790356000186875,1.3384773311836689,,experiment,emotion,0.0,,,,848.4137388999808,94,48,male,True,8483,8491,False,False,expiration,inspiration
279,80.0,25,M,up,1.1864966999273747,1.9279414244066189,,experiment,emotion,0.0,,,,851.3803117999341,94,48,male,True,8513,8525,False,False,expiration,expiration
280,104.0,25,F,up,0.6445295000448823,1.9021133291427637,,experiment,emotion,0.0,,,,854.7471744000212,94,48,male,True,8547,8553,False,False,inspiration,expiration
281,104.0,25,M,up,0.8069515000097454,1.4005676667353155,,experiment,emotion,0.0,,,,857.0467429999263,94,48,male,True,8570,8578,False,False,expiration,expiration
282,92.0,25,M,down,1.0607163000386208,1.0154045841483064,,experiment,emotion,0.0,,,,859.1300291999942,94,48,male,True,8590,8601,False,False,inspiration,peak
283,92.0,25,F,down,1.4632041000295433,1.8938045823789849,,experiment,emotion,0.0,,,,862.3465210000287,94,48,male,True,8623,8638,False,False,expiration,inspiration
284,80.0,25,M,down,0.6536016999743879,1.4218382869943884,,experiment,emotion,0.0,,,,865.5131244999358,94,48,male,True,8654,8661,False,False,inspiration,expiration
285,116.0,25,F,up,0.7750599000137299,0.9662919331634215,,experiment,emotion,0.0,,,,867.4296939999332,94,48,male,True,8673,8681,False,False,expiration,expiration
286,104.0,25,F,up,0.7162053000647575,1.9379754513032568,,experiment,emotion,0.0,,,,870.429574299953,94,48,male,True,8703,8710,False,False,inspiration,expiration
287,80.0,25,M,down,0.7408597000176087,1.1071254451171166,,experiment,emotion,0.0,,,,872.5128611000255,94,48,male,True,8724,8731,False,False,expiration,expiration
288,116.0,25,M,up,1.0529415999772027,1.0378683450254964,,experiment,emotion,0.0,,,,874.5627899999962,94,48,male,True,8745,8756,False,False,inspiration,expiration
289,116.0,25,F,up,0.8090490000322461,1.4112327987836857,,experiment,emotion,0.0,,,,877.3126875000308,94,48,male,True,8772,8780,False,False,expiration,inspiration
290,92.0,25,M,down,0.693484399933368,1.8696512149553317,,experiment,emotion,0.0,,,,880.2792351000244,94,48,male,True,8802,8809,False,False,inspiration,peak
291,80.0,25,F,down,0.9789568000705912,1.3038140574428776,,experiment,emotion,0.0,,,,882.545783199952,94,48,male,True,8825,8835,False,False,expiration,expiration
292,92.0,25,F,down,0.8809775999980047,0.5732120126793706,,experiment,emotion,0.0,,,,884.3457320999588,94,48,male,True,8843,8852,False,False,expiration,inspiration
293,104.0,25,F,up,0.6097600000211969,0.3212888153762122,,experiment,emotion,0.0,,,,885.8290259999923,94,48,male,True,8857,8863,False,False,inspiration,expiration
294,80.0,25,M,up,1.0621419999515638,1.6427949527265235,,experiment,emotion,0.0,,,,888.3455845999997,94,48,male,True,8883,8894,False,False,inspiration,expiration
295,116.0,25,M,up,0.7238721000030637,1.1545090693067614,,experiment,emotion,0.0,,,,890.8288478000322,94,48,male,True,8907,8914,False,False,expiration,expiration
296,104.0,25,M,up,0.7119856000645086,1.016716285425303,,experiment,emotion,0.0,,,,892.8287485999755,94,48,male,True,8927,8934,False,False,inspiration,inspiration
297,116.0,25,F,up,0.7940439999802038,1.8656186716459155,,experiment,emotion,0.0,,,,895.678678600001,94,48,male,True,8956,8964,False,False,expiration,inspiration
298,80.0,25,F,down,0.6277864000294358,0.5622560924787503,,experiment,emotion,0.0,,,,897.3119451999664,94,48,male,True,8972,8978,False,False,inspiration,expiration
299,104.0,25,M,up,1.146212099934928,1.65517497589524,,experiment,emotion,0.0,,,,899.8785207000328,94,48,male,True,8998,9009,False,False,expiration,trough
300,92.0,25,F,down,0.8169634999940172,1.4924980869664597,,experiment,emotion,0.0,,,,902.8117458999623,94,48,male,True,9027,9035,False,False,inspiration,expiration
301,92.0,25,M,down,0.7264547999948263,1.2289877804751044,,experiment,emotion,0.0,,,,905.1283103999448,94,48,male,True,9050,9057,False,False,expiration,expiration
302,104.0,25,M,up,0.8815193000482395,1.897556034281124,,experiment,emotion,0.0,,,,908.0282019999576,94,48,male,True,9080,9089,False,False,peak,expiration
303,116.0,25,M,up,0.7965941999573259,1.4485966518246065,,experiment,emotion,0.0,,,,910.6451576999389,94,48,male,True,9106,9114,False,False,expiration,expiration
304,92.0,25,F,down,0.6473295000614598,0.9979298811142852,,experiment,emotion,0.0,,,,912.7113806999988,94,48,male,True,9126,9132,False,False,inspiration,inspiration
305,80.0,25,F,down,0.6941405000397936,0.7964270251094648,,experiment,emotion,0.0,,,,914.4445725999541,94,48,male,True,9144,9151,False,False,expiration,expiration
306,80.0,25,M,down,0.6658156999619678,0.8164859889222233,,experiment,emotion,0.0,,,,916.2278973999199,94,48,male,True,9161,9168,False,False,expiration,inspiration
307,92.0,25,F,up,0.6979148000245914,1.6523427328032532,,experiment,emotion,0.0,,,,918.8277925000293,94,48,male,True,9188,9195,False,False,inspiration,inspiration
308,116.0,25,F,up,0.7089445000747219,1.1341903580280608,,experiment,emotion,0.0,,,,920.9278174999637,94,48,male,True,9208,9215,False,False,expiration,expiration
309,104.0,25,M,up,0.7093685000436379,0.7710613277591545,,experiment,emotion,0.0,,,,922.6943619999803,94,48,male,True,9226,9233,False,False,expiration,inspiration
310,80.0,25,M,down,0.7947766999714077,0.4390585441716097,,experiment,emotion,0.0,,,,924.1109583999496,94,48,male,True,9240,9248,False,False,inspiration,inspiration
311,116.0,25,F,up,0.6588428000686689,1.8682553114371732,,experiment,emotion,0.0,,,,927.0608601999702,94,48,male,True,9270,9277,False,False,expiration,expiration
312,104.0,25,M,up,0.8582067999523133,0.3858222751299203,,experiment,emotion,0.0,,,,928.3774680999339,94,48,male,True,9283,9292,False,False,expiration,expiration
313,104.0,25,F,up,0.7670103999553248,1.4056321471558637,,experiment,emotion,0.0,,,,930.9106871000258,94,48,male,True,9308,9316,False,False,inspiration,inspiration
314,80.0,25,F,down,0.8007353999419138,0.35317569223904915,,experiment,emotion,0.0,,,,932.2939756999257,94,48,male,True,9322,9330,False,False,inspiration,inspiration
315,92.0,25,F,down,0.6260807999642566,0.7249226541085403,,experiment,emotion,0.0,,,,934.1105850000168,94,48,male,True,9340,9346,False,False,expiration,expiration
316,116.0,25,M,up,0.6292370000155643,0.7964951766444491,,experiment,emotion,0.0,,,,935.8105122999988,94,48,male,True,9357,9363,False,False,inspiration,inspiration
317,92.0,25,M,up,0.9213395999977364,1.885986199393857,,experiment,emotion,0.0,,,,938.6104103999678,94,48,male,True,9385,9394,False,False,expiration,expiration
318,92.0,25,F,up,0.9777240999974309,1.5271968404710394,,experiment,emotion,0.0,,,,941.3269838999257,94,48,male,True,9412,9422,False,False,inspiration,expiration
319,92.0,25,F,down,0.5268269000807777,1.2976288888233152,,experiment,emotion,0.0,,,,943.8769089999843,94,48,male,True,9438,9443,False,False,expiration,expiration
320,116.0,25,M,up,1.0225626000901684,1.8173886188664687,,experiment,emotion,0.0,,,,946.5101460999575,94,48,male,True,9464,9474,False,False,inspiration,expiration
321,104.0,25,M,down,0.6347337999613956,1.610770099904075,,experiment,emotion,0.0,,,,949.4100179999367,94,48,male,True,9493,9499,False,False,expiration,inspiration
322,80.0,25,M,down,0.6874319000635296,1.867871296747748,,experiment,emotion,0.0,,,,952.19327779999,94,48,male,True,9521,9528,False,False,expiration,expiration
323,80.0,25,M,down,0.6051496000727639,0.7276058348619896,,experiment,emotion,0.0,,,,953.8765402999707,94,48,male,True,9538,9544,False,False,expiration,expiration
324,104.0,25,M,up,0.701571699930355,0.5307431981465667,,experiment,emotion,0.0,,,,955.2931526999457,94,48,male,True,9552,9559,False,False,inspiration,inspiration
325,116.0,25,F,up,0.6911127000348642,1.8832623257116137,,experiment,emotion,0.0,,,,958.1596004000166,94,48,male,True,9581,9588,False,False,expiration,expiration
326,116.0,25,F,up,0.6441154000349343,0.7357771134530078,,experiment,emotion,0.0,,,,959.859662599978,94,48,male,True,9598,9604,False,False,expiration,expiration
327,80.0,25,M,down,0.7794896999839693,0.7554604939828158,,experiment,emotion,0.0,,,,961.5262082000264,94,48,male,True,9615,9623,False,False,expiration,trough
328,116.0,25,F,up,0.6785582000156865,1.9406632476333272,,experiment,emotion,0.0,,,,964.5261306000177,94,48,male,True,9645,9652,False,False,expiration,expiration
329,92.0,25,F,down,1.3689172000158578,0.3593332547201022,,experiment,emotion,0.0,,,,965.8427920999237,94,48,male,True,9658,9672,False,False,expiration,expiration
330,104.0,25,F,up,0.5690634000347927,0.6873941283347478,,experiment,emotion,0.0,,,,968.1926816999913,94,48,male,True,9681,9687,False,False,inspiration,inspiration
331,92.0,25,M,up,0.7165432999609038,0.9181860890078376,,experiment,emotion,0.0,,,,969.959291499923,94,48,male,True,9699,9706,False,False,inspiration,expiration
332,80.0,25,F,down,0.7471950000617653,1.0888576651887942,,experiment,emotion,0.0,,,,972.0425121999581,94,48,male,True,9720,9727,False,False,expiration,expiration
333,104.0,25,F,up,0.7529564999276772,1.25848111986276,,experiment,emotion,0.0,,,,974.3257471999386,94,48,male,True,9743,9751,False,False,inspiration,inspiration
334,92.0,25,F,up,0.5815993000287563,0.5105824332189081,,experiment,emotion,0.0,,,,975.8590691999997,94,48,male,True,9758,9764,False,False,inspiration,peak
335,104.0,25,M,up,0.5690115999896079,0.6142869877342549,,experiment,emotion,0.0,,,,977.3256751999724,94,48,male,True,9773,9779,False,False,expiration,expiration
336,80.0,25,M,down,0.6120807999977842,0.6111825448196466,,experiment,emotion,0.0,,,,978.7756146999308,94,48,male,True,9787,9793,False,False,inspiration,inspiration
337,116.0,25,F,up,0.5614858999615535,1.588239604298984,,experiment,emotion,0.0,,,,981.2422089999308,94,48,male,True,9812,9818,False,False,inspiration,expiration
338,104.0,25,M,up,0.6105709000257775,0.9273694664830818,,experiment,emotion,0.0,,,,982.9921387999783,94,48,male,True,9829,9835,False,False,expiration,expiration
339,116.0,25,F,up,0.5746629999484867,1.4241986320924651,,experiment,emotion,0.0,,,,985.2920449000084,94,48,male,True,9852,9858,False,False,inspiration,inspiration
340,80.0,25,M,down,0.8476980999112129,1.2515406948502414,,experiment,emotion,0.0,,,,987.3919636999491,94,48,male,True,9873,9881,False,False,expiration,expiration
341,92.0,25,M,up,0.7308939000358805,1.9602619453380965,,experiment,emotion,0.0,,,,990.4918623999691,94,48,male,True,9904,9911,False,False,inspiration,expiration
342,0.058824928031104014,25,up,down,1.116788399987854,0.7102388984596529,,experiment,cRDM,1.0,,,,995.6749144999776,94,48,male,True,9956,9967,False,False,inspiration,expiration
343,0.058824928031104014,25,up,down,0.7869252000236884,1.9178230683685342,,experiment,cRDM,1.0,,,,998.9747998999665,94,48,male,True,9989,9997,False,False,expiration,trough
344,0.058824928031104014,25,down,down,1.1952966999961063,1.8122173902981416,,experiment,cRDM,1.0,,,,1001.841387799941,94,48,male,True,10018,10030,False,False,expiration,expiration
345,0.058824928031104014,25,down,down,0.7738122000591829,1.6009272804572876,,experiment,cRDM,1.0,,,,1004.9079002999932,94,48,male,True,10048,10056,False,False,inspiration,peak
346,0.058824928031104014,25,up,up,0.8911920000100508,0.545515547045181,,experiment,cRDM,1.0,,,,1006.4745089999632,94,48,male,True,10064,10073,False,False,expiration,expiration
347,0.058824928031104014,25,down,down,0.5755683000897989,0.6967011180054167,,experiment,cRDM,1.0,,,,1008.341176499962,94,48,male,True,10083,10089,False,False,inspiration,inspiration
348,0.058824928031104014,25,up,down,0.6420516999205574,1.710851610507201,,experiment,cRDM,1.0,,,,1010.9076625999296,94,48,male,True,10108,10114,False,False,expiration,expiration
349,0.058824928031104014,25,up,up,1.1397423999151215,1.2291265219428429,,experiment,cRDM,1.0,,,,1013.041010499932,94,48,male,True,10130,10141,False,False,inspiration,expiration
350,0.058824928031104014,25,down,down,0.6838059000438079,0.33454235888800143,,experiment,cRDM,1.0,,,,1014.7908926999663,94,48,male,True,10147,10154,False,False,expiration,expiration
351,0.058824928031104014,25,down,down,0.905926899984479,0.861084956911542,,experiment,cRDM,1.0,,,,1016.5908039999194,94,48,male,True,10165,10174,False,False,trough,inspiration
352,0.058824928031104014,25,down,down,0.5699537999462336,1.5831887527067718,,experiment,cRDM,1.0,,,,1019.3407547000096,94,48,male,True,10193,10199,False,False,expiration,expiration
353,0.058824928031104014,25,down,down,0.5644032000564039,1.539281217470048,,experiment,cRDM,1.0,,,,1021.7072917999468,94,48,male,True,10216,10222,False,False,inspiration,expiration
354,0.058824928031104014,25,down,up,0.8877959999954328,0.8362297747662621,,experiment,cRDM,1.0,,,,1023.3739045999246,94,48,male,True,10233,10242,False,False,expiration,expiration
355,0.058824928031104014,25,down,down,0.5729437000118196,1.6026940500630862,,experiment,cRDM,1.0,,,,1026.123788399971,94,48,male,True,10261,10267,False,False,inspiration,expiration
356,0.058824928031104014,25,up,up,0.9843056000536308,1.684754574264712,,experiment,cRDM,1.0,,,,1028.6403916999698,94,48,male,True,10286,10296,False,False,expiration,inspiration
357,0.058824928031104014,25,up,down,0.6750548999989405,1.2821628674866503,,experiment,cRDM,1.0,,,,1031.1736428999575,94,48,male,True,10311,10318,False,False,expiration,expiration
358,0.058824928031104014,25,up,down,0.9128927000565454,1.4862625633284314,,experiment,cRDM,1.0,,,,1033.6068330999697,94,48,male,True,10335,10344,False,False,expiration,inspiration
359,0.058824928031104014,25,up,down,0.6205126999411732,1.1578970178573662,,experiment,cRDM,1.0,,,,1035.940178400022,94,48,male,True,10359,10365,False,False,expiration,expiration
360,0.058824928031104014,25,down,down,0.7070351000875235,1.8360897725658043,,experiment,cRDM,1.0,,,,1038.6566740999697,94,48,male,True,10386,10393,False,False,inspiration,expiration
361,0.058824928031104014,25,up,down,1.4691028000088409,1.8319553436101144,,experiment,cRDM,1.0,,,,1041.456591199967,94,48,male,True,10414,10429,False,False,expiration,inspiration
362,0.058824928031104014,25,up,down,0.67889149999246,1.3547077804485426,,experiment,cRDM,1.0,,,,1044.5398261999944,94,48,male,True,10445,10452,False,False,expiration,expiration
363,0.058824928031104014,25,down,down,0.8603261000243947,0.91097678681992,,experiment,cRDM,1.0,,,,1046.406368899974,94,48,male,True,10463,10472,False,False,inspiration,inspiration
364,0.058824928031104014,25,up,down,0.867704699980095,1.0210150016185746,,experiment,cRDM,1.0,,,,1048.5729894000108,94,48,male,True,10485,10494,False,False,expiration,expiration
365,0.058824928031104014,25,down,down,0.7560845999978483,0.7351110365223484,,experiment,cRDM,1.0,,,,1050.4396272000158,94,48,male,True,10504,10512,False,False,inspiration,inspiration
366,0.058824928031104014,25,down,down,0.8381460999371484,0.5637750729691968,,experiment,cRDM,1.0,,,,1052.0395438999403,94,48,male,True,10520,10528,False,False,inspiration,peak
367,0.058824928031104014,25,up,down,0.57227900007274,0.8412142152113993,,experiment,cRDM,1.0,,,,1053.989446099964,94,48,male,True,10539,10545,False,False,expiration,expiration
368,0.058824928031104014,25,up,up,0.7143455999903381,1.359037182724562,,experiment,cRDM,1.0,,,,1056.1893690000286,94,48,male,True,10561,10568,False,False,inspiration,inspiration
369,0.058824928031104014,25,down,down,0.6603677000384778,0.6076663573684702,,experiment,cRDM,1.0,,,,1057.789324100013,94,48,male,True,10577,10584,False,False,expiration,expiration
370,0.058824928031104014,25,up,up,0.6375138000585139,1.3837651652898115,,experiment,cRDM,1.0,,,,1060.0892065999797,94,48,male,True,10600,10606,False,False,inspiration,inspiration
371,0.058824928031104014,25,down,down,0.5929032999556512,0.7528361491111535,,experiment,cRDM,1.0,,,,1061.7558306999272,94,48,male,True,10617,10623,False,False,expiration,expiration
372,0.058824928031104014,25,down,down,0.6122574999462813,0.40897899591532,,experiment,cRDM,1.0,,,,1063.022434299928,94,48,male,True,10630,10636,False,False,expiration,expiration
373,0.058824928031104014,25,down,down,0.5019746000180021,0.7014399965548024,,experiment,cRDM,1.0,,,,1064.6057157999603,94,48,male,True,10645,10650,False,False,inspiration,inspiration
374,0.058824928031104014,25,up,down,0.9750365000218152,1.2765952697573448,,experiment,cRDM,1.0,,,,1066.6556520999877,94,48,male,True,10666,10676,False,False,expiration,expiration
375,0.058824928031104014,25,up,up,1.1704253000207243,0.8810251552951573,,experiment,cRDM,1.0,,,,1068.7722496000351,94,48,male,True,10687,10699,False,False,inspiration,peak
376,0.058824928031104014,25,up,up,1.1442478999961168,1.1983796580281931,,experiment,cRDM,1.0,,,,1071.4054407000076,94,48,male,True,10713,10724,False,False,expiration,expiration
377,0.058824928031104014,25,down,down,0.5586689999327064,1.924952110377436,,experiment,cRDM,1.0,,,,1074.722011399921,94,48,male,True,10747,10753,False,False,expiration,expiration
378,0.058824928031104014,25,down,down,0.7530847999732941,1.600272517686624,,experiment,cRDM,1.0,,,,1077.1386277999263,94,48,male,True,10771,10779,False,False,expiration,inspiration
379,0.058824928031104014,25,up,up,1.1425338999833912,1.9605089255139143,,experiment,cRDM,1.0,,,,1080.1051532999845,94,48,male,True,10800,10811,False,False,expiration,expiration
380,0.058824928031104014,25,down,up,2.3902960000559688,1.7711792103960071,,experiment,cRDM,1.0,,,,1083.2883738999953,94,48,male,True,10832,10856,False,False,inspiration,expiration
381,0.058824928031104014,25,up,up,0.8377962999511509,1.7192518401147792,,experiment,cRDM,1.0,,,,1087.6548935000321,94,48,male,True,10876,10884,False,False,inspiration,expiration
382,0.058824928031104014,25,up,up,1.017567400005646,1.577259871033748,,experiment,cRDM,1.0,,,,1090.3381420000223,94,48,male,True,10903,10913,False,False,expiration,inspiration
383,0.058824928031104014,25,up,down,0.69740130007267,1.1986053639559895,,experiment,cRDM,1.0,,,,1092.8213338999776,94,48,male,True,10928,10935,False,False,expiration,expiration
384,0.058824928031104014,25,down,down,0.5597596999723464,1.7148617553318737,,experiment,cRDM,1.0,,,,1095.4879104000283,94,48,male,True,10954,10960,False,False,inspiration,inspiration
385,0.058824928031104014,25,down,down,0.7384725000010803,0.3226602193404573,,experiment,cRDM,1.0,,,,1096.6212139999259,94,48,male,True,10966,10973,False,False,inspiration,expiration
386,0.058824928031104014,25,up,down,0.792242499999702,1.8351715301993177,,experiment,cRDM,1.0,,,,1099.4544430000242,94,48,male,True,10994,11002,False,False,inspiration,inspiration
387,0.058824928031104014,25,down,down,0.650673900032416,1.863902814923193,,experiment,cRDM,1.0,,,,1102.371010100003,94,48,male,True,11023,11030,False,False,inspiration,expiration
388,0.058824928031104014,25,down,down,0.6404297000262886,0.8608793582901195,,experiment,cRDM,1.0,,,,1104.154277099995,94,48,male,True,11041,11047,False,False,expiration,expiration
389,0.058824928031104014,25,up,up,0.9611437999410556,1.44201507155122,,experiment,cRDM,1.0,,,,1106.4875409000088,94,48,male,True,11064,11074,False,False,inspiration,inspiration
390,0.058824928031104014,25,up,up,0.9071986000053583,0.3107759257624973,,experiment,cRDM,1.0,,,,1108.0374873999972,94,48,male,True,11080,11089,False,False,inspiration,inspiration
391,0.058824928031104014,25,down,down,0.5692719999933615,0.6444935105239946,,experiment,cRDM,1.0,,,,1109.8374312999658,94,48,male,True,11098,11104,False,False,expiration,expiration
392,0.058824928031104014,25,up,up,0.9537093999097124,0.8976178908402415,,experiment,cRDM,1.0,,,,1111.5539920999438,94,48,male,True,11115,11125,False,False,expiration,expiration
393,0.058824928031104014,25,down,down,0.4833983998978511,1.7719226767029848,,experiment,cRDM,1.0,,,,1114.5372653999366,94,48,male,True,11145,11150,False,False,inspiration,expiration
394,0.058824928031104014,25,down,down,0.5775519000599161,1.7588800190986371,,experiment,cRDM,1.0,,,,1117.0371291999472,94,48,male,True,11170,11176,False,False,expiration,expiration
395,0.058824928031104014,25,down,down,0.5479315000120549,0.3356775269016744,,experiment,cRDM,1.0,,,,1118.2037519000003,94,48,male,True,11181,11186,False,False,inspiration,inspiration
396,0.058824928031104014,25,up,down,0.6686374000273645,0.5663281225529642,,experiment,cRDM,1.0,,,,1119.5870356999803,94,48,male,True,11195,11202,False,False,inspiration,expiration
397,0.058824928031104014,25,up,up,1.055411999928765,1.4526459203786124,,experiment,cRDM,1.0,,,,1121.970270199934,94,48,male,True,11219,11230,False,False,expiration,inspiration
398,0.058824928031104014,25,down,down,0.6752662999788299,0.7126435635145831,,experiment,cRDM,1.0,,,,1124.0035196000244,94,48,male,True,11239,11246,False,False,peak,expiration
399,0.058824928031104014,25,down,down,0.6165973999304697,1.9261897899139588,,experiment,cRDM,1.0,,,,1126.8700988999335,94,48,male,True,11268,11274,False,False,inspiration,inspiration
400,0.058824928031104014,25,up,down,0.5403822000371292,1.0997541160278734,,experiment,cRDM,1.0,,,,1128.8533670000031,94,48,male,True,11288,11293,False,False,expiration,expiration
401,0.058824928031104014,25,up,down,0.763083100086078,1.4313916197381769,,experiment,cRDM,1.0,,,,1131.086605999968,94,48,male,True,11310,11318,False,False,trough,inspiration
402,0.058824928031104014,25,up,down,0.6421020000707358,0.9249467416023271,,experiment,cRDM,1.0,,,,1133.036582199973,94,48,male,True,11330,11336,False,False,expiration,expiration
403,0.058824928031104014,25,up,up,0.6909801999572664,0.8785674888773822,,experiment,cRDM,1.0,,,,1134.8197359000333,94,48,male,True,11348,11355,False,False,inspiration,inspiration
404,0.058824928031104014,25,up,up,0.7369820000603795,1.9434529419265616,,experiment,cRDM,1.0,,,,1137.7196962999878,94,48,male,True,11377,11384,False,False,inspiration,expiration
405,0.058824928031104014,25,down,down,0.6713588000275195,0.7048805949389791,,experiment,cRDM,1.0,,,,1139.436353099998,94,48,male,True,11394,11401,False,False,expiration,expiration
406,0.058824928031104014,25,down,down,0.5733811999671161,0.6791337310714951,,experiment,cRDM,1.0,,,,1141.0362735999515,94,48,male,True,11410,11416,False,False,inspiration,inspiration
407,0.058824928031104014,25,up,down,0.5804481999948621,0.6649858185913202,,experiment,cRDM,1.0,,,,1142.5362353000094,94,48,male,True,11425,11431,False,False,inspiration,expiration
408,0.058824928031104014,25,down,up,1.135655099991709,1.2585954513337896,,experiment,cRDM,1.0,,,,1144.6361104999671,94,48,male,True,11446,11457,False,False,expiration,expiration
409,0.058824928031104014,25,down,down,0.6359438999788836,0.613551417736268,,experiment,cRDM,1.0,,,,1146.6527600999686,94,48,male,True,11466,11472,False,False,inspiration,inspiration
410,0.058824928031104014,25,down,down,0.6353529999032617,0.42518436911188456,,experiment,cRDM,1.0,,,,1147.9693225999365,94,48,male,True,11479,11485,False,False,peak,expiration
411,0.058824928031104014,25,up,down,0.7734588000457734,1.6978752946183648,,experiment,cRDM,1.0,,,,1150.569237699965,94,48,male,True,11505,11513,False,False,inspiration,inspiration
412,0.058824928031104014,25,down,down,0.7452258999692276,1.3070559401130797,,experiment,cRDM,1.0,,,,1152.9024488999275,94,48,male,True,11528,11535,False,False,expiration,expiration
413,0.058824928031104014,25,down,down,0.9483005000511184,1.9430217101406584,,experiment,cRDM,1.0,,,,1155.8523740000094,94,48,male,True,11558,11567,False,False,inspiration,expiration
414,0.058824928031104014,25,down,down,0.6650705999927595,1.9233643082747665,,experiment,cRDM,1.0,,,,1158.985590599943,94,48,male,True,11589,11596,False,False,expiration,inspiration
415,0.058824928031104014,25,up,up,0.5032091999892145,1.8165254361212233,,experiment,cRDM,1.0,,,,1161.735474599991,94,48,male,True,11617,11622,False,False,inspiration,peak
416,0.058824928031104014,25,up,down,0.5389420000137761,1.0218607789043133,,experiment,cRDM,1.0,,,,1163.5187383999582,94,48,male,True,11634,11639,False,False,expiration,expiration
417,0.058824928031104014,25,down,down,0.545349600026384,1.9238842519247337,,experiment,cRDM,1.0,,,,1166.2353253000185,94,48,male,True,11662,11667,False,False,trough,inspiration
418,0.058824928031104014,25,up,up,1.3427578000118956,1.259099111854979,,experiment,cRDM,1.0,,,,1168.3019188999895,94,48,male,True,11682,11695,False,False,inspiration,expiration
419,0.058824928031104014,25,down,down,0.543598800082691,1.1384585068554904,,experiment,cRDM,1.0,,,,1171.0351440999655,94,48,male,True,11710,11715,False,False,expiration,expiration
420,0.058824928031104014,25,up,down,0.5748906000517309,0.6067470718217352,,experiment,cRDM,1.0,,,,1172.4518189999508,94,48,male,True,11724,11730,False,False,inspiration,inspiration
421,0.058824928031104014,25,up,up,1.1317365999566391,1.953675153253973,,experiment,cRDM,1.0,,,,1175.2349598000294,94,48,male,True,11752,11763,False,False,expiration,expiration
422,116.0,25,M,up,0.9985358000267296,0.8895788884662339,,experiment,emotion,1.0,,,,1180.6181556999218,94,48,male,True,11806,11816,False,False,inspiration,inspiration
423,80.0,25,M,down,0.4736950000515208,1.1215160623091542,,experiment,emotion,1.0,,,,1183.0180105000036,94,48,male,True,11830,11835,False,False,expiration,expiration
424,104.0,25,F,up,0.7366950999712572,1.4465404028113609,,experiment,emotion,1.0,,,,1185.21797899995,94,48,male,True,11852,11859,False,False,inspiration,inspiration
425,116.0,25,F,up,0.6293671999592334,0.3365596801936186,,experiment,emotion,1.0,,,,1186.5513085999992,94,48,male,True,11865,11871,False,False,inspiration,inspiration
426,104.0,25,M,up,0.671780199976638,1.812582613334828,,experiment,emotion,1.0,,,,1189.2678929999238,94,48,male,True,11892,11899,False,False,expiration,expiration
427,92.0,25,F,up,1.121486600022763,0.4822247603700581,,experiment,emotion,1.0,,,,1190.7011769999515,94,48,male,True,11906,11917,False,False,expiration,inspiration
428,80.0,25,M,down,0.5665920999599621,0.7050614359088713,,experiment,emotion,1.0,,,,1192.8010806000093,94,48,male,True,11927,11933,False,False,inspiration,expiration
429,92.0,25,M,up,0.7243293999927118,0.7416848393198385,,experiment,emotion,1.0,,,,1194.3843648999464,94,48,male,True,11943,11950,False,False,expiration,expiration
430,116.0,25,F,up,0.6831184999318793,1.7776359720671528,,experiment,emotion,1.0,,,,1197.1676002999302,94,48,male,True,11971,11978,False,False,inspiration,peak
431,92.0,25,F,down,0.5928311999887228,0.8729855059727205,,experiment,emotion,1.0,,,,1199.0008527999746,94,48,male,True,11989,11995,False,False,expiration,expiration
432,104.0,25,F,up,0.6532313999487087,0.8484536984571247,,experiment,emotion,1.0,,,,1200.7174366000106,94,48,male,True,12006,12013,False,False,trough,inspiration
433,116.0,25,F,up,0.60329580004327,1.4649999270834118,,experiment,emotion,1.0,,,,1203.1173679999777,94,48,male,True,12030,12036,False,False,expiration,expiration
434,104.0,25,F,up,0.5887146999593824,0.5323221322884873,,experiment,emotion,1.0,,,,1204.5339568000054,94,48,male,True,12045,12051,False,False,expiration,expiration
435,80.0,25,F,down,0.6917546999175102,1.3988386296700754,,experiment,emotion,1.0,,,,1206.7839024999412,94,48,male,True,12067,12074,False,False,inspiration,inspiration
436,92.0,25,M,up,0.9471474000019952,0.31987451066278194,,experiment,emotion,1.0,,,,1208.050520699937,94,48,male,True,12080,12089,False,False,expiration,expiration
437,80.0,25,M,up,0.9705796999624,0.6529881312889789,,experiment,emotion,1.0,,,,1209.9170792999212,94,48,male,True,12099,12109,False,False,expiration,expiration
438,116.0,25,M,up,0.5909984000027181,0.9136798517169752,,experiment,emotion,1.0,,,,1212.0837127999405,94,48,male,True,12120,12126,False,False,inspiration,inspiration
439,80.0,25,M,down,0.5393849000101909,0.9537914382743397,,experiment,emotion,1.0,,,,1213.900289400015,94,48,male,True,12138,12143,False,False,expiration,expiration
440,104.0,25,F,up,0.7224511000094935,1.7830875196549074,,experiment,emotion,1.0,,,,1216.5002123999875,94,48,male,True,12164,12171,False,False,inspiration,expiration
441,104.0,25,M,up,0.5944908000528812,0.4995359674907002,,experiment,emotion,1.0,,,,1218.000166199985,94,48,male,True,12179,12185,False,False,expiration,expiration
442,92.0,25,M,up,0.5399209000170231,0.3741797591420135,,experiment,emotion,1.0,,,,1219.2667807999533,94,48,male,True,12192,12197,False,False,expiration,expiration
443,92.0,25,F,down,0.6279428000561893,0.3935126277408019,,experiment,emotion,1.0,,,,1220.4667410999534,94,48,male,True,12204,12210,False,False,inspiration,inspiration
444,80.0,25,M,down,0.6037221000296995,1.9377769690499087,,experiment,emotion,1.0,,,,1223.299949600012,94,48,male,True,12232,12238,False,False,expiration,expiration
445,116.0,25,F,up,0.7145702999550849,0.6064034506629914,,experiment,emotion,1.0,,,,1224.7832228000045,94,48,male,True,12247,12254,False,False,inspiration,inspiration
446,104.0,25,F,up,0.5728145999601111,0.6328827496839703,,experiment,emotion,1.0,,,,1226.3998505999334,94,48,male,True,12263,12269,False,False,inspiration,peak
447,80.0,25,M,up,0.4428719999268651,0.8508111886231915,,experiment,emotion,1.0,,,,1228.0997928000286,94,48,male,True,12280,12284,False,False,expiration,expiration
448,116.0,25,M,up,0.5229357000207528,0.9343755437802744,,experiment,emotion,1.0,,,,1229.7497352999635,94,48,male,True,12297,12302,False,False,expiration,expiration
449,116.0,25,F,down,0.7353552000131458,1.618891661979225,,experiment,emotion,1.0,,,,1232.1663134000266,94,48,male,True,12321,12328,False,False,inspiration,expiration
450,92.0,25,M,down,0.5844627999467775,1.182521949573256,,experiment,emotion,1.0,,,,1234.366227600025,94,48,male,True,12343,12349,False,False,expiration,expiration
451,80.0,25,F,up,0.8195758000947535,1.0983881928147023,,experiment,emotion,1.0,,,,1236.3161352999741,94,48,male,True,12362,12370,False,False,inspiration,inspiration
452,92.0,25,F,up,0.6608987000072375,0.5365995393972256,,experiment,emotion,1.0,,,,1237.932761300006,94,48,male,True,12379,12386,False,False,expiration,expiration
453,104.0,25,F,up,0.6320118000730872,1.3473527737844162,,experiment,emotion,1.0,,,,1240.232690899982,94,48,male,True,12402,12408,False,False,inspiration,inspiration
454,80.0,25,M,down,0.5920581000391394,1.1370616422967448,,experiment,emotion,1.0,,,,1242.2826066999694,94,48,male,True,12422,12428,False,False,inspiration,expiration
455,116.0,25,M,up,0.9305010999087244,1.5509727751206472,,experiment,emotion,1.0,,,,1244.6991720999358,94,48,male,True,12446,12455,False,False,expiration,expiration
456,104.0,25,M,up,0.5195241000037639,0.5542957837739956,,experiment,emotion,1.0,,,,1246.4491233000301,94,48,male,True,12464,12469,False,False,inspiration,inspiration
457,116.0,25,F,up,0.5472791999345645,0.6495692417630246,,experiment,emotion,1.0,,,,1247.8823890999192,94,48,male,True,12478,12483,False,False,expiration,expiration
458,80.0,25,F,down,0.5610293999779971,1.1138999414341937,,experiment,emotion,1.0,,,,1249.815634300001,94,48,male,True,12498,12504,False,False,expiration,expiration
459,104.0,25,M,up,0.5550551998894662,0.8308336198443793,,experiment,emotion,1.0,,,,1251.4656086999455,94,48,male,True,12514,12520,False,False,inspiration,inspiration
460,92.0,25,F,up,0.6062151999212801,1.8048503531727549,,experiment,emotion,1.0,,,,1254.115480999928,94,48,male,True,12540,12546,False,False,expiration,expiration
461,92.0,25,M,up,0.5769515000283718,1.8586094945317997,,experiment,emotion,1.0,,,,1256.8487373000246,94,48,male,True,12568,12574,False,False,expiration,expiration
462,104.0,25,M,up,0.5002881999826059,0.8103326547128891,,experiment,emotion,1.0,,,,1258.5153244999235,94,48,male,True,12584,12589,False,False,expiration,expiration
463,116.0,25,M,up,0.5190593000734225,1.1145908995769462,,experiment,emotion,1.0,,,,1260.3986047999933,94,48,male,True,12603,12608,False,False,inspiration,inspiration
464,92.0,25,F,up,0.6078316000057384,0.4407839268418498,,experiment,emotion,1.0,,,,1261.631829999969,94,48,male,True,12616,12622,False,False,expiration,expiration
465,80.0,25,F,down,0.6035626999801025,1.5914496514836274,,experiment,emotion,1.0,,,,1264.1151083000004,94,48,male,True,12640,12646,False,False,inspiration,inspiration
466,80.0,25,M,up,0.4846334999892861,1.6743502095923497,,experiment,emotion,1.0,,,,1266.6650458999209,94,48,male,True,12666,12671,False,False,inspiration,expiration
467,92.0,25,F,up,0.4670017000753433,0.6155631123597918,,experiment,emotion,1.0,,,,1268.0316589999713,94,48,male,True,12680,12685,False,False,expiration,expiration
468,116.0,25,F,up,0.5373776999767871,0.37220745493971824,,experiment,emotion,1.0,,,,1269.1482720000204,94,48,male,True,12691,12696,False,False,expiration,expiration
469,104.0,25,M,up,0.5628806999884546,1.3524114006913093,,experiment,emotion,1.0,,,,1271.3148411000147,94,48,male,True,12713,12719,False,False,inspiration,inspiration
470,80.0,25,M,up,0.538897099904716,1.4759852756939278,,experiment,emotion,1.0,,,,1273.6147645999445,94,48,male,True,12736,12741,False,False,expiration,expiration
471,116.0,25,F,up,0.5152485999278724,0.6560988452358877,,experiment,emotion,1.0,,,,1275.08138889994,94,48,male,True,12750,12755,False,False,inspiration,inspiration
472,104.0,25,M,up,0.6406908000353724,1.625890810055719,,experiment,emotion,1.0,,,,1277.4979672000045,94,48,male,True,12774,12780,False,False,expiration,expiration
473,104.0,25,F,up,0.5337253999896348,1.1949227964329008,,experiment,emotion,1.0,,,,1279.5978959000204,94,48,male,True,12795,12800,False,False,inspiration,inspiration
474,80.0,25,F,down,0.5251990000251681,1.963227905453276,,experiment,emotion,1.0,,,,1282.3644603999564,94,48,male,True,12823,12828,False,False,expiration,expiration
475,92.0,25,F,up,0.5453256999608129,1.7507692461971904,,experiment,emotion,1.0,,,,1284.9143278999256,94,48,male,True,12849,12854,False,False,expiration,inspiration
476,116.0,25,M,up,0.527707300032489,0.9361719921652144,,experiment,emotion,1.0,,,,1286.6809696999844,94,48,male,True,12866,12871,False,False,inspiration,inspiration
477,92.0,25,M,up,0.5230723000131547,0.8619530759154101,,experiment,emotion,1.0,,,,1288.3475746000186,94,48,male,True,12883,12888,False,False,inspiration,expiration
478,92.0,25,F,up,0.6612002999754623,1.6202166765330854,,experiment,emotion,1.0,,,,1290.7474924999988,94,48,male,True,12907,12914,False,False,expiration,expiration
479,92.0,25,F,up,1.4375366000458598,0.8054177427753413,,experiment,emotion,1.0,,,,1292.4640997999813,94,48,male,True,12924,12938,False,False,expiration,inspiration
480,116.0,25,M,up,0.6040195000823587,1.9592682650628548,,experiment,emotion,1.0,,,,1296.1306230999762,94,48,male,True,12961,12967,False,False,expiration,expiration
481,104.0,25,M,up,0.6297635000664741,1.049402033692168,,experiment,emotion,1.0,,,,1298.0638904999942,94,48,male,True,12980,12986,False,False,expiration,expiration
482,80.0,25,M,down,0.7425411000149325,1.7666243219064124,,experiment,emotion,1.0,,,,1300.747117199935,94,48,male,True,13007,13014,False,False,inspiration,peak
483,80.0,25,M,down,0.6312923000659794,1.9272953713272012,,experiment,emotion,1.0,,,,1303.680360900005,94,48,male,True,13036,13042,False,False,expiration,inspiration
484,104.0,25,M,up,0.6837531999917701,1.2174964913217443,,experiment,emotion,1.0,,,,1305.7969213000033,94,48,male,True,13057,13064,False,False,inspiration,expiration
485,116.0,25,F,up,0.5738363000564277,1.802310443945593,,experiment,emotion,1.0,,,,1308.5468403999694,94,48,male,True,13085,13091,False,False,expiration,expiration
486,116.0,25,F,up,0.9429088999750092,1.0385343248385144,,experiment,emotion,1.0,,,,1310.4467504000058,94,48,male,True,13104,13113,False,False,expiration,inspiration
487,80.0,25,M,down,0.6156468999106437,1.1327320097192075,,experiment,emotion,1.0,,,,1312.7800038999412,94,48,male,True,13127,13133,False,False,inspiration,expiration
488,116.0,25,F,up,0.6957168000517413,0.7533604943754038,,experiment,emotion,1.0,,,,1314.4299426999644,94,48,male,True,13144,13151,False,False,expiration,expiration
489,92.0,25,F,down,0.7714810000034049,1.1439613228634609,,experiment,emotion,1.0,,,,1316.5632047000106,94,48,male,True,13165,13173,False,False,expiration,inspiration
490,104.0,25,F,up,0.907571200048551,1.721628801217373,,experiment,emotion,1.0,,,,1319.313048299984,94,48,male,True,13193,13202,False,False,expiration,expiration
491,92.0,25,M,down,0.7106434999732301,1.5721836803162996,,experiment,emotion,1.0,,,,1322.0630126999456,94,48,male,True,13220,13227,False,False,expiration,inspiration
492,80.0,25,F,down,0.7287398000480607,0.6669786005139424,,experiment,emotion,1.0,,,,1323.7129039999566,94,48,male,True,13237,13244,False,False,inspiration,inspiration
493,104.0,25,F,up,0.967809799942188,1.4000373163202169,,experiment,emotion,1.0,,,,1326.1128219999373,94,48,male,True,13261,13271,False,False,expiration,expiration
494,92.0,25,F,up,0.976202299934812,0.8304705524174898,,experiment,emotion,1.0,,,,1328.1794313000282,94,48,male,True,13281,13291,False,False,inspiration,peak
495,104.0,25,M,up,0.9372823999729007,1.1057269884808347,,experiment,emotion,1.0,,,,1330.5293707000094,94,48,male,True,13305,13314,False,False,expiration,inspiration
496,80.0,25,M,down,0.7673505999846384,0.4476397403529411,,experiment,emotion,1.0,,,,1332.1792944000335,94,48,male,True,13321,13329,False,False,inspiration,inspiration
497,116.0,25,F,up,0.9818107000319288,1.8710096865786408,,experiment,emotion,1.0,,,,1335.09585589997,94,48,male,True,13350,13360,False,False,expiration,expiration
498,104.0,25,M,up,0.6819201000034809,1.102363194802451,,experiment,emotion,1.0,,,,1337.445730999927,94,48,male,True,13374,13381,False,False,inspiration,peak
499,116.0,25,F,up,0.6156143000116572,0.7772603171050892,,experiment,emotion,1.0,,,,1339.1790421999758,94,48,male,True,13391,13397,False,False,expiration,expiration
500,80.0,25,M,up,0.9270189999369904,1.4718678138415648,,experiment,emotion,1.0,,,,1341.5456095000266,94,48,male,True,13415,13424,False,False,inspiration,peak
501,92.0,25,M,up,0.5887397000333294,0.7267713120507318,,experiment,emotion,1.0,,,,1343.4788977999706,94,48,male,True,13434,13440,False,False,expiration,expiration
502,0.058824928031104014,25,up,up,0.8063974999822676,1.4042214070179115,,experiment,cRDM,2.0,,,,1348.0452899999218,94,48,male,True,13480,13488,False,False,expiration,expiration
503,0.058824928031104014,25,up,down,0.8611670000245795,0.9723994681617614,,experiment,cRDM,2.0,,,,1350.078519999981,94,48,male,True,13500,13509,False,False,inspiration,inspiration
504,0.058824928031104014,25,down,down,0.7881343000335619,0.3762166658319144,,experiment,cRDM,2.0,,,,1351.578508000006,94,48,male,True,13515,13523,False,False,expiration,expiration
505,0.058824928031104014,25,down,down,0.8505868000211194,1.5328174829757713,,experiment,cRDM,2.0,,,,1354.1450861999765,94,48,male,True,13541,13550,False,False,inspiration,peak
506,0.058824928031104014,25,up,up,0.8156436000717804,0.3840880144039874,,experiment,cRDM,2.0,,,,1355.645023799967,94,48,male,True,13556,13564,False,False,expiration,expiration
507,0.058824928031104014,25,down,down,0.9803625999484212,1.3479904254903203,,experiment,cRDM,2.0,,,,1358.0782772999955,94,48,male,True,13580,13590,False,False,inspiration,inspiration
508,0.058824928031104014,25,up,down,0.7871276000514627,0.7323622331197709,,experiment,cRDM,2.0,,,,1360.0615373000035,94,48,male,True,13600,13608,False,False,expiration,expiration
509,0.058824928031104014,25,up,down,0.7904556000139564,0.6092067713084964,,experiment,cRDM,2.0,,,,1361.7281825999962,94,48,male,True,13617,13625,False,False,trough,inspiration
510,0.058824928031104014,25,down,down,0.7729032998904586,0.3608475252666368,,experiment,cRDM,2.0,,,,1363.1447449999396,94,48,male,True,13631,13639,False,False,inspiration,expiration
511,0.058824928031104014,25,down,down,0.5659689999883994,0.3188755194699291,,experiment,cRDM,2.0,,,,1364.4946789999958,94,48,male,True,13644,13650,False,False,expiration,expiration
512,0.058824928031104014,25,down,down,0.6153701998991892,1.0987141572443757,,experiment,cRDM,2.0,,,,1366.4112867999354,94,48,male,True,13664,13670,False,False,inspiration,inspiration
513,0.058824928031104014,25,down,up,0.6554361000889912,1.5398319754794314,,experiment,cRDM,2.0,,,,1368.8112120999722,94,48,male,True,13688,13695,False,False,expiration,expiration
514,0.058824928031104014,25,down,down,0.6635251999832691,0.47099809700630607,,experiment,cRDM,2.0,,,,1370.2111360999988,94,48,male,True,13702,13709,False,False,expiration,inspiration
515,0.058824928031104014,25,down,down,0.6512551000341773,0.5558703990917415,,experiment,cRDM,2.0,,,,1371.6944235999836,94,48,male,True,13716,13723,False,False,inspiration,inspiration
516,0.058824928031104014,25,up,up,1.6218945999862626,0.520218869525485,,experiment,cRDM,2.0,,,,1373.1277475999668,94,48,male,True,13731,13747,False,False,expiration,expiration
517,0.058824928031104014,25,up,down,0.677039600093849,1.6686349083993437,,experiment,cRDM,2.0,,,,1376.6775890999704,94,48,male,True,13766,13773,False,False,inspiration,inspiration
518,0.058824928031104014,25,up,down,0.6691450000507757,0.8104227685521495,,experiment,cRDM,2.0,,,,1378.4275461999932,94,48,male,True,13784,13791,False,False,expiration,expiration
519,0.058824928031104014,25,up,down,0.695259700063616,1.163849674610322,,experiment,cRDM,2.0,,,,1380.5274834999582,94,48,male,True,13805,13812,False,False,inspiration,inspiration
520,0.058824928031104014,25,down,down,0.8032876000506803,0.6387612959140954,,experiment,cRDM,2.0,,,,1382.127411499969,94,48,male,True,13821,13829,False,False,inspiration,expiration
521,0.058824928031104014,25,up,down,0.6103236000053585,0.7865653002314807,,experiment,cRDM,2.0,,,,1383.9773036999395,94,48,male,True,13839,13845,False,False,expiration,expiration
522,0.058824928031104014,25,up,up,0.8977860999293625,1.5507881555132006,,experiment,cRDM,2.0,,,,1386.3938851000275,94,48,male,True,13863,13872,False,False,inspiration,inspiration
523,0.058824928031104014,25,down,down,0.8884656000882387,1.6780863529809014,,experiment,cRDM,2.0,,,,1389.2271685999585,94,48,male,True,13892,13901,False,False,expiration,inspiration
524,0.058824928031104014,25,up,down,0.708920200006105,0.3103095512681485,,experiment,cRDM,2.0,,,,1390.6937208999882,94,48,male,True,13906,13913,False,False,inspiration,inspiration
525,0.058824928031104014,25,down,down,0.5756201000185683,1.1203164158309609,,experiment,cRDM,2.0,,,,1392.7770177000202,94,48,male,True,13927,13933,False,False,expiration,expiration
526,0.058824928031104014,25,down,down,0.9516386999748648,0.6109162072823495,,experiment,cRDM,2.0,,,,1394.2269758000039,94,48,male,True,13942,13952,False,False,inspiration,inspiration
527,0.058824928031104014,25,up,up,0.6731467000208795,1.4488943593931565,,experiment,cRDM,2.0,,,,1396.8934834999966,94,48,male,True,13968,13975,False,False,inspiration,inspiration
528,0.058824928031104014,25,up,down,0.6982000999851152,0.5605018970638089,,experiment,cRDM,2.0,,,,1398.3934195999757,94,48,male,True,13983,13990,False,False,expiration,expiration
529,0.058824928031104014,25,down,down,1.2715912000276148,1.0525137632235986,,experiment,cRDM,2.0,,,,1400.4100528999695,94,48,male,True,14004,14017,False,False,expiration,expiration
530,0.058824928031104014,25,up,down,0.9034059999976308,0.9486481577354092,,experiment,cRDM,2.0,,,,1402.8932754999262,94,48,male,True,14028,14037,False,False,expiration,expiration
531,0.058824928031104014,25,down,down,0.6871371000306681,1.8691430748416675,,experiment,cRDM,2.0,,,,1405.9265524999937,94,48,male,True,14059,14066,False,False,expiration,expiration
532,0.058824928031104014,25,down,down,0.6945353999035433,0.9759711850788556,,experiment,cRDM,2.0,,,,1407.8430998999393,94,48,male,True,14078,14085,False,False,expiration,expiration
533,0.058824928031104014,25,down,down,0.7189216000260785,0.3076656282310701,,experiment,cRDM,2.0,,,,1409.1097460000312,94,48,male,True,14091,14098,False,False,expiration,expiration
534,0.058824928031104014,25,up,up,0.8297682000556961,1.9985415469653565,,experiment,cRDM,2.0,,,,1412.092920199968,94,48,male,True,14120,14128,False,False,expiration,expiration
535,0.058824928031104014,25,up,down,0.772790800081566,0.7106282199205416,,experiment,cRDM,2.0,,,,1413.8928660999518,94,48,male,True,14138,14146,False,False,inspiration,inspiration
536,0.058824928031104014,25,up,down,0.6328464000253007,0.596641803866355,,experiment,cRDM,2.0,,,,1415.5097982999869,94,48,male,True,14155,14161,False,False,inspiration,inspiration
537,0.058824928031104014,25,down,down,0.5488936998881401,1.6216676369904093,,experiment,cRDM,2.0,,,,1418.042739699944,94,48,male,True,14180,14185,False,False,inspiration,inspiration
538,0.058824928031104014,25,down,down,0.6040533999912441,1.233509149530808,,experiment,cRDM,2.0,,,,1420.0926392999247,94,48,male,True,14200,14206,False,False,inspiration,peak
539,0.058824928031104014,25,up,down,0.6374588999897242,1.847232181702702,,experiment,cRDM,2.0,,,,1422.809204099933,94,48,male,True,14228,14234,False,False,expiration,expiration
540,0.058824928031104014,25,down,down,0.6362234000116587,1.9386170827714664,,experiment,cRDM,2.0,,,,1425.6424470000202,94,48,male,True,14256,14262,False,False,expiration,expiration
