,stimLvl,stimTime,rand,response,rt,precedingITI,trialNumber,trialType,stimuli,block,estIntens,estThres,estSlope,trialStart,subject,age,gender,headRest,onset,responsI,manBadOnset,manBadRespons,onset_phase,respons_phase
0,0.9,100,down,down,2.04390519997105,1.0468379293052616,,introTrial,cRDM,,,,,141.47420999989842,98,26,female,True,1414,1434,False,False,expiration,expiration
1,150.0,100,F,up,1.1334664999740198,0.8751320619043177,,introTrial,emotion,,,,,144.6905280998908,98,26,female,True,1446,1457,False,False,inspiration,expiration
2,0.9,25,up,up,0.7195392999565229,0.3299820316144625,,tutorial,cRDM,,,,,167.50649539998267,98,26,female,True,1674,1681,False,False,inspiration,expiration
3,0.9,25,down,down,0.6393021000549197,1.2232052168191945,,tutorial,cRDM,,,,,169.73972219997088,98,26,female,True,1696,1702,False,False,trough,inspiration
4,0.9,25,up,up,0.4606807000236586,1.4356278829559723,,tutorial,cRDM,,,,,172.106300399988,98,26,female,True,1720,1725,False,False,expiration,expiration
5,0.9,25,up,up,0.5722389000002295,0.5382643477651032,,tutorial,cRDM,,,,,173.37280539993662,98,26,female,True,1733,1739,False,False,inspiration,peak
6,0.9,25,down,down,0.38396250002551824,0.9873916612039301,,tutorial,cRDM,,,,,175.20619279996026,98,26,female,True,1751,1755,False,False,expiration,expiration
7,0.9,25,down,down,0.4885483999969438,0.8459326019686626,,tutorial,cRDM,,,,,176.73946599999908,98,26,female,True,1766,1771,False,False,inspiration,expiration
8,0.9,25,up,up,0.6100228000432253,0.7713502258665444,,tutorial,cRDM,,,,,178.2730009999359,98,26,female,True,1782,1788,False,False,expiration,expiration
9,0.9,25,down,down,0.5056968000717461,1.6928527736473344,,tutorial,cRDM,,,,,180.83932219992855,98,26,female,True,1807,1812,False,False,expiration,expiration
10,0.9,25,up,up,0.3671593000181019,1.339000256997813,,tutorial,cRDM,,,,,182.95588939997836,98,26,female,True,1828,1832,False,False,inspiration,expiration
11,0.9,25,down,down,0.3672512999037281,0.8170932666075825,,tutorial,cRDM,,,,,184.47245359991211,98,26,female,True,1844,1848,False,False,expiration,trough
12,200.0,25,M,up,0.58196889993269,0.338563064919338,,tutorial,emotion,,,,,189.18901699990963,98,26,female,True,1891,1897,False,False,expiration,expiration
13,200.0,25,M,up,0.772948500001803,1.9071081856621015,,tutorial,emotion,,,,,191.97201909997972,98,26,female,True,1919,1927,False,False,inspiration,expiration
14,200.0,25,F,up,0.4509782999521122,0.9488537864237028,,tutorial,emotion,,,,,193.97201109991875,98,26,female,True,1939,1944,False,False,trough,inspiration
15,0.0,25,F,down,0.476277899928391,0.8656839770468885,,tutorial,emotion,,,,,195.58879639999938,98,26,female,True,1955,1960,False,False,expiration,expiration
16,0.0,25,M,down,0.6300244000740349,1.3198035391936929,,tutorial,emotion,,,,,197.67196179996242,98,26,female,True,1976,1982,False,False,inspiration,peak
17,200.0,25,F,up,0.5303805000148714,0.8107219769771927,,tutorial,emotion,,,,,199.3886307999492,98,26,female,True,1993,1998,False,False,expiration,expiration
18,0.0,25,M,down,0.7677890999475494,1.263610140042003,,tutorial,emotion,,,,,201.455209299922,98,26,female,True,2013,2021,False,False,expiration,expiration
19,200.0,25,M,up,0.5529119999846444,0.645773454847536,,tutorial,emotion,,,,,203.1551465999801,98,26,female,True,2030,2036,False,False,trough,inspiration
20,0.0,25,F,down,0.6246924999868497,1.260804991041246,,tutorial,emotion,,,,,205.23844879993703,98,26,female,True,2051,2057,False,False,expiration,expiration
21,0.0,25,F,down,0.6166875000344589,0.7431907467007637,,tutorial,emotion,,,,,206.8883699999424,98,26,female,True,2068,2074,False,False,inspiration,expiration
22,0.29,25,up,up,0.6217961000511423,1.6489124683978131,,psi_staircase_training,cRDM,,0.25,0.25693124029946324,0.10500000000000002,214.6712272999576,98,26,female,True,2146,2152,False,False,expiration,expiration
23,0.25,25,up,up,0.5903834999771789,1.6348246612159163,,psi_staircase_training,cRDM,,0.21910266653183127,0.2260132002683493,0.10468632033873933,217.2046389000025,98,26,female,True,2171,2177,False,False,expiration,expiration
24,0.21,25,down,down,0.5457367000635713,1.0540550399381936,,psi_staircase_training,cRDM,,0.1900540959403307,0.19684979615540016,0.10294672984249993,219.1212455999339,98,26,female,True,2190,2195,False,False,expiration,expiration
25,0.18,25,down,down,0.7944715999765322,1.960958312012808,,psi_staircase_training,cRDM,,0.1635257589279754,0.1701521334256793,0.100381647756865,221.90451669995673,98,26,female,True,2218,2226,False,False,expiration,expiration
26,0.15,25,up,up,0.5992617000592873,1.826915358650573,,psi_staircase_training,cRDM,,0.14018955742449365,0.14660133511875031,0.0971307628663642,224.78772489994302,98,26,female,True,2247,2253,False,False,peak,expiration
27,0.13,25,down,down,0.5597375999204814,1.5891479517677451,,psi_staircase_training,cRDM,,0.11987606021454796,0.12605547676183335,0.09361076941961036,227.25426719989628,98,26,female,True,2271,2277,False,False,inspiration,inspiration
28,0.11,25,up,up,0.4638341000536457,1.3618050133149195,,psi_staircase_training,cRDM,,0.10257735236965487,0.10849103445698656,0.08958521019937955,229.45420019992162,98,26,female,True,2293,2298,False,False,expiration,expiration
29,0.09,25,down,up,1.0331984999356791,0.4238333792620601,,psi_staircase_training,cRDM,,0.08784432595859408,0.09348182153209693,0.08540131486476357,230.6208116998896,98,26,female,True,2305,2315,False,False,trough,inspiration
30,0.15,25,down,up,0.7293051999295129,0.8387752799684334,,psi_staircase_training,cRDM,,0.13155912473180306,0.1381188895520143,0.0993725908154588,232.77068519999742,98,26,female,True,2327,2334,False,False,expiration,expiration
31,0.23,25,up,down,0.8833736999658868,1.567849850392807,,psi_staircase_training,cRDM,,0.1889892425399224,0.1968770422405746,0.1194907307762242,235.32064279995396,98,26,female,True,2352,2361,False,False,expiration,expiration
32,0.32,25,down,down,0.7077925000339746,1.5622574213597822,,psi_staircase_training,cRDM,,0.2630277868854259,0.2716706396297911,0.13092888126077806,238.03720789996441,98,26,female,True,2379,2386,False,False,inspiration,expiration
33,0.3,25,down,down,0.7058957000263035,1.9650504751339168,,psi_staircase_training,cRDM,,0.24319650097525075,0.25187061899653673,0.13140251280936788,240.9870816000039,98,26,female,True,2409,2416,False,False,inspiration,inspiration
34,0.28,25,down,down,0.6200165000045672,1.5113895675732498,,psi_staircase_training,cRDM,,0.2256590437356464,0.2342824406801506,0.13063414916419222,243.4869908998953,98,26,female,True,2434,2440,False,False,expiration,inspiration
35,0.26,25,up,up,0.7424123000819236,0.954378995567897,,psi_staircase_training,cRDM,,0.21008604484207954,0.21863202186234754,0.12946132991488207,245.3536014999263,98,26,female,True,2452,2459,False,False,expiration,expiration
36,0.22,25,up,up,0.7055247999960557,1.0093389457978523,,psi_staircase_training,cRDM,,0.19583827938765544,0.2043426902576884,0.1288316524565747,247.3704859999707,98,26,female,True,2473,2480,False,False,inspiration,expiration
37,0.22,25,down,down,0.7938707999419421,1.5663968446993246,,psi_staircase_training,cRDM,,0.18063475273048055,0.1893600469877301,0.13217777157172653,249.92010379990097,98,26,female,True,2498,2506,False,False,inspiration,inspiration
38,0.21,25,down,down,0.6319052000762895,1.9813573033938432,,psi_staircase_training,cRDM,,0.16725865926435635,0.1760809306812518,0.13364685954485694,252.97002519993111,98,26,female,True,2529,2535,False,False,inspiration,inspiration
39,0.21,25,up,up,0.6446846000617371,0.8240998000954047,,psi_staircase_training,cRDM,,0.1554195582385473,0.16426702271438345,0.13402850425409893,254.70329899992797,98,26,female,True,2546,2552,False,False,expiration,expiration
40,0.2,25,up,down,0.7804888000246137,1.5667200459205806,,psi_staircase_training,cRDM,,0.1454577181159089,0.1542447535777753,0.13311307697230165,257.1865341999801,98,26,female,True,2571,2579,False,False,expiration,expiration
41,0.23,25,up,up,0.6656113000353798,1.3016886053785701,,psi_staircase_training,cRDM,,0.18300241308004386,0.1922293603903594,0.13977721529264495,259.53642429993494,98,26,female,True,2594,2601,False,False,inspiration,inspiration
42,0.22,25,up,up,0.5959713000338525,0.8062720269790677,,psi_staircase_training,cRDM,,0.1724775472151524,0.18173197244585254,0.14019347291981252,261.3030443999451,98,26,female,True,2612,2618,False,False,expiration,expiration
43,0.19,25,down,up,1.4366088000824675,0.3206521111372988,,psi_staircase_training,cRDM,,0.16288166482334054,0.1721591894579172,0.14054340125907627,262.486354899942,98,26,female,True,2624,2638,False,False,inspiration,expiration
44,0.24,25,down,up,1.2044637000653893,1.7046253738901058,,psi_staircase_training,cRDM,,0.19420857214087006,0.2030025614964036,0.13321842014372576,265.9195414999267,98,26,female,True,2658,2670,False,False,inspiration,expiration
45,0.29,25,down,down,0.9109075999585912,0.9417953545488698,,psi_staircase_training,cRDM,,0.2287489768669152,0.2380738580939309,0.14126079699075955,268.3361063000048,98,26,female,True,2682,2691,False,False,expiration,inspiration
46,0.29,25,up,,,1.5834528018373533,,psi_staircase_training,cRDM,,0.21963715634200287,0.22879727239261136,0.13876480164572758,271.1026634000009,98,26,female,True,2710,0,False,False,expiration,0
47,0.29,25,down,down,0.7419688000809401,1.5834528018373533,,psi_staircase_training,cRDM,,0.21963715634200287,0.22879727239261136,0.13876480164572758,275.3690294999396,98,26,female,True,2753,2760,False,False,trough,inspiration
48,0.23,25,up,up,0.8311619000742212,1.1006410907447537,,psi_staircase_training,cRDM,,0.21210121650704006,0.22106642435159607,0.13581217545599816,277.485803199932,98,26,female,True,2774,2782,False,False,expiration,expiration
49,0.23,25,down,down,0.9172200000612064,0.40159942867600384,,psi_staircase_training,cRDM,,0.20227237490993705,0.2114724670640128,0.1393703917973754,278.98573089996347,98,26,female,True,2789,2798,False,False,expiration,inspiration
50,0.23,25,down,down,0.54903499991633,1.6185620380351966,,psi_staircase_training,cRDM,,0.19330007335114924,0.2026476117297012,0.14160402573605188,281.81893719988875,98,26,female,True,2817,2822,False,False,expiration,expiration
51,0.23,25,up,up,1.0168158999877048,0.7124391609512899,,psi_staircase_training,cRDM,,0.18523689391271794,0.19466117130679805,0.14276653003287745,283.36915699997917,98,26,female,True,2833,2843,False,False,expiration,inspiration
52,0.23,25,up,down,0.788896800018847,1.9360438683561896,,psi_staircase_training,cRDM,,0.17805910482410744,0.18750504341247287,0.1430946712170944,286.6021038999316,98,26,female,True,2865,2873,False,False,expiration,expiration
53,100.0,25,M,up,0.7950588000239804,0.8327022272525981,,psi_staircase_training,emotion,,100.0,100.0,25.00050000000001,291.65194189990865,98,26,female,True,2915,2923,False,False,expiration,inspiration
54,55.0,25,M,down,0.7934718999313191,1.8119615825136333,,psi_staircase_training,emotion,,54.742809467541896,54.742809467541896,25.00050000000011,294.6184750999091,98,26,female,True,2945,2953,False,False,expiration,expiration
55,79.0,25,F,down,0.9259500000625848,1.417278231808783,,psi_staircase_training,emotion,,79.636070985635,79.636070985635,25.71326925488641,297.1850603999337,98,26,female,True,2971,2980,False,False,inspiration,expiration
56,103.0,25,F,up,1.1263575000921264,0.8930198693369733,,psi_staircase_training,emotion,,97.61123893914808,97.61123893914808,26.1463337262867,299.3516131999204,98,26,female,True,2992,3003,False,False,expiration,inspiration
57,87.0,25,M,up,0.7154230999294668,0.7302596020289467,,psi_staircase_training,emotion,,85.98876744579668,85.98876744579668,23.003056417783494,301.55157199990936,98,26,female,True,3014,3021,False,False,expiration,expiration
58,73.0,25,F,down,0.7261629999848083,0.32373354207884475,,psi_staircase_training,emotion,,76.84494728761523,76.84494728761523,23.862671666125227,302.93483549996745,98,26,female,True,3028,3035,False,False,inspiration,inspiration
59,83.0,25,M,up,0.7085876000346616,0.4636445642034683,,psi_staircase_training,emotion,,83.27335240078494,83.27335240078494,20.612160618333935,304.45142339996534,98,26,female,True,3043,3050,False,False,expiration,expiration
60,72.0,25,M,down,0.7527355001075193,1.4348255282702436,,psi_staircase_training,emotion,,77.76901308559849,77.76901308559849,20.83216394857253,306.9682666999288,98,26,female,True,3069,3077,False,False,peak,expiration
61,87.0,25,F,up,0.8530670000473037,1.7685734166847895,,psi_staircase_training,emotion,,81.3726357426898,81.3726357426898,17.524302199558218,309.81790199992247,98,26,female,True,3097,3106,False,False,inspiration,expiration
62,76.0,25,F,up,1.3134517000289634,0.5519363971045296,,psi_staircase_training,emotion,,79.08789987068586,79.08789987068586,14.786658830344505,311.58452699997,98,26,female,True,3115,3128,False,False,expiration,inspiration
63,64.0,25,F,down,1.5105685000307858,1.0566186060555092,,psi_staircase_training,emotion,,74.18466172485039,74.18466172485039,21.48321515845384,314.3344226999907,98,26,female,True,3142,3157,False,False,expiration,trough
64,65.0,25,F,down,1.0560491000069303,1.4058579132069473,,psi_staircase_training,emotion,,76.72615155172763,76.72615155172763,18.56361341636848,317.6509484999114,98,26,female,True,3175,3186,False,False,expiration,expiration
65,89.0,25,F,down,0.7117535999277607,1.12298966675552,,psi_staircase_training,emotion,,78.26252959583962,78.26252959583962,16.163905655062393,320.184213600005,98,26,female,True,3201,3208,False,False,inspiration,expiration
66,100.0,25,F,down,0.7549126000376418,1.0901064680224672,,psi_staircase_training,emotion,,82.43874255248122,82.43874255248122,23.929118806865553,322.33410249999724,98,26,female,True,3222,3230,False,False,expiration,inspiration
67,111.0,25,M,up,0.8705985000124201,1.8966173427339947,,psi_staircase_training,emotion,,87.81435178850114,87.81435178850114,30.967222168727,325.31735749996733,98,26,female,True,3252,3261,False,False,expiration,expiration
68,110.0,25,M,up,1.0911034999880942,1.4053626791144602,,psi_staircase_training,emotion,,86.05581820820666,86.05581820820666,29.51336553462632,327.9339009999531,98,26,female,True,3278,3289,False,False,expiration,expiration
69,109.0,25,M,up,1.0675453000003472,1.2807425602311744,,psi_staircase_training,emotion,,84.66318835725497,84.66318835725497,28.148581653405405,330.6504604999209,98,26,female,True,3305,3316,False,False,inspiration,expiration
70,60.0,25,M,down,0.7098467000760138,1.3932483871591528,,psi_staircase_training,emotion,,83.55087795289788,83.55087795289788,26.873339737083157,333.4670754999388,98,26,female,True,3334,3341,False,False,inspiration,expiration
71,107.0,25,F,up,0.7340342999668792,1.5817021458208218,,psi_staircase_training,emotion,,84.63745218747971,84.63745218747971,25.521787314881568,336.11694340000395,98,26,female,True,3360,3367,False,False,inspiration,inspiration
72,62.0,25,M,down,0.6384047999745235,0.3464349351113774,,psi_staircase_training,emotion,,83.712217452854,83.712217452854,24.26000823790134,337.58358389989013,98,26,female,True,3375,3381,False,False,expiration,expiration
73,106.0,25,M,up,0.7272939000977203,0.5069805083319033,,psi_staircase_training,emotion,,84.60903851737713,84.60903851737713,22.96498055565196,339.0667104999302,98,26,female,True,3390,3397,False,False,inspiration,inspiration
74,63.0,25,F,down,0.9695456000044942,0.6450959500117346,,psi_staircase_training,emotion,,83.86420177388042,83.86420177388042,21.792689414717067,340.78346099995537,98,26,female,True,3407,3417,False,False,expiration,expiration
75,104.0,25,M,up,0.7020037999609485,0.8488622408753317,,psi_staircase_training,emotion,,84.57799191262475,84.57799191262475,20.63007881264444,343.1500001999084,98,26,female,True,3430,3437,False,False,inspiration,expiration
76,65.0,25,F,down,0.7780443000374362,0.35274633288094026,,psi_staircase_training,emotion,,83.93680274658445,83.93680274658445,19.576474858337708,344.54996099998243,98,26,female,True,3444,3452,False,False,expiration,inspiration
77,102.0,25,F,up,1.0100803000386804,0.3109574897306152,,psi_staircase_training,emotion,,84.54202554658188,84.54202554658188,18.557069375670626,345.9999129999197,98,26,female,True,3459,3469,False,False,inspiration,expiration
78,67.0,25,M,down,0.6501915999688208,1.4870687132386684,,psi_staircase_training,emotion,,83.97162402789392,83.97162402789392,17.639483687651364,348.8498087999178,98,26,female,True,3487,3494,False,False,inspiration,inspiration
79,99.0,25,M,up,1.1949227999430148,0.7420740077969609,,psi_staircase_training,emotion,,84.50017689516521,84.50017689516521,16.769355540629753,350.5830786000006,98,26,female,True,3505,3517,False,False,expiration,inspiration
80,68.0,25,F,down,0.6753862999612466,1.7648768725376809,,psi_staircase_training,emotion,,83.93492488749679,83.93492488749679,15.975058357445862,353.8996163998964,98,26,female,True,3538,3545,False,False,expiration,expiration
81,97.0,25,M,down,0.7921239000279456,0.3159954114725296,,psi_staircase_training,emotion,,84.38125342592441,84.38125342592441,15.249895100858168,355.2328731999732,98,26,female,True,3551,3559,False,False,inspiration,inspiration
82,106.0,25,F,down,0.9999070999911056,1.2980815843377798,,psi_staircase_training,emotion,,86.54975744703883,86.54975744703883,17.949787078058023,357.66604889999144,98,26,female,True,3576,3586,False,False,expiration,inspiration
83,0.29,25,up,up,0.8091544000199065,1.228263601121939,,psi_staircase,cRDM,,0.25,0.25693124029946324,0.10500000000000002,366.0158460999373,98,26,female,True,3659,3667,False,False,inspiration,expiration
84,0.25,25,up,up,1.070879300008528,1.2519690307613105,,psi_staircase,cRDM,,0.21910266653183127,0.2260132002683493,0.10468632033873933,368.3490823999746,98,26,female,True,3682,3693,False,False,inspiration,inspiration
85,0.21,25,down,down,0.6076353000244126,1.1479737523839726,,psi_staircase,cRDM,,0.1900540959403307,0.19684979615540016,0.10294672984249993,370.83235989999963,98,26,female,True,3707,3713,False,False,expiration,trough
86,0.18,25,down,down,0.6777085000649095,1.8231980868731117,,psi_staircase,cRDM,,0.1635257589279754,0.1701521334256793,0.100381647756865,373.5322648999281,98,26,female,True,3734,3741,False,False,expiration,expiration
87,0.15,25,up,up,0.6475917000789195,0.8967892559979804,,psi_staircase,cRDM,,0.14018955742449365,0.14660133511875031,0.0971307628663642,375.36545309994835,98,26,female,True,3753,3759,False,False,inspiration,inspiration
88,0.13,25,down,down,0.6002485000062734,1.6222521424492184,,psi_staircase,cRDM,,0.11987606021454796,0.12605547676183335,0.09361076941961036,377.8987454999005,98,26,female,True,3778,3784,False,False,expiration,inspiration
89,0.11,25,up,up,0.6226670000469312,1.1956163821625019,,psi_staircase,cRDM,,0.10257735236965487,0.10849103445698656,0.08958521019937955,379.9653462999268,98,26,female,True,3799,3805,False,False,expiration,expiration
90,0.09,25,down,up,0.8146851999917999,1.9177362781848282,,psi_staircase,cRDM,,0.08784432595859408,0.09348182153209693,0.08540131486476357,382.765222499962,98,26,female,True,3827,3835,False,False,inspiration,expiration
91,0.15,25,down,down,0.9737778999842704,1.0245927394231067,,psi_staircase,cRDM,,0.13155912473180306,0.1381188895520143,0.0993725908154588,384.8651328999549,98,26,female,True,3848,3858,False,False,expiration,inspiration
92,0.14,25,up,up,0.7222540000220761,0.6221625751868158,,psi_staircase,cRDM,,0.11766356181723595,0.12390200059915553,0.09450488567713924,386.7317406999646,98,26,female,True,3866,3873,False,False,expiration,expiration
93,0.13,25,down,up,0.9273123999591916,1.061580102365952,,psi_staircase,cRDM,,0.10674922597039307,0.1126411889911647,0.08925619231942186,388.7816797998968,98,26,female,True,3887,3896,False,False,inspiration,expiration
94,0.17,25,down,down,0.9277576999738812,1.6304372099615903,,psi_staircase,cRDM,,0.1465589856303487,0.15396486236767112,0.11219017431542114,391.5982416999759,98,26,female,True,3915,3924,False,False,inspiration,inspiration
95,0.17,25,down,up,0.8439286999637261,1.5779787741607316,,psi_staircase,cRDM,,0.13340248410280311,0.1405265876000131,0.1079216467599565,394.3650561999529,98,26,female,True,3943,3951,False,False,inspiration,inspiration
96,0.24,25,up,up,0.6422506000380963,1.1945763926783364,,psi_staircase,cRDM,,0.18193238475088164,0.19069580836866173,0.1327553857767944,396.66474119992927,98,26,female,True,3966,3972,False,False,expiration,expiration
97,0.22,25,up,up,0.8236954000312835,1.7161568171025956,,psi_staircase,cRDM,,0.16677354439207692,0.17540774359744818,0.13079779049561832,399.28128979995387,98,26,female,True,3992,4000,False,False,expiration,expiration
98,0.2,25,down,down,0.7587748999940231,0.3588079099061186,,psi_staircase,cRDM,,0.15401086483169185,0.16248554860747585,0.12838132253562518,400.7312196999556,98,26,female,True,4006,4014,False,False,expiration,inspiration
99,0.16,25,down,down,1.0788146000122651,0.4185738467847171,,psi_staircase,cRDM,,0.14297876398287515,0.15130566325517916,0.12614256407466168,402.1811862000032,98,26,female,True,4021,4032,False,False,peak,expiration
100,0.16,25,up,up,0.6725292999763042,0.5551287058642862,,psi_staircase,cRDM,,0.13184187921745955,0.14025957101245454,0.12751796219544168,404.0644539999777,98,26,female,True,4040,4047,False,False,expiration,inspiration
101,0.16,25,up,up,0.7042553999926895,1.2882741805596225,,psi_staircase,cRDM,,0.12226866597772194,0.13067683383662174,0.12737368595528922,406.2977026998997,98,26,female,True,4062,4069,False,False,expiration,expiration
102,0.16,25,up,up,0.5727246999740601,1.846918942471488,,psi_staircase,cRDM,,0.11424432399723387,0.12256238856379376,0.12600872884993192,409.11426549998583,98,26,female,True,4090,4096,False,False,inspiration,expiration
103,0.16,25,up,up,0.5614072000607848,1.7411777595460458,,psi_staircase,cRDM,,0.10764357845187006,0.11580977132262765,0.12370805431402315,411.6974912999432,98,26,female,True,4116,4122,False,False,inspiration,inspiration
104,0.11,25,down,down,0.5987282000714913,0.5427972599713544,,psi_staircase,cRDM,,0.1022945195402628,0.1102630077470216,0.12071306513128198,413.0473099999362,98,26,female,True,4130,4136,False,False,expiration,expiration
105,0.12,25,down,down,1.0838728999951854,0.8576705557903209,,psi_staircase,cRDM,,0.0947356519774308,0.10302405555693442,0.1255594003738801,414.7640767999692,98,26,female,True,4147,4158,False,False,inspiration,expiration
106,0.12,25,down,down,0.9322205999633296,1.8983787528233984,,psi_staircase,cRDM,,0.08824647273186931,0.09665657294614267,0.12740295882788627,418.01393229991663,98,26,female,True,4179,4188,False,False,inspiration,inspiration
107,0.12,25,up,up,0.4957911999663338,0.6473547818164417,,psi_staircase,cRDM,,0.08255737716042008,0.09100525047686904,0.12797517614500128,419.84719060000504,98,26,female,True,4198,4203,False,False,expiration,expiration
108,0.12,25,up,up,0.3670141999609768,0.6875156068231287,,psi_staircase,cRDM,,0.07762662225627097,0.0860444179585218,0.1275195362660823,421.2971475999802,98,26,female,True,4212,4216,False,False,inspiration,inspiration
109,0.08,25,down,up,0.7648767000064254,1.112379152980637,,psi_staircase,cRDM,,0.07338671653951631,0.08172045512050644,0.12624617142067976,423.0970903999405,98,26,female,True,4230,4238,False,False,expiration,trough
110,0.13,25,down,up,0.7748519999440759,0.3860805140410904,,psi_staircase,cRDM,,0.0878837611243332,0.09562555620310452,0.11727893539254973,424.49703410000086,98,26,female,True,4244,4252,False,False,inspiration,expiration
111,0.16,25,up,up,0.7143817000323907,1.875732631562212,,psi_staircase,cRDM,,0.1035219790029814,0.11224400970419736,0.132128332601395,427.4135990999639,98,26,female,True,4273,4280,False,False,inspiration,inspiration
112,0.16,25,up,up,0.8047634999966249,1.2266034592814925,,psi_staircase,cRDM,,0.09944589908614508,0.10799457147582127,0.12950216153745392,429.6301756999456,98,26,female,True,4295,4303,False,False,expiration,inspiration
113,0.11,25,down,down,1.2657795000122858,0.4897987776429548,,psi_staircase,cRDM,,0.09602662390869247,0.10438096899481032,0.12655833532568486,431.18018139991915,98,26,female,True,4311,4324,False,False,inspiration,expiration
114,0.11,25,up,down,1.260950700030662,0.7683000256946328,,psi_staircase,cRDM,,0.09036687713650636,0.0989610717797513,0.13019176922932496,433.4800259999465,98,26,female,True,4334,4347,False,False,inspiration,expiration
115,0.17,25,down,down,0.877423100057058,1.8891754689315212,,psi_staircase,cRDM,,0.1059758210293222,0.11410584595477012,0.12316015320347985,436.89656499994453,98,26,female,True,4368,4377,False,False,inspiration,expiration
116,0.11,25,up,up,0.744800699991174,0.5760491576074813,,psi_staircase,cRDM,,0.1032949664268202,0.1111677327209304,0.11926299264874494,438.61317429994233,98,26,female,True,4385,4392,False,False,expiration,expiration
117,0.11,25,down,down,1.1461866999743506,1.9564716243102351,,psi_staircase,cRDM,,0.09753567268734664,0.10579969105948844,0.12518999364977768,441.57976069999864,98,26,female,True,4415,4426,False,False,expiration,expiration
118,0.11,25,up,up,0.8379571998957545,0.8077202279694977,,psi_staircase,cRDM,,0.09218045105045257,0.10073482550724326,0.1295885410339295,443.8129933999153,98,26,female,True,4437,4445,False,False,inspiration,expiration
119,0.11,25,down,up,0.8497566999867558,1.1728150198034704,,psi_staircase,cRDM,,0.08728158736929953,0.0960397557056993,0.1326757745497857,446.0962282998953,98,26,female,True,4460,4468,False,False,expiration,inspiration
120,0.16,25,up,up,0.6391391000943258,1.4576102250130634,,psi_staircase,cRDM,,0.10119415158076628,0.10953453156818033,0.12634678078413894,448.6628286999185,98,26,female,True,4486,4492,False,False,expiration,expiration
121,0.1,25,up,up,0.6735077000921592,0.8136347301458939,,psi_staircase,cRDM,,0.09875651823176516,0.10687786210951468,0.1230286457143512,450.3794391999254,98,26,female,True,4503,4510,False,False,inspiration,inspiration
122,0.1,25,down,down,1.098312900052406,1.214775135289382,,psi_staircase,cRDM,,0.09349362253924684,0.10200869544092102,0.12899316948296016,452.5126684999559,98,26,female,True,4524,4535,False,False,expiration,expiration
123,0.1,25,down,up,0.7136779999127612,0.5610037809091908,,psi_staircase,cRDM,,0.08858299638204686,0.09739674667500008,0.1335177747093479,454.4292449998902,98,26,female,True,4543,4550,False,False,expiration,inspiration
124,0.16,25,down,down,0.712093900074251,0.8297308064693731,,psi_staircase,cRDM,,0.10125918732737677,0.10945999688867797,0.12423245577033401,456.24584669992333,98,26,female,True,4562,4569,False,False,expiration,expiration
125,0.1,25,up,up,0.704868400003761,1.2985674640706102,,psi_staircase,cRDM,,0.09919965640310588,0.10716872355860377,0.12072183551219155,458.5290997999255,98,26,female,True,4584,4591,False,False,inspiration,inspiration
126,0.1,25,up,up,0.7693849999923259,0.6446062515632591,,psi_staircase,cRDM,,0.0942007667905166,0.10258371912023836,0.12699170084882888,460.14561709994456,98,26,female,True,4601,4609,False,False,expiration,expiration
127,0.1,25,down,up,0.8059595000231639,0.8914943047514321,,psi_staircase,cRDM,,0.08952804245724576,0.09822878557295672,0.13180585114332202,462.0790211999556,98,26,female,True,4620,4628,False,False,inspiration,expiration
128,0.16,25,down,down,0.6546925000147894,1.0208497920556223,,psi_staircase,cRDM,,0.10144682690070504,0.10949470629241898,0.12191574662263566,464.1622564999852,98,26,female,True,4641,4648,False,False,expiration,inspiration
129,0.1,25,down,down,0.6371531999902801,1.896015003465339,,psi_staircase,cRDM,,0.09970516506714942,0.10750941816690902,0.11822509970375927,466.97881799994497,98,26,female,True,4669,4675,False,False,expiration,expiration
130,0.1,25,up,down,0.66025419998914,1.7498108615162098,,psi_staircase,cRDM,,0.09493013118502082,0.10316766679699214,0.12478881150953132,469.6287225999403,98,26,female,True,4695,4702,False,False,expiration,expiration
131,0.16,25,up,up,0.93402370007243,0.7691205694850081,,psi_staircase,cRDM,,0.10636472100706314,0.11374172134531425,0.11175273140888624,471.31195799994754,98,26,female,True,4712,4721,False,False,trough,inspiration
132,0.16,25,up,down,1.0707087999908254,0.9866030591320472,,psi_staircase,cRDM,,0.10502910579734973,0.11210354347399994,0.1071692689843398,473.4952374999411,98,26,female,True,4734,4745,False,False,expiration,inspiration
133,100.0,25,M,up,1.0100181000307202,1.9129715672299976,,psi_staircase,emotion,,100.0,100.0,25.00050000000001,479.8619213999482,98,26,female,True,4798,4808,False,False,expiration,expiration
134,55.0,25,M,down,0.5666711999801919,0.6071644505097495,,psi_staircase,emotion,,54.742809467541896,54.742809467541896,25.00050000000011,481.8282501999056,98,26,female,True,4817,4823,False,False,inspiration,expiration
135,79.0,25,F,down,0.6942062999587506,0.7249089146165788,,psi_staircase,emotion,,79.636070985635,79.636070985635,25.71326925488641,483.4617827999173,98,26,female,True,4834,4841,False,False,expiration,expiration
136,103.0,25,F,up,0.6815212001092732,1.7576407522429662,,psi_staircase,emotion,,97.61123893914808,97.61123893914808,26.1463337262867,486.2613950999221,98,26,female,True,4862,4869,False,False,expiration,expiration
137,87.0,25,M,down,0.4532731999643147,1.896001367997112,,psi_staircase,emotion,,85.98876744579668,85.98876744579668,23.003056417783494,489.19465029996354,98,26,female,True,4891,4896,False,False,expiration,expiration
138,95.0,25,F,down,0.7284054999472573,1.761010845132689,,psi_staircase,emotion,,95.05640406123078,95.05640406123078,22.150603223582724,491.744557900005,98,26,female,True,4916,4923,False,False,inspiration,expiration
139,108.0,25,M,up,0.743489500018768,1.3309826233578212,,psi_staircase,emotion,,102.67895770092095,102.67895770092095,23.933073614491192,494.14445269992575,98,26,female,True,4940,4947,False,False,inspiration,inspiration
140,105.0,25,F,up,0.8035955000668764,0.7167424782787648,,psi_staircase,emotion,,97.1551139642723,97.1551139642723,20.021669804154147,495.96133079996804,98,26,female,True,4959,4967,False,False,expiration,expiration
141,92.0,25,F,down,1.0296697999583555,1.4955175511071397,,psi_staircase,emotion,,94.35050340433409,94.35050340433409,16.907117635955494,498.59430279990187,98,26,female,True,4985,4995,False,False,expiration,expiration
142,97.0,25,M,down,0.8394868000177667,1.9104430033075888,,psi_staircase,emotion,,97.3372187693312,97.3372187693312,13.849209143469048,501.87751339992974,98,26,female,True,5018,5026,False,False,peak,expiration
143,104.0,25,F,down,0.5972723999293521,1.6800199112368894,,psi_staircase,emotion,,99.9222554941848,99.9222554941848,13.420456935215606,504.76070389989763,98,26,female,True,5047,5053,False,False,inspiration,expiration
144,116.0,25,F,up,0.916598099982366,0.4272629447834676,,psi_staircase,emotion,,104.99701909539543,104.99701909539543,23.109758686750514,506.1273711998947,98,26,female,True,5060,5069,False,False,expiration,trough
145,114.0,25,F,up,0.7421134000178427,1.2744881229495004,,psi_staircase,emotion,,102.34312734755642,102.34312734755642,19.993361601481432,508.6608515999978,98,26,female,True,5086,5093,False,False,expiration,expiration
146,113.0,25,M,down,0.7941372999921441,0.8601371600512149,,psi_staircase,emotion,,100.66982728850763,100.66982728850763,17.340816000997467,510.593866399955,98,26,female,True,5105,5113,False,False,inspiration,inspiration
147,124.0,25,M,up,0.5932704999577254,0.9162124697413953,,psi_staircase,emotion,,104.83468362177523,104.83468362177523,26.295492969472033,512.6437626999103,98,26,female,True,5125,5131,False,False,expiration,expiration
148,123.0,25,F,up,0.7718560999492183,1.7885254013995175,,psi_staircase,emotion,,103.28258187532477,103.28258187532477,24.371879949549484,515.3770336000016,98,26,female,True,5153,5161,False,False,expiration,expiration
149,84.0,25,F,down,0.7278246999485418,1.7561897789148333,,psi_staircase,emotion,,102.1527297514868,102.1527297514868,22.63067382892494,518.2601342999842,98,26,female,True,5182,5189,False,False,inspiration,expiration
150,121.0,25,M,up,0.7387729999609292,1.9770042358655364,,psi_staircase,emotion,,103.1903531849794,103.1903531849794,20.90188856745711,521.3101441999897,98,26,female,True,5212,5219,False,False,inspiration,expiration
151,86.0,25,M,down,0.7141777999931946,1.0791760171192872,,psi_staircase,emotion,,102.33668232169106,102.33668232169106,19.281041770345066,523.4767285999842,98,26,female,True,5234,5241,False,False,inspiration,inspiration
152,119.0,25,M,up,0.8056009999709204,0.5963542333968068,,psi_staircase,emotion,,103.13100602464041,103.13100602464041,17.725318207867918,525.143317699898,98,26,female,True,5250,5258,False,False,expiration,expiration
153,88.0,25,M,down,0.5566991000669077,1.440240622529229,,psi_staircase,emotion,,102.47661662100931,102.47661662100931,16.327852913277916,527.7432193999412,98,26,female,True,5276,5282,False,False,inspiration,expiration
154,117.0,25,F,up,0.6388334000948817,1.5911441030917368,,psi_staircase,emotion,,103.09540859790638,103.09540859790638,15.021959634358092,530.2431270999368,98,26,female,True,5301,5307,False,False,inspiration,inspiration
155,90.0,25,F,down,0.6412841000128537,0.5426684193799244,,psi_staircase,emotion,,102.57206329904655,102.57206329904655,13.88470714597154,531.7596871999558,98,26,female,True,5317,5323,False,False,expiration,expiration
156,114.0,25,F,up,0.7796816999325529,1.9709860535966977,,psi_staircase,emotion,,103.07322634623822,103.07322634623822,12.838096953137988,534.7262919999192,98,26,female,True,5346,5354,False,False,expiration,expiration
157,92.0,25,M,down,0.7847561000380665,1.8996266200150906,,psi_staircase,emotion,,102.5851273246158,102.5851273246158,11.92674758869669,537.7761942999205,98,26,female,True,5377,5385,False,False,expiration,expiration
158,111.0,25,M,up,0.8972083000699058,0.9386463710040052,,psi_staircase,emotion,,103.01508165640213,103.01508165640213,11.09892613925714,539.8427669999655,98,26,female,True,5397,5406,False,False,inspiration,expiration
159,94.0,25,F,down,0.7349401999963447,1.3364137488899177,,psi_staircase,emotion,,102.50774132430477,102.50774132430477,10.371991017982511,542.4260223999154,98,26,female,True,5423,5430,False,False,inspiration,inspiration
160,108.0,25,F,up,1.2183649999788029,1.1834629305373945,,psi_staircase,emotion,,102.90191402576185,102.90191402576185,9.707701695937716,544.6926090999041,98,26,female,True,5446,5458,False,False,expiration,inspiration
161,107.0,25,M,down,0.7671348000876606,1.4313596144943568,,psi_staircase,emotion,,102.32317093293145,102.32317093293145,9.115958389324934,547.675840199925,98,26,female,True,5476,5484,False,False,expiration,expiration
162,94.0,25,M,down,0.904251900035888,1.738965073536317,,psi_staircase,emotion,,103.66549270064584,103.66549270064584,10.465948198522224,550.52572159993,98,26,female,True,5504,5513,False,False,expiration,expiration
163,113.0,25,F,down,0.8087013000622392,1.9036357803284167,,psi_staircase,emotion,,103.97281165300475,103.97281165300475,9.904342469723607,553.6922654999653,98,26,female,True,5536,5544,False,False,expiration,expiration
164,119.0,25,M,down,0.9447386999381706,1.2081786842705635,,psi_staircase,emotion,,105.36181385980042,105.36181385980042,12.257959642750563,556.0421798999887,98,26,female,True,5559,5568,False,False,inspiration,expiration
165,125.0,25,F,up,0.6662230000365525,1.8606007773692723,,psi_staircase,emotion,,107.06467848147848,107.06467848147848,16.40452496951125,559.20873199997,98,26,female,True,5591,5598,False,False,inspiration,peak
166,124.0,25,M,up,0.7949966000160202,1.5721131293859771,,psi_staircase,emotion,,106.70762885679942,106.70762885679942,15.493076408022956,561.7919753999448,98,26,female,True,5617,5625,False,False,inspiration,inspiration
167,123.0,25,F,up,0.6034385000821203,0.33379699006527713,,psi_staircase,emotion,,106.41903765003154,106.41903765003154,14.718250436653689,563.2584476999473,98,26,female,True,5632,5638,False,False,expiration,expiration
168,91.0,25,M,down,0.6674168000463396,1.118840920942855,,psi_staircase,emotion,,106.17853555423977,106.17853555423977,14.054718217177415,565.3085210999708,98,26,female,True,5652,5659,False,False,inspiration,expiration
169,92.0,25,F,down,0.6882003999780864,0.8053469725504983,,psi_staircase,emotion,,106.43409624431894,106.43409624431894,13.447785918375244,567.1417666999622,98,26,female,True,5670,5677,False,False,expiration,inspiration
170,121.0,25,M,up,0.7588929999619722,0.43633172602278,,psi_staircase,emotion,,106.66289342950806,106.66289342950806,12.916575218095037,568.6250766000012,98,26,female,True,5685,5693,False,False,inspiration,expiration
171,93.0,25,M,down,0.7246213000034913,1.4797602126471583,,psi_staircase,emotion,,106.43877998970645,106.43877998970645,12.425482363597196,571.2083041999722,98,26,female,True,5711,5718,False,False,inspiration,peak
172,120.0,25,F,up,1.1436712000286209,0.9247422173213762,,psi_staircase,emotion,,106.65150371211456,106.65150371211456,11.995072385659276,573.2082393999444,98,26,female,True,5731,5742,False,False,expiration,inspiration
173,94.0,25,F,down,0.6085796999977902,1.156675685672405,,psi_staircase,emotion,,106.44888076511292,106.44888076511292,11.600152557133873,575.8583893999457,98,26,female,True,5758,5764,False,False,expiration,expiration
174,119.0,25,F,up,0.8241993000265211,0.6640042486337226,,psi_staircase,emotion,,106.65176454201605,106.65176454201605,11.244346799680162,577.474735399941,98,26,female,True,5774,5782,False,False,inspiration,inspiration
175,95.0,25,M,down,0.7807463000062853,0.7218482023020842,,psi_staircase,emotion,,106.4615257231934,106.4615257231934,10.918762256429918,579.3582559999777,98,26,female,True,5793,5801,False,False,expiration,expiration
176,118.0,25,M,up,0.9823531000874935,0.3248013161800474,,psi_staircase,emotion,,106.65923031584259,106.65923031584259,10.61760013723155,580.824615499936,98,26,female,True,5807,5817,False,False,inspiration,expiration
177,96.0,25,F,down,0.7231792999664322,0.9049497616558352,,psi_staircase,emotion,,106.47487331868095,106.47487331868095,10.341877839162818,583.0577730999794,98,26,female,True,5830,5837,False,False,expiration,inspiration
178,97.0,25,F,down,0.5819091000594199,1.1234322004062136,,psi_staircase,emotion,,106.67101132244015,106.67101132244015,10.080990971539046,585.2580376999687,98,26,female,True,5852,5858,False,False,expiration,expiration
179,116.0,25,F,up,0.7905458000022918,0.981171392581343,,psi_staircase,emotion,,106.86802106922295,106.86802106922295,9.841008225468013,587.1743828000035,98,26,female,True,5871,5879,False,False,inspiration,inspiration
180,97.0,25,M,up,0.6276960000395775,1.9774255622862016,,psi_staircase,emotion,,106.66153270580078,106.66153270580078,9.605581548500037,590.2742722999537,98,26,female,True,5902,5908,False,False,expiration,inspiration
181,117.0,25,M,up,0.7777429999550804,0.7247334888620384,,psi_staircase,emotion,,105.75384609944399,105.75384609944399,10.686242255883835,591.9742195999714,98,26,female,True,5919,5927,False,False,expiration,expiration
182,95.0,25,M,up,0.6956541000399739,1.9393543274872365,,psi_staircase,emotion,,105.58511934090548,105.58511934090548,10.445805428447427,595.0572988999775,98,26,female,True,5950,5957,False,False,inspiration,expiration
183,0.11093900391111053,25,down,down,0.8407468000659719,1.736287325691637,,experiment,cRDM,0.0,,,,601.0072065999266,98,26,female,True,6009,6017,False,False,inspiration,expiration
184,0.11093900391111053,25,up,up,0.614167100051418,1.572746118368317,,experiment,cRDM,0.0,,,,603.6737983999774,98,26,female,True,6036,6042,False,False,inspiration,inspiration
185,0.11093900391111053,25,down,up,0.8266394999809563,0.7869921761563401,,experiment,cRDM,0.0,,,,605.3403266998939,98,26,female,True,6052,6060,False,False,expiration,expiration
186,0.11093900391111053,25,up,up,1.151649000006728,0.5067589529804647,,experiment,cRDM,0.0,,,,606.9403000999009,98,26,female,True,6068,6080,False,False,inspiration,expiration
187,0.11093900391111053,25,down,up,1.020084899966605,1.7485591931544937,,experiment,cRDM,0.0,,,,610.1068630999653,98,26,female,True,6100,6110,False,False,inspiration,inspiration
188,0.11093900391111053,25,down,down,0.7295199000509456,1.8909808766887333,,experiment,cRDM,0.0,,,,613.2734463999514,98,26,female,True,6132,6139,False,False,inspiration,inspiration
189,0.11093900391111053,25,up,up,0.6461824000580236,0.4421689600934359,,experiment,cRDM,0.0,,,,614.7066936999328,98,26,female,True,6146,6152,False,False,expiration,expiration
190,0.11093900391111053,25,down,up,0.8210108999628574,0.3741694769555606,,experiment,cRDM,0.0,,,,615.9899868998909,98,26,female,True,6159,6167,False,False,inspiration,inspiration
191,0.11093900391111053,25,up,up,0.7366886999225244,1.611389787915733,,experiment,cRDM,0.0,,,,618.6732519998914,98,26,female,True,6186,6193,False,False,expiration,inspiration
192,0.11093900391111053,25,up,up,0.7492416000459343,1.4680292575534697,,experiment,cRDM,0.0,,,,621.1567193999654,98,26,female,True,6211,6218,False,False,expiration,expiration
193,0.11093900391111053,25,down,down,0.7262735998956487,1.1646695863782848,,experiment,cRDM,0.0,,,,623.3397021999117,98,26,female,True,6232,6239,False,False,inspiration,expiration
194,0.11093900391111053,25,up,up,0.6112890000222251,0.5481703138582925,,experiment,cRDM,0.0,,,,624.8896664999193,98,26,female,True,6248,6254,False,False,expiration,expiration
195,0.11093900391111053,25,up,up,0.6383217000402509,1.1246411617257133,,experiment,cRDM,0.0,,,,626.8896249999525,98,26,female,True,6268,6274,False,False,peak,expiration
196,0.11093900391111053,25,up,up,0.6578057000879198,0.5658957973705543,,experiment,cRDM,0.0,,,,628.3561560999369,98,26,female,True,6283,6290,False,False,expiration,inspiration
197,0.11093900391111053,25,down,down,0.5651185000315309,1.4008695324977751,,experiment,cRDM,0.0,,,,630.6727724999655,98,26,female,True,6306,6312,False,False,expiration,expiration
198,0.11093900391111053,25,down,up,0.5982654999243096,1.6167611345933113,,experiment,cRDM,0.0,,,,633.1226917000022,98,26,female,True,6330,6336,False,False,inspiration,expiration
199,0.11093900391111053,25,up,up,0.8120700999861583,1.0694461326648894,,experiment,cRDM,0.0,,,,635.0558039000025,98,26,female,True,6350,6358,False,False,expiration,inspiration
200,0.11093900391111053,25,up,up,0.6553758999798447,0.5885001228489184,,experiment,cRDM,0.0,,,,636.7225734998938,98,26,female,True,6366,6373,False,False,expiration,expiration
201,0.11093900391111053,25,down,up,1.2161158999660984,0.357674601722151,,experiment,cRDM,0.0,,,,638.0058376999805,98,26,female,True,6379,6391,False,False,expiration,inspiration
202,0.11093900391111053,25,down,down,0.6592992999358103,0.33574990137816385,,experiment,cRDM,0.0,,,,639.8057762999088,98,26,female,True,6397,6404,False,False,inspiration,expiration
203,0.11093900391111053,25,up,up,0.7869588000467047,0.4378332416554146,,experiment,cRDM,0.0,,,,641.1559816999361,98,26,female,True,6411,6419,False,False,expiration,inspiration
204,0.11093900391111053,25,down,up,0.9629936999408528,1.685237581072618,,experiment,cRDM,0.0,,,,643.88896199991,98,26,female,True,6438,6448,False,False,expiration,expiration
205,0.11093900391111053,25,up,up,0.5737950000911951,1.0590906212173101,,experiment,cRDM,0.0,,,,646.1722332999342,98,26,female,True,6461,6467,False,False,inspiration,expiration
206,0.11093900391111053,25,down,down,0.6814380999421701,1.6943662944863296,,experiment,cRDM,0.0,,,,648.7054809998954,98,26,female,True,6486,6493,False,False,inspiration,inspiration
207,0.11093900391111053,25,down,up,0.7412739000283182,1.3051494103015426,,experiment,cRDM,0.0,,,,650.9386837999336,98,26,female,True,6508,6515,False,False,expiration,expiration
208,0.11093900391111053,25,up,up,1.0107197000179442,1.493764036018042,,experiment,cRDM,0.0,,,,653.4551935999189,98,26,female,True,6534,6544,False,False,expiration,expiration
209,0.11093900391111053,25,up,up,0.9621249999618158,1.0799378516998823,,experiment,cRDM,0.0,,,,655.8218291999074,98,26,female,True,6557,6567,False,False,inspiration,expiration
210,0.11093900391111053,25,down,down,0.8627912000520155,0.7028262871098474,,experiment,cRDM,0.0,,,,657.7551425999262,98,26,female,True,6577,6586,False,False,expiration,inspiration
211,0.11093900391111053,25,up,up,0.5985658999998122,0.972499004231958,,experiment,cRDM,0.0,,,,659.8384095999645,98,26,female,True,6598,6604,False,False,expiration,expiration
212,0.11093900391111053,25,down,down,0.904933899990283,0.370146750492921,,experiment,cRDM,0.0,,,,661.0550299999303,98,26,female,True,6610,6619,False,False,inspiration,inspiration
213,0.11093900391111053,25,up,down,0.8590250000124797,0.6793778299055286,,experiment,cRDM,0.0,,,,662.9049221999013,98,26,female,True,6628,6637,False,False,expiration,inspiration
214,0.11093900391111053,25,down,down,0.8440765000414103,1.0774347037683951,,experiment,cRDM,0.0,,,,665.1048387999182,98,26,female,True,6650,6658,False,False,expiration,expiration
215,0.11093900391111053,25,up,up,0.6735043999506161,0.4148719793926283,,experiment,cRDM,0.0,,,,666.6214551999001,98,26,female,True,6665,6672,False,False,expiration,inspiration
216,0.11093900391111053,25,down,down,0.696562199969776,0.6634023526299909,,experiment,cRDM,0.0,,,,668.221393099986,98,26,female,True,6681,6688,False,False,expiration,expiration
217,0.11093900391111053,25,up,up,0.907603400060907,1.8878610416611183,,experiment,cRDM,0.0,,,,671.0713124999311,98,26,female,True,6710,6719,False,False,inspiration,expiration
218,0.11093900391111053,25,down,down,0.6776768999407068,1.088243253597853,,experiment,cRDM,0.0,,,,673.3212197999238,98,26,female,True,6732,6739,False,False,inspiration,inspiration
219,0.11093900391111053,25,up,up,0.5401616999879479,1.0249876771470965,,experiment,cRDM,0.0,,,,675.2878152999327,98,26,female,True,6752,6757,False,False,expiration,expiration
220,0.11093900391111053,25,down,up,0.8723501999629661,1.740844339915924,,experiment,cRDM,0.0,,,,677.8375730999978,98,26,female,True,6778,6787,False,False,expiration,expiration
221,0.11093900391111053,25,up,up,0.8129443000070751,1.4509808127058308,,experiment,cRDM,0.0,,,,680.4209490999348,98,26,female,True,6803,6811,False,False,inspiration,expiration
222,0.11093900391111053,25,down,up,0.5517417999217287,0.8230214986641722,,experiment,cRDM,0.0,,,,682.3041995998938,98,26,female,True,6822,6828,False,False,expiration,inspiration
223,0.11093900391111053,25,down,down,0.6647793999873102,0.9768783505808396,,experiment,cRDM,0.0,,,,684.1041731999721,98,26,female,True,6840,6847,False,False,peak,expiration
224,0.11093900391111053,25,up,up,0.6828676000004634,0.8810115257242297,,experiment,cRDM,0.0,,,,685.90408509993,98,26,female,True,6858,6865,False,False,expiration,inspiration
225,0.11093900391111053,25,down,down,0.6322888000868261,0.37142598138562,,experiment,cRDM,0.0,,,,687.2206511999248,98,26,female,True,6871,6877,False,False,inspiration,expiration
226,0.11093900391111053,25,up,down,0.5667275999439879,0.913898600619147,,experiment,cRDM,0.0,,,,689.0372576999944,98,26,female,True,6890,6896,False,False,expiration,inspiration
227,0.11093900391111053,25,up,up,0.73339000006672,1.6673839814157976,,experiment,cRDM,0.0,,,,691.5205418999541,98,26,female,True,6914,6921,False,False,expiration,expiration
228,0.11093900391111053,25,down,down,0.7014243000885472,0.3534304042483907,,experiment,cRDM,0.0,,,,692.8704953999259,98,26,female,True,6928,6935,False,False,inspiration,expiration
229,0.11093900391111053,25,down,up,0.8138138999929652,0.35399681605718003,,experiment,cRDM,0.0,,,,694.1871295999736,98,26,female,True,6941,6949,False,False,expiration,expiration
230,0.11093900391111053,25,up,up,0.5456276999320835,1.9727321337197048,,experiment,cRDM,0.0,,,,697.2373251999962,98,26,female,True,6972,6977,False,False,expiration,expiration
231,0.11093900391111053,25,down,down,0.7380536999553442,0.9952069857195136,,experiment,cRDM,0.0,,,,699.0368921000045,98,26,female,True,6990,6997,False,False,inspiration,peak
232,0.11093900391111053,25,up,up,0.6917478999821469,0.4396491907351645,,experiment,cRDM,0.0,,,,700.4701965999558,98,26,female,True,7004,7011,False,False,expiration,expiration
233,0.11093900391111053,25,up,up,0.6024306999752298,1.7311849059984097,,experiment,cRDM,0.0,,,,703.1534800999797,98,26,female,True,7031,7037,False,False,expiration,expiration
234,0.11093900391111053,25,up,up,0.5659466999350116,1.88731079355282,,experiment,cRDM,0.0,,,,705.9199962998973,98,26,female,True,7058,7064,False,False,inspiration,expiration
235,0.11093900391111053,25,up,up,0.3504547999473289,1.9083982596084696,,experiment,cRDM,0.0,,,,708.6699313999852,98,26,female,True,7086,7090,False,False,inspiration,inspiration
236,0.11093900391111053,25,up,up,0.3338038000511005,1.831060088368225,,experiment,cRDM,0.0,,,,711.1864954999182,98,26,female,True,7111,7114,False,False,expiration,expiration
237,0.11093900391111053,25,down,down,0.6885196999646723,0.8718982329766554,,experiment,cRDM,0.0,,,,712.7364064999856,98,26,female,True,7126,7133,False,False,inspiration,peak
238,0.11093900391111053,25,down,up,0.5084820999763906,0.3044239893458699,,experiment,cRDM,0.0,,,,713.9864058999809,98,26,female,True,7139,7144,False,False,expiration,expiration
239,0.11093900391111053,25,down,down,0.6432305999333039,0.3054158545152798,,experiment,cRDM,0.0,,,,715.0696713998914,98,26,female,True,7150,7156,False,False,inspiration,inspiration
240,0.11093900391111053,25,up,down,0.9426673999987544,1.200434543342989,,experiment,cRDM,0.0,,,,717.1862626998918,98,26,female,True,7171,7180,False,False,expiration,inspiration
241,0.11093900391111053,25,down,down,0.9560249999631196,1.499419067070815,,experiment,cRDM,0.0,,,,719.8861648999155,98,26,female,True,7198,7208,False,False,expiration,expiration
242,0.11093900391111053,25,down,down,0.8224617000669241,0.3644915038025182,,experiment,cRDM,0.0,,,,721.4694634999614,98,26,female,True,7214,7222,False,False,inspiration,peak
243,0.11093900391111053,25,down,down,0.6782187999924645,0.5531624326367329,,experiment,cRDM,0.0,,,,723.1027088999982,98,26,female,True,7230,7237,False,False,expiration,expiration
244,0.11093900391111053,25,up,down,0.9109430999960749,0.3255918379444612,,experiment,cRDM,0.0,,,,724.385984399938,98,26,female,True,7243,7252,False,False,inspiration,inspiration
245,0.11093900391111053,25,down,down,0.6620256999740377,0.5836356262256504,,experiment,cRDM,0.0,,,,726.1359104999574,98,26,female,True,7260,7267,False,False,expiration,expiration
246,0.11093900391111053,25,up,up,0.6497610000660643,1.9222191688431995,,experiment,cRDM,0.0,,,,728.9691727999597,98,26,female,True,7289,7295,False,False,expiration,expiration
247,0.11093900391111053,25,up,up,1.0544168000342324,0.41505353621423796,,experiment,cRDM,0.0,,,,730.3024466999341,98,26,female,True,7302,7313,False,False,expiration,inspiration
248,0.11093900391111053,25,down,up,0.7422602999722585,1.3672731421522613,,experiment,cRDM,0.0,,,,732.9856831999497,98,26,female,True,7329,7336,False,False,expiration,expiration
249,0.11093900391111053,25,up,down,0.9410291000967844,1.8309631613022843,,experiment,cRDM,0.0,,,,735.8189119999298,98,26,female,True,7357,7366,False,False,expiration,expiration
250,0.11093900391111053,25,down,up,0.7330889999866486,1.3533617045173152,,experiment,cRDM,0.0,,,,738.3688355999767,98,26,female,True,7383,7390,False,False,inspiration,expiration
251,0.11093900391111053,25,up,up,0.6745785999810323,0.7710680530427008,,experiment,cRDM,0.0,,,,740.1353240999159,98,26,female,True,7401,7408,False,False,expiration,inspiration
252,0.11093900391111053,25,down,up,0.6402502000564709,1.5484106770777133,,experiment,cRDM,0.0,,,,742.618651399971,98,26,female,True,7425,7431,False,False,expiration,expiration
253,0.11093900391111053,25,up,up,1.3413456999696791,0.8905587689151095,,experiment,cRDM,0.0,,,,744.4185560999904,98,26,female,True,7443,7456,False,False,inspiration,expiration
254,0.11093900391111053,25,down,up,1.1054140999913216,0.604810219867344,,experiment,cRDM,0.0,,,,746.6184949999443,98,26,female,True,7465,7476,False,False,expiration,inspiration
255,0.11093900391111053,25,down,up,1.0702130999416113,1.6642224294325327,,experiment,cRDM,0.0,,,,749.6517424999037,98,26,female,True,7496,7507,False,False,expiration,inspiration
256,0.11093900391111053,25,down,down,0.5536659000208601,0.98154431402913,,experiment,cRDM,0.0,,,,751.9683080998947,98,26,female,True,7519,7525,False,False,expiration,expiration
257,0.11093900391111053,25,down,down,0.8629925999557599,1.2063409953096789,,experiment,cRDM,0.0,,,,753.9849589999068,98,26,female,True,7539,7548,False,False,inspiration,expiration
258,0.11093900391111053,25,down,up,1.3510534000815824,0.5820240069371179,,experiment,cRDM,0.0,,,,755.6848481999479,98,26,female,True,7556,7570,False,False,expiration,inspiration
259,0.11093900391111053,25,up,down,0.7761742000002414,0.8916106054591897,,experiment,cRDM,0.0,,,,758.1847487998892,98,26,female,True,7581,7589,False,False,expiration,expiration
260,0.11093900391111053,25,up,up,0.9625374999595806,0.37552367455870894,,experiment,cRDM,0.0,,,,759.6013908999739,98,26,female,True,7595,7605,False,False,expiration,inspiration
261,0.11093900391111053,25,up,up,0.7326105999527499,0.33969261051092153,,experiment,cRDM,0.0,,,,761.1513257999903,98,26,female,True,7611,7618,False,False,expiration,expiration
262,0.11093900391111053,25,up,up,0.9036757999565452,1.0550246818540223,,experiment,cRDM,0.0,,,,763.2012252999702,98,26,female,True,7631,7640,False,False,inspiration,peak
263,109.0,25,M,down,1.3268697999883443,1.3083456281999049,,experiment,emotion,0.0,,,,769.1510317999637,98,26,female,True,7691,7704,False,False,inspiration,peak
264,100.0,25,M,up,0.6312743999296799,0.9278921275175324,,experiment,emotion,0.0,,,,771.6676266998984,98,26,female,True,7716,7722,False,False,expiration,expiration
265,106.0,25,F,up,0.6460644999751821,1.7151637816560992,,experiment,emotion,0.0,,,,774.3008342999965,98,26,female,True,7742,7748,False,False,expiration,expiration
266,109.0,25,F,up,0.9254375000018626,0.4467317202451503,,experiment,emotion,0.0,,,,775.66746529995,98,26,female,True,7756,7765,False,False,trough,inspiration
267,106.0,25,M,up,0.6625121999531984,1.0084512532849508,,experiment,emotion,0.0,,,,777.8673675999744,98,26,female,True,7778,7785,False,False,expiration,expiration
268,103.0,25,F,up,0.455045000067912,1.73557686059762,,experiment,emotion,0.0,,,,780.5508753999602,98,26,female,True,7805,7810,False,False,expiration,expiration
269,100.0,25,M,down,0.765057299984619,0.3692429843070065,,experiment,emotion,0.0,,,,781.6338707999092,98,26,female,True,7815,7823,False,False,expiration,expiration
270,103.0,25,M,down,0.6511257999809459,1.056464039202327,,experiment,emotion,0.0,,,,783.7338073999854,98,26,female,True,7836,7843,False,False,inspiration,expiration
271,109.0,25,F,down,0.6238584000384435,0.7682511104638271,,experiment,emotion,0.0,,,,785.4170692999614,98,26,female,True,7853,7859,False,False,expiration,expiration
272,103.0,25,F,down,0.8172615000512451,0.9721743697589738,,experiment,emotion,0.0,,,,787.283686199924,98,26,female,True,7872,7880,False,False,peak,expiration
273,106.0,25,F,up,1.037978200009093,0.6959345192635662,,experiment,emotion,0.0,,,,789.0669518999057,98,26,female,True,7890,7900,False,False,expiration,inspiration
274,109.0,25,F,down,1.0478497999720275,0.6727068552209156,,experiment,emotion,0.0,,,,791.0499992999248,98,26,female,True,7910,7920,False,False,expiration,expiration
275,106.0,25,F,down,0.6897994000464678,1.527216695480179,,experiment,emotion,0.0,,,,793.9001023999881,98,26,female,True,7938,7945,False,False,inspiration,expiration
276,100.0,25,F,down,0.8798844999400899,1.980023791057088,,experiment,emotion,0.0,,,,796.8500041998923,98,26,female,True,7968,7977,False,False,inspiration,inspiration
277,103.0,25,M,up,0.7783497000345959,1.1219338383963011,,experiment,emotion,0.0,,,,799.1165662999265,98,26,female,True,7990,7998,False,False,expiration,expiration
278,100.0,25,M,up,1.122335199965164,0.5437809312852622,,experiment,emotion,0.0,,,,800.7165174999973,98,26,female,True,8006,8017,False,False,expiration,inspiration
279,109.0,25,M,up,1.5038552000187335,0.9054473846417588,,experiment,emotion,0.0,,,,803.0329976999202,98,26,female,True,8030,8045,False,False,expiration,inspiration
280,100.0,25,M,down,0.6715444000437856,0.3583510342014174,,experiment,emotion,0.0,,,,805.1663539999863,98,26,female,True,8051,8058,False,False,expiration,expiration
281,106.0,25,F,up,0.8532954999245703,0.4973477037071529,,experiment,emotion,0.0,,,,806.5996362000004,98,26,female,True,8065,8074,False,False,expiration,inspiration
282,106.0,25,M,up,0.6541438999120146,0.9054874875256292,,experiment,emotion,0.0,,,,808.6327689999016,98,26,female,True,8086,8093,False,False,expiration,expiration
283,103.0,25,M,up,0.6550165999215096,1.1317913718247583,,experiment,emotion,0.0,,,,810.682825399912,98,26,female,True,8106,8113,False,False,inspiration,inspiration
284,103.0,25,F,up,0.8084666000213474,0.3471801770001817,,experiment,emotion,0.0,,,,811.9494484999451,98,26,female,True,8119,8127,False,False,expiration,expiration
285,100.0,25,M,up,0.4003074000356719,1.0734216905755762,,experiment,emotion,0.0,,,,814.0993679999374,98,26,female,True,8140,8144,False,False,inspiration,inspiration
286,109.0,25,F,up,0.6496277999831364,0.7480102760264618,,experiment,emotion,0.0,,,,815.5493245999097,98,26,female,True,8155,8161,False,False,expiration,expiration
287,106.0,25,F,down,0.8130139999557287,1.1937463230071703,,experiment,emotion,0.0,,,,817.6658951999852,98,26,female,True,8176,8184,False,False,inspiration,inspiration
288,100.0,25,M,up,0.8124231999972835,1.4243150949023262,,experiment,emotion,0.0,,,,820.1824952999596,98,26,female,True,8201,8209,False,False,expiration,inspiration
289,109.0,25,M,up,0.5694821999641135,0.9302735840798836,,experiment,emotion,0.0,,,,822.1823936000002,98,26,female,True,8221,8227,False,False,expiration,expiration
290,109.0,25,F,up,0.6125394999980927,0.4493375640210174,,experiment,emotion,0.0,,,,823.4823527999687,98,26,female,True,8234,8240,False,False,inspiration,inspiration
291,103.0,25,M,up,0.795968999969773,1.5724565897306433,,experiment,emotion,0.0,,,,825.9489210000029,98,26,female,True,8259,8267,False,False,expiration,inspiration
292,100.0,25,F,down,0.7818439000984654,1.0269884612410376,,experiment,emotion,0.0,,,,828.0320194999222,98,26,female,True,8280,8288,False,False,expiration,expiration
293,103.0,25,F,down,0.6669138999423012,1.3677239308478013,,experiment,emotion,0.0,,,,830.4319789999863,98,26,female,True,8304,8311,False,False,inspiration,expiration
294,106.0,25,F,down,0.5329097000649199,1.366552099355559,,experiment,emotion,0.0,,,,832.7319695999612,98,26,female,True,8327,8332,False,False,trough,inspiration
295,100.0,25,M,down,0.30015799996908754,1.70800831644287,,experiment,emotion,0.0,,,,835.2485943998909,98,26,female,True,8352,8355,False,False,expiration,expiration
296,109.0,25,M,up,0.8567297999979928,1.6665321899863612,,experiment,emotion,0.0,,,,837.6151691999985,98,26,female,True,8375,8384,False,False,expiration,expiration
297,106.0,25,M,down,0.7981087000807747,0.6391373411405884,,experiment,emotion,0.0,,,,839.3817788999295,98,26,female,True,8393,8401,False,False,expiration,inspiration
298,109.0,25,F,up,0.9918491999851541,1.0161365722872304,,experiment,emotion,0.0,,,,841.4650529999052,98,26,female,True,8414,8424,False,False,expiration,inspiration
299,100.0,25,F,down,0.7362996999872848,1.4573192149391838,,experiment,emotion,0.0,,,,844.1815921999513,98,26,female,True,8441,8448,False,False,expiration,expiration
300,106.0,25,M,up,0.5976864999393001,1.2030175789010873,,experiment,emotion,0.0,,,,846.3981922999956,98,26,female,True,8463,8469,False,False,inspiration,expiration
301,103.0,25,F,up,0.8621672999579459,1.9771440102223408,,experiment,emotion,0.0,,,,849.2647420999127,98,26,female,True,8492,8501,False,False,inspiration,expiration
302,103.0,25,M,up,1.089593300013803,0.9877734895266316,,experiment,emotion,0.0,,,,851.3813286999939,98,26,female,True,8513,8524,False,False,expiration,inspiration
303,106.0,25,M,down,0.6550041999435052,1.4565285503232492,,experiment,emotion,0.0,,,,854.1978827998973,98,26,female,True,8541,8548,False,False,expiration,inspiration
304,109.0,25,M,down,0.6091528000542894,1.7171029524993326,,experiment,emotion,0.0,,,,856.8477339999517,98,26,female,True,8568,8574,False,False,expiration,expiration
305,103.0,25,F,down,1.6438357000006365,0.5072338578779204,,experiment,emotion,0.0,,,,858.2310514999555,98,26,female,True,8581,8597,False,False,inspiration,expiration
306,100.0,25,F,up,1.2209248000290245,1.1631219074096448,,experiment,emotion,0.0,,,,861.3309491999679,98,26,female,True,8612,8624,False,False,expiration,inspiration
307,100.0,25,M,up,1.1159924999810755,0.3598166687809845,,experiment,emotion,0.0,,,,863.1808925999794,98,26,female,True,8631,8642,False,False,expiration,expiration
308,103.0,25,F,down,1.0183991000521928,1.1859279512625798,,experiment,emotion,0.0,,,,865.7474900999805,98,26,female,True,8657,8667,False,False,inspiration,expiration
309,109.0,25,F,down,0.5618632000405341,1.2691465827541335,,experiment,emotion,0.0,,,,868.3140230999561,98,26,female,True,8682,8688,False,False,inspiration,inspiration
310,106.0,25,M,down,0.5606330999871716,1.6857917891041585,,experiment,emotion,0.0,,,,870.8472844999051,98,26,female,True,8708,8714,False,False,expiration,inspiration
311,100.0,25,M,down,0.5164510000031441,1.6650195012337698,,experiment,emotion,0.0,,,,873.3304610999768,98,26,female,True,8733,8738,False,False,expiration,expiration
312,109.0,25,F,down,1.1187453999882564,0.7328099274840746,,experiment,emotion,0.0,,,,874.847142899991,98,26,female,True,8748,8759,False,False,inspiration,expiration
313,106.0,25,M,down,0.7706180000677705,1.8789314593689015,,experiment,emotion,0.0,,,,878.1302991999547,98,26,female,True,8781,8789,False,False,inspiration,expiration
314,106.0,25,F,down,0.8073150999844074,1.8899969468125892,,experiment,emotion,0.0,,,,881.0635717998957,98,26,female,True,8810,8818,False,False,inspiration,expiration
315,100.0,25,F,down,0.7160187000408769,0.3612665862595493,,experiment,emotion,0.0,,,,882.496863599983,98,26,female,True,8824,8831,False,False,expiration,expiration
316,103.0,25,F,down,1.1864580999827012,1.967585933541676,,experiment,emotion,0.0,,,,885.4634095999644,98,26,female,True,8854,8866,False,False,expiration,expiration
317,109.0,25,M,up,0.8960845998954028,0.5867991189876172,,experiment,emotion,0.0,,,,887.5298008999089,98,26,female,True,8875,8884,False,False,inspiration,expiration
318,103.0,25,M,up,0.9770066000055522,0.5379229681276166,,experiment,emotion,0.0,,,,889.2298790999921,98,26,female,True,8892,8902,False,False,expiration,trough
319,103.0,25,F,up,0.8356925999978557,0.6972814020274181,,experiment,emotion,0.0,,,,891.1632077998947,98,26,female,True,8911,8919,False,False,inspiration,expiration
320,103.0,25,F,down,1.2871381000149995,1.910198870314568,,experiment,emotion,0.0,,,,894.1797581999562,98,26,female,True,8941,8954,False,False,inspiration,expiration
321,109.0,25,M,down,1.438930399948731,1.4833566466810673,,experiment,emotion,0.0,,,,897.2129519999727,98,26,female,True,8971,8985,False,False,inspiration,expiration
322,106.0,25,M,down,0.6876836000010371,1.5143817761026666,,experiment,emotion,0.0,,,,900.4461957999738,98,26,female,True,9004,9011,False,False,inspiration,peak
323,100.0,25,M,down,0.3668489999836311,0.6002611783159069,,experiment,emotion,0.0,,,,901.996134899906,98,26,female,True,9019,9023,False,False,expiration,expiration
324,100.0,25,M,down,0.2334741000086069,0.9145596387027368,,experiment,emotion,0.0,,,,903.5960948999273,98,26,female,True,9035,9037,False,False,inspiration,inspiration
325,106.0,25,M,up,0.8269327000016347,1.7142313012142878,,experiment,emotion,0.0,,,,905.9959512999047,98,26,female,True,9059,9067,False,False,expiration,trough
326,109.0,25,F,up,0.4737577000632882,1.0481840561567342,,experiment,emotion,0.0,,,,908.1291534999617,98,26,female,True,9081,9086,False,False,expiration,expiration
327,109.0,25,F,down,1.4810376999666914,1.27179500490447,,experiment,emotion,0.0,,,,910.1458429999184,98,26,female,True,9101,9116,False,False,expiration,expiration
328,100.0,25,M,down,0.6075409000040963,1.8259748862619243,,experiment,emotion,0.0,,,,913.7123655999312,98,26,female,True,9136,9142,False,False,inspiration,inspiration
329,109.0,25,F,down,0.6895561999408528,1.3867562456030669,,experiment,emotion,0.0,,,,915.9622848998987,98,26,female,True,9159,9166,False,False,expiration,expiration
330,103.0,25,F,down,0.6113123999675736,0.6692492400304659,,experiment,emotion,0.0,,,,917.5955677999882,98,26,female,True,9175,9181,False,False,inspiration,peak
331,106.0,25,F,down,0.7844269999768585,0.9536380808022552,,experiment,emotion,0.0,,,,919.4454378999072,98,26,female,True,9194,9202,False,False,expiration,inspiration
332,103.0,25,M,down,0.778181100031361,1.6310832786863991,,experiment,emotion,0.0,,,,922.1287228999428,98,26,female,True,9220,9228,False,False,expiration,expiration
333,100.0,25,F,down,0.7191857000580058,0.4538629862589667,,experiment,emotion,0.0,,,,923.6286488999613,98,26,female,True,9235,9242,False,False,inspiration,inspiration
334,106.0,25,F,down,0.5309218999464065,0.3550320734622448,,experiment,emotion,0.0,,,,924.9619660999159,98,26,female,True,9249,9254,False,False,expiration,expiration
335,103.0,25,F,down,0.3001742999767885,0.7392980259415414,,experiment,emotion,0.0,,,,926.4952346999197,98,26,female,True,9264,9267,False,False,inspiration,inspiration
336,106.0,25,M,down,0.31679609999991953,1.2603828965979975,,experiment,emotion,0.0,,,,928.4284963998944,98,26,female,True,9283,9286,False,False,expiration,expiration
337,100.0,25,M,down,0.7251371000893414,1.9055653682263285,,experiment,emotion,0.0,,,,931.0117180999367,98,26,female,True,9309,9316,False,False,expiration,expiration
338,109.0,25,F,down,0.501870600041002,1.0812896193774055,,experiment,emotion,0.0,,,,933.0949994999684,98,26,female,True,9330,9335,False,False,inspiration,inspiration
339,106.0,25,M,up,1.004604100016877,0.5685008485151414,,experiment,emotion,0.0,,,,934.4282564999304,98,26,female,True,9343,9353,False,False,expiration,expiration
340,109.0,25,F,down,0.7847597000654787,1.9259699870928768,,experiment,emotion,0.0,,,,937.62814419996,98,26,female,True,9375,9383,False,False,expiration,expiration
341,100.0,25,M,down,0.7338462999323383,0.5352435176617051,,experiment,emotion,0.0,,,,939.2280764000025,98,26,female,True,9391,9398,False,False,inspiration,expiration
342,103.0,25,M,down,0.5321566000347957,0.4523661319830703,,experiment,emotion,0.0,,,,940.6947237999412,98,26,female,True,9406,9411,False,False,expiration,expiration
343,0.11093900391111053,25,up,up,0.6396399999503046,1.7917740756006018,,experiment,cRDM,1.0,,,,956.1272915999872,98,26,female,True,9561,9567,False,False,expiration,inspiration
344,0.11093900391111053,25,up,up,0.6096535000251606,1.5927233432322023,,experiment,cRDM,1.0,,,,958.6272222999249,98,26,female,True,9586,9592,False,False,expiration,expiration
345,0.11093900391111053,25,down,up,0.40024109999649227,1.0628310807415906,,experiment,cRDM,1.0,,,,960.5606581999457,98,26,female,True,9605,9609,False,False,expiration,inspiration
346,0.11093900391111053,25,down,up,0.7026318999705836,0.8407650497927891,,experiment,cRDM,1.0,,,,962.0772622999502,98,26,female,True,9620,9627,False,False,peak,expiration
347,0.11093900391111053,25,up,down,0.6651063000317663,1.9435139413564368,,experiment,cRDM,1.0,,,,964.9938143999317,98,26,female,True,9649,9656,False,False,inspiration,expiration
348,0.11093900391111053,25,down,up,0.8214863999746741,1.542455710393113,,experiment,cRDM,1.0,,,,967.4603872000008,98,26,female,True,9674,9682,False,False,inspiration,inspiration
349,0.11093900391111053,25,up,up,0.5922756999498233,1.8012902876655668,,experiment,cRDM,1.0,,,,970.3436259999872,98,26,female,True,9703,9709,False,False,expiration,expiration
350,0.11093900391111053,25,up,up,0.536644299980253,0.8690436260018568,,experiment,cRDM,1.0,,,,972.0602299999446,98,26,female,True,9720,9725,False,False,expiration,expiration
351,0.11093900391111053,25,down,down,0.5821294999914244,0.573689792618044,,experiment,cRDM,1.0,,,,973.4267590999369,98,26,female,True,9734,9740,False,False,inspiration,inspiration
352,0.11093900391111053,25,down,up,0.6207388000329956,0.550620187907171,,experiment,cRDM,1.0,,,,974.8101626998978,98,26,female,True,9747,9753,False,False,expiration,expiration
353,0.11093900391111053,25,down,down,0.7541532999603078,1.0352922724066087,,experiment,cRDM,1.0,,,,976.7267279999795,98,26,female,True,9767,9775,False,False,expiration,inspiration
354,0.11093900391111053,25,down,up,0.5659188000718132,1.4676463416745775,,experiment,cRDM,1.0,,,,979.2099681999533,98,26,female,True,9791,9797,False,False,expiration,expiration
355,0.11093900391111053,25,down,up,0.5596956999506801,0.39984770957798255,,experiment,cRDM,1.0,,,,980.443232999998,98,26,female,True,9804,9810,False,False,inspiration,inspiration
356,0.11093900391111053,25,down,up,0.4167851000092924,0.4928429700508907,,experiment,cRDM,1.0,,,,981.7598667999263,98,26,female,True,9817,9821,False,False,expiration,expiration
357,0.11093900391111053,25,up,up,0.5308694000123069,1.392583437591685,,experiment,cRDM,1.0,,,,983.8430529999314,98,26,female,True,9838,9843,False,False,inspiration,expiration
358,0.11093900391111053,25,up,up,0.576178100076504,1.5295167458263963,,experiment,cRDM,1.0,,,,986.1597259999253,98,26,female,True,9861,9867,False,False,inspiration,inspiration
359,0.11093900391111053,25,up,up,0.7922410999890417,1.7446204227182502,,experiment,cRDM,1.0,,,,988.7596272999654,98,26,female,True,9887,9895,False,False,expiration,expiration
360,0.11093900391111053,25,up,up,0.8839965000515804,1.1752096739203606,,experiment,cRDM,1.0,,,,990.9928558999671,98,26,female,True,9909,9918,False,False,inspiration,expiration
361,0.11093900391111053,25,down,down,0.5707583000184968,1.9536949726493649,,experiment,cRDM,1.0,,,,994.0761015999595,98,26,female,True,9940,9946,False,False,inspiration,inspiration
362,0.11093900391111053,25,up,up,0.7455023999791592,0.45031038768784304,,experiment,cRDM,1.0,,,,995.3593667999376,98,26,female,True,9953,9960,False,False,expiration,expiration
363,0.11093900391111053,25,up,up,0.6813244000077248,1.0739165964583974,,experiment,cRDM,1.0,,,,997.4426521999994,98,26,female,True,9974,9981,False,False,inspiration,expiration
364,0.11093900391111053,25,down,down,0.5474868000019342,1.14786373006757,,experiment,cRDM,1.0,,,,999.5423939999894,98,26,female,True,9995,10000,False,False,expiration,trough
365,0.11093900391111053,25,up,up,0.5220625000074506,1.5085544792430612,,experiment,cRDM,1.0,,,,1001.8758055999643,98,26,female,True,10018,10023,False,False,expiration,expiration
366,0.11093900391111053,25,down,up,0.6075177999446169,0.8254706615986791,,experiment,cRDM,1.0,,,,1003.4924051999113,98,26,female,True,10034,10040,False,False,expiration,inspiration
367,0.11093900391111053,25,down,up,0.6872512999689206,1.9164245210876067,,experiment,cRDM,1.0,,,,1006.2756222999888,98,26,female,True,10062,10069,False,False,expiration,expiration
368,0.11093900391111053,25,up,up,0.7569674999685958,1.0818082333022114,,experiment,cRDM,1.0,,,,1008.3089036999736,98,26,female,True,10083,10091,False,False,inspiration,expiration
369,0.11093900391111053,25,up,up,0.3836334999650717,1.3205462833454409,,experiment,cRDM,1.0,,,,1010.6421795999632,98,26,female,True,10106,10110,False,False,expiration,expiration
370,0.11093900391111053,25,down,up,0.487188300001435,1.5996024403073634,,experiment,cRDM,1.0,,,,1012.9087012999223,98,26,female,True,10128,10133,False,False,expiration,expiration
371,0.11093900391111053,25,up,up,0.7755773999961093,0.7228084897243985,,experiment,cRDM,1.0,,,,1014.3753248999127,98,26,female,True,10143,10151,False,False,expiration,inspiration
372,0.11093900391111053,25,down,down,0.5329840000486001,0.632267552596574,,experiment,cRDM,1.0,,,,1016.0419636999724,98,26,female,True,10160,10165,False,False,expiration,expiration
373,0.11093900391111053,25,down,up,0.7719905000412837,1.822819435958024,,experiment,cRDM,1.0,,,,1018.6418765999842,98,26,female,True,10186,10194,False,False,expiration,inspiration
374,0.11093900391111053,25,down,up,0.36710240005049855,1.0715981240485162,,experiment,cRDM,1.0,,,,1020.7418009999674,98,26,female,True,10207,10211,False,False,expiration,expiration
375,0.11093900391111053,25,up,up,0.6881783000426367,1.260861628631426,,experiment,cRDM,1.0,,,,1022.6916860999772,98,26,female,True,10226,10233,False,False,inspiration,inspiration
376,0.11093900391111053,25,up,down,0.5899874999886379,0.4931711137516703,,experiment,cRDM,1.0,,,,1024.1249124999158,98,26,female,True,10241,10247,False,False,expiration,expiration
377,0.11093900391111053,25,up,up,0.8186949999071658,1.589331760536142,,experiment,cRDM,1.0,,,,1026.558207899914,98,26,female,True,10265,10273,False,False,expiration,expiration
378,0.11093900391111053,25,down,down,0.6343771000392735,0.4087874796631504,,experiment,cRDM,1.0,,,,1028.0415226999903,98,26,female,True,10280,10286,False,False,inspiration,inspiration
379,0.11093900391111053,25,down,down,0.8940980000188574,0.4747003357641521,,experiment,cRDM,1.0,,,,1029.4247810998932,98,26,female,True,10294,10303,False,False,expiration,expiration
380,0.11093900391111053,25,up,up,0.5928622999927029,1.8233740096027742,,experiment,cRDM,1.0,,,,1032.4079860999482,98,26,female,True,10323,10329,False,False,expiration,expiration
381,0.11093900391111053,25,down,down,0.6296545000514016,1.9350158767623669,,experiment,cRDM,1.0,,,,1035.1912238999505,98,26,female,True,10351,10357,False,False,peak,expiration
382,0.11093900391111053,25,up,up,0.5814116999972612,0.4818563243878867,,experiment,cRDM,1.0,,,,1036.574511499959,98,26,female,True,10365,10371,False,False,expiration,inspiration
383,0.11093900391111053,25,up,down,0.43971070006955415,0.4326296790022628,,experiment,cRDM,1.0,,,,1037.8411728999345,98,26,female,True,10378,10382,False,False,inspiration,expiration
384,0.11093900391111053,25,up,up,0.7581635999958962,1.6651289133347442,,experiment,cRDM,1.0,,,,1040.2076960999984,98,26,female,True,10401,10409,False,False,expiration,inspiration
385,0.11093900391111053,25,down,up,0.963817600044422,0.3100792356440027,,experiment,cRDM,1.0,,,,1041.5410425999437,98,26,female,True,10415,10425,False,False,inspiration,expiration
386,0.11093900391111053,25,down,up,1.1622559999814257,0.4874377737998629,,experiment,cRDM,1.0,,,,1043.2576083999593,98,26,female,True,10432,10444,False,False,expiration,inspiration
387,0.11093900391111053,25,up,up,0.6553564999485388,0.5776315774516887,,experiment,cRDM,1.0,,,,1045.257525099907,98,26,female,True,10452,10459,False,False,expiration,expiration
388,0.11093900391111053,25,down,up,0.9283754000207408,0.7793773431975626,,experiment,cRDM,1.0,,,,1046.957464599982,98,26,female,True,10469,10478,False,False,expiration,inspiration
389,0.11093900391111053,25,down,up,0.8054969999939203,1.9622649672670776,,experiment,cRDM,1.0,,,,1050.107350999955,98,26,female,True,10500,10508,False,False,expiration,inspiration
390,0.11093900391111053,25,up,up,0.701236900058575,1.0691392719165538,,experiment,cRDM,1.0,,,,1052.240620299941,98,26,female,True,10522,10529,False,False,expiration,expiration
391,0.11093900391111053,25,up,up,1.0283349000383168,1.9856563409812018,,experiment,cRDM,1.0,,,,1055.190508799977,98,26,female,True,10551,10561,False,False,expiration,expiration
392,0.11093900391111053,25,down,up,0.732505000079982,1.7230058998744222,,experiment,cRDM,1.0,,,,1058.1903824999465,98,26,female,True,10581,10588,False,False,peak,expiration
393,0.11093900391111053,25,up,up,0.5093388999812305,0.6423563517888793,,experiment,cRDM,1.0,,,,1059.8235775999492,98,26,female,True,10598,10603,False,False,expiration,inspiration
394,0.11093900391111053,25,down,down,0.5836120999883859,1.3791522524182305,,experiment,cRDM,1.0,,,,1061.9902464000045,98,26,female,True,10619,10625,False,False,expiration,expiration
395,0.11093900391111053,25,down,down,0.6377045999979599,1.967393459976309,,experiment,cRDM,1.0,,,,1064.790157899959,98,26,female,True,10647,10653,False,False,inspiration,expiration
396,0.11093900391111053,25,down,down,1.1421355999773368,0.4661184319908671,,experiment,cRDM,1.0,,,,1066.1567529999884,98,26,female,True,10661,10672,False,False,expiration,inspiration
397,0.11093900391111053,25,up,up,0.5465482999570668,1.9036432590247847,,experiment,cRDM,1.0,,,,1069.4733066998888,98,26,female,True,10694,10699,False,False,expiration,expiration
398,0.11093900391111053,25,up,up,0.580943200038746,1.9385341293708112,,experiment,cRDM,1.0,,,,1072.2398992999224,98,26,female,True,10722,10728,False,False,expiration,expiration
399,0.11093900391111053,25,down,up,0.6334115000208841,1.7312344182670318,,experiment,cRDM,1.0,,,,1074.8064350999193,98,26,female,True,10747,10753,False,False,inspiration,peak
400,0.11093900391111053,25,down,down,0.8837830000557005,0.728819760945759,,experiment,cRDM,1.0,,,,1076.4230567999184,98,26,female,True,10764,10773,False,False,expiration,inspiration
401,0.11093900391111053,25,up,up,0.8119410999352112,1.8120144197307384,,experiment,cRDM,1.0,,,,1079.3729368998902,98,26,female,True,10793,10801,False,False,expiration,expiration
402,0.11093900391111053,25,up,up,0.6100499000167474,0.38012510882645983,,experiment,cRDM,1.0,,,,1080.8228033999912,98,26,female,True,10808,10814,False,False,inspiration,inspiration
403,0.11093900391111053,25,up,up,0.4167920000618324,0.4632877656282797,,experiment,cRDM,1.0,,,,1082.1561804999365,98,26,female,True,10821,10825,False,False,expiration,expiration
404,0.11093900391111053,25,up,up,0.4551260999869555,1.7383940122287764,,experiment,cRDM,1.0,,,,1084.57275079994,98,26,female,True,10845,10850,False,False,peak,expiration
405,0.11093900391111053,25,up,up,0.4631983999861404,1.285675924696276,,experiment,cRDM,1.0,,,,1086.5726799999832,98,26,female,True,10865,10870,False,False,inspiration,inspiration
406,0.11093900391111053,25,down,down,0.7561697999481112,0.8097341568031631,,experiment,cRDM,1.0,,,,1088.1226623998957,98,26,female,True,10881,10889,False,False,expiration,expiration
407,0.11093900391111053,25,down,down,0.8565955000231043,0.4014113312114447,,experiment,cRDM,1.0,,,,1089.5392552999547,98,26,female,True,10895,10904,False,False,inspiration,peak
408,0.11093900391111053,25,up,up,0.5727061000652611,1.7376168878582363,,experiment,cRDM,1.0,,,,1092.3891482999315,98,26,female,True,10923,10929,False,False,inspiration,inspiration
409,0.11093900391111053,25,down,down,0.6364953999873251,1.853206596082027,,experiment,cRDM,1.0,,,,1095.0723602999933,98,26,female,True,10950,10956,False,False,expiration,trough
410,0.11093900391111053,25,down,up,0.6146946999942884,1.7606183136056208,,experiment,cRDM,1.0,,,,1097.7221572999842,98,26,female,True,10977,10983,False,False,expiration,expiration
411,0.11093900391111053,25,down,up,0.6537022999254987,1.0780491541365191,,experiment,cRDM,1.0,,,,1099.6721503000008,98,26,female,True,10996,11003,False,False,inspiration,expiration
412,0.11093900391111053,25,up,up,0.5774252000264823,0.5094889792299253,,experiment,cRDM,1.0,,,,1101.105472199968,98,26,female,True,11010,11016,False,False,expiration,expiration
413,0.11093900391111053,25,down,up,0.6604546000016853,1.3641569374901248,,experiment,cRDM,1.0,,,,1103.3053802999202,98,26,female,True,11032,11039,False,False,inspiration,expiration
414,0.11093900391111053,25,down,up,0.6679139999905601,1.440412548312566,,experiment,cRDM,1.0,,,,1105.6719809999922,98,26,female,True,11056,11063,False,False,expiration,inspiration
415,0.11093900391111053,25,down,up,0.8236386000644416,1.344381166644753,,experiment,cRDM,1.0,,,,1107.955208899919,98,26,female,True,11079,11087,False,False,expiration,expiration
416,0.11093900391111053,25,up,up,0.6381167999934405,0.4834742098938445,,experiment,cRDM,1.0,,,,1109.5217392999914,98,26,female,True,11095,11101,False,False,inspiration,inspiration
417,0.11093900391111053,25,up,down,0.7933809000533074,0.4250195719671368,,experiment,cRDM,1.0,,,,1110.8384688999504,98,26,female,True,11108,11116,False,False,inspiration,expiration
418,0.11093900391111053,25,down,up,0.7954612999456003,0.6064724823754859,,experiment,cRDM,1.0,,,,1112.488410399994,98,26,female,True,11124,11132,False,False,expiration,inspiration
419,0.11093900391111053,25,up,up,0.7781766001135111,0.8192144652206139,,experiment,cRDM,1.0,,,,1114.3716709999137,98,26,female,True,11143,11151,False,False,inspiration,expiration
420,0.11093900391111053,25,down,up,1.2125976000679657,1.0340654333524617,,experiment,cRDM,1.0,,,,1116.4382685999153,98,26,female,True,11164,11176,False,False,expiration,inspiration
421,0.11093900391111053,25,up,up,0.6756913000717759,1.520866495666753,,experiment,cRDM,1.0,,,,1119.4381664999528,98,26,female,True,11194,11201,False,False,expiration,expiration
422,0.11093900391111053,25,up,down,1.3131633999291807,1.8308677854801536,,experiment,cRDM,1.0,,,,1122.2046874999069,98,26,female,True,11221,11234,False,False,expiration,expiration
423,109.0,25,M,up,1.1860046000219882,1.01760181373189,,experiment,emotion,1.0,,,,1127.9378170999698,98,26,female,True,11279,11291,False,False,inspiration,expiration
424,100.0,25,M,down,0.5799716999754311,1.6173249554362101,,experiment,emotion,1.0,,,,1131.0208791999612,98,26,female,True,11310,11316,False,False,inspiration,inspiration
425,106.0,25,F,down,0.6072429999476299,1.7431167873685032,,experiment,emotion,1.0,,,,1133.6376429999946,98,26,female,True,11336,11342,False,False,trough,peak
426,109.0,25,F,down,0.5683433000231162,1.886850018839334,,experiment,emotion,1.0,,,,1136.387512999936,98,26,female,True,11363,11369,False,False,expiration,expiration
427,106.0,25,M,up,0.8840495999902487,0.7327568363736171,,experiment,emotion,1.0,,,,1137.9707934999606,98,26,female,True,11379,11388,False,False,expiration,inspiration
428,103.0,25,F,up,0.6667629000730813,0.4222981541141462,,experiment,emotion,1.0,,,,1139.5540831999388,98,26,female,True,11395,11402,False,False,inspiration,expiration
429,100.0,25,M,up,0.5126000000163913,0.652119114684624,,experiment,emotion,1.0,,,,1141.1372531999366,98,26,female,True,11411,11416,False,False,expiration,expiration
430,103.0,25,M,up,0.8869326999410987,1.6787682108809332,,experiment,emotion,1.0,,,,1143.6039160999935,98,26,female,True,11435,11444,False,False,inspiration,expiration
431,109.0,25,F,up,0.6257543999236077,1.785294537144401,,experiment,emotion,1.0,,,,1146.537124699913,98,26,female,True,11465,11471,False,False,inspiration,inspiration
432,103.0,25,F,down,0.6068258000304922,1.2139814236874402,,experiment,emotion,1.0,,,,1148.6370582999664,98,26,female,True,11486,11492,False,False,expiration,expiration
433,106.0,25,F,down,0.8201861999696121,0.38266413119158615,,experiment,emotion,1.0,,,,1149.9036538999062,98,26,female,True,11498,11506,False,False,inspiration,peak
434,109.0,25,F,up,0.5602551000192761,1.658610637158943,,experiment,emotion,1.0,,,,1152.653588999994,98,26,female,True,11526,11532,False,False,inspiration,inspiration
435,106.0,25,F,up,0.4503760000225157,0.9695453085609044,,experiment,emotion,1.0,,,,1154.4535086998947,98,26,female,True,11544,11549,False,False,expiration,expiration
436,100.0,25,F,down,0.7574147999985144,1.862903448371644,,experiment,emotion,1.0,,,,1157.0534314999825,98,26,female,True,11570,11578,False,False,inspiration,expiration
437,103.0,25,M,up,0.7175692999735475,0.6173601250218375,,experiment,emotion,1.0,,,,1158.703280699905,98,26,female,True,11587,11594,False,False,expiration,inspiration
438,100.0,25,M,down,0.7912154999794438,0.3328038703960982,,experiment,emotion,1.0,,,,1160.0366409999554,98,26,female,True,11600,11608,False,False,inspiration,expiration
439,109.0,25,M,up,0.7952995999949053,1.5278344288237018,,experiment,emotion,1.0,,,,1162.6365451999009,98,26,female,True,11626,11634,False,False,inspiration,inspiration
440,100.0,25,M,down,1.074745699996129,1.0533682682777956,,experiment,emotion,1.0,,,,1164.7531204998959,98,26,female,True,11647,11658,False,False,expiration,trough
441,106.0,25,F,down,0.8378219999140128,1.7566195997411216,,experiment,emotion,1.0,,,,1167.8530157998905,98,26,female,True,11678,11686,False,False,expiration,expiration
442,106.0,25,M,down,0.7236143000191078,0.7155691295633773,,experiment,emotion,1.0,,,,1169.6862848999444,98,26,female,True,11696,11703,False,False,inspiration,peak
443,103.0,25,M,down,1.2109707000199703,0.5028231093562395,,experiment,emotion,1.0,,,,1171.2028718999354,98,26,female,True,11711,11723,False,False,expiration,inspiration
444,103.0,25,F,up,1.0050572999753058,1.792022432900272,,experiment,emotion,1.0,,,,1174.4527810999425,98,26,female,True,11744,11754,False,False,expiration,expiration
445,100.0,25,M,up,0.4951817999826744,1.805887544562704,,experiment,emotion,1.0,,,,1177.552658499917,98,26,female,True,11775,11780,False,False,expiration,expiration
446,109.0,25,F,up,0.5842943000607193,0.9681157841590848,,experiment,emotion,1.0,,,,1179.3025861999483,98,26,female,True,11792,11798,False,False,inspiration,peak
447,106.0,25,F,up,0.4593360000289977,1.5912116609276203,,experiment,emotion,1.0,,,,1181.7525295999367,98,26,female,True,11817,11822,False,False,expiration,expiration
448,100.0,25,M,up,1.1923904999857768,1.1715826318512683,,experiment,emotion,1.0,,,,1183.6524380999615,98,26,female,True,11836,11848,False,False,expiration,expiration
449,109.0,25,M,up,0.8688182999612764,0.7623491681837293,,experiment,emotion,1.0,,,,1185.8690225000028,98,26,female,True,11858,11867,False,False,expiration,inspiration
450,109.0,25,F,down,0.8372168999630958,1.3194927004671348,,experiment,emotion,1.0,,,,1188.3356032999,98,26,female,True,11883,11891,False,False,expiration,expiration
451,103.0,25,M,down,0.8697013000492007,0.3254818093253914,,experiment,emotion,1.0,,,,1189.8022019999335,98,26,female,True,11897,11906,False,False,expiration,inspiration
452,100.0,25,F,down,0.5277455000905321,0.9129286650823843,,experiment,emotion,1.0,,,,1191.8521196999354,98,26,female,True,11918,11923,False,False,expiration,expiration
453,103.0,25,F,down,0.4967986000701785,0.6372795039555383,,experiment,emotion,1.0,,,,1193.3020648999372,98,26,female,True,11932,11937,False,False,expiration,inspiration
454,106.0,25,F,down,0.7635180000215769,1.7525635621995352,,experiment,emotion,1.0,,,,1195.8353254999965,98,26,female,True,11958,11966,False,False,expiration,expiration
455,100.0,25,M,down,0.9483946999534963,1.843453173357818,,experiment,emotion,1.0,,,,1198.71842979989,98,26,female,True,11987,11996,False,False,expiration,expiration
456,109.0,25,M,down,0.8100340999662876,1.502676263721636,,experiment,emotion,1.0,,,,1201.4517825999064,98,26,female,True,12014,12022,False,False,inspiration,expiration
457,106.0,25,M,up,0.5824985000072047,1.7426621053104483,,experiment,emotion,1.0,,,,1204.2683598999865,98,26,female,True,12042,12048,False,False,inspiration,peak
458,109.0,25,F,up,0.7301709000021219,0.6772498570605445,,experiment,emotion,1.0,,,,1205.8016304000048,98,26,female,True,12057,12064,False,False,expiration,expiration
459,100.0,25,F,down,1.2216639000689609,1.9101004197122455,,experiment,emotion,1.0,,,,1208.718175299931,98,26,female,True,12087,12099,False,False,expiration,expiration
460,106.0,25,M,up,0.6327220000093803,0.4570144329477294,,experiment,emotion,1.0,,,,1210.6681121999866,98,26,female,True,12106,12112,False,False,inspiration,inspiration
461,103.0,25,F,down,0.6514843999175355,1.6636671820899582,,experiment,emotion,1.0,,,,1213.2513490999115,98,26,female,True,12132,12139,False,False,expiration,expiration
462,103.0,25,M,up,0.7062042000470683,1.0615160045665049,,experiment,emotion,1.0,,,,1215.234629899962,98,26,female,True,12152,12159,False,False,expiration,expiration
463,106.0,25,M,up,0.8496483000926673,1.1259155096921332,,experiment,emotion,1.0,,,,1217.3512028999396,98,26,female,True,12173,12181,False,False,inspiration,expiration
464,109.0,25,M,down,1.1163678000448272,0.9589555293751306,,experiment,emotion,1.0,,,,1219.4344635999296,98,26,female,True,12194,12205,False,False,expiration,expiration
465,103.0,25,F,down,1.0314757000887766,0.8668183205795224,,experiment,emotion,1.0,,,,1221.6843729999382,98,26,female,True,12216,12226,False,False,expiration,inspiration
466,100.0,25,F,up,0.8082894999533892,1.1294169748929292,,experiment,emotion,1.0,,,,1224.1175418999044,98,26,female,True,12241,12249,False,False,expiration,trough
467,100.0,25,M,up,0.9079647000180556,1.168319750863413,,experiment,emotion,1.0,,,,1226.3508666999405,98,26,female,True,12263,12272,False,False,expiration,expiration
468,103.0,25,F,down,0.6507125999778509,0.7929173094302749,,experiment,emotion,1.0,,,,1228.3341219999131,98,26,female,True,12283,12290,False,False,inspiration,inspiration
469,109.0,25,F,up,0.7352665000362322,1.338866457508271,,experiment,emotion,1.0,,,,1230.600564399967,98,26,female,True,12306,12313,False,False,expiration,expiration
470,106.0,25,M,up,0.9424999000038952,0.4437247502048619,,experiment,emotion,1.0,,,,1232.0673411999596,98,26,female,True,12320,12329,False,False,inspiration,expiration
471,100.0,25,M,down,0.80465019994881,1.6911821149479642,,experiment,emotion,1.0,,,,1234.9672074998962,98,26,female,True,12349,12357,False,False,inspiration,peak
472,109.0,25,F,down,0.8657084000296891,0.8200601666380416,,experiment,emotion,1.0,,,,1236.8671555999902,98,26,female,True,12368,12377,False,False,expiration,inspiration
473,106.0,25,M,up,0.7637370000593364,0.3566594354993708,,experiment,emotion,1.0,,,,1238.3670903999594,98,26,female,True,12383,12391,False,False,inspiration,expiration
474,106.0,25,F,up,0.8241710000438616,1.7398840460041136,,experiment,emotion,1.0,,,,1241.1336653999754,98,26,female,True,12411,12419,False,False,inspiration,peak
475,100.0,25,F,up,1.1403301999671385,1.804902789022886,,experiment,emotion,1.0,,,,1244.0335427999962,98,26,female,True,12440,12451,False,False,trough,inspiration
476,103.0,25,F,up,0.6657914000097662,1.9405789612685531,,experiment,emotion,1.0,,,,1247.4000714999854,98,26,female,True,12474,12481,False,False,inspiration,expiration
477,109.0,25,M,up,0.795458700042218,0.749960930170956,,experiment,emotion,1.0,,,,1249.083376799943,98,26,female,True,12490,12498,False,False,expiration,expiration
478,103.0,25,M,up,0.8682153000263497,1.2218731390310091,,experiment,emotion,1.0,,,,1251.3666154999519,98,26,female,True,12513,12522,False,False,expiration,expiration
479,103.0,25,F,up,0.9402714000316336,0.3439468391659168,,experiment,emotion,1.0,,,,1252.8665509999264,98,26,female,True,12528,12537,False,False,expiration,inspiration
480,103.0,25,F,up,0.9196561999851838,1.4136679555960543,,experiment,emotion,1.0,,,,1255.4831346999856,98,26,female,True,12554,12563,False,False,expiration,expiration
481,109.0,25,M,up,0.7651869000401348,0.7302677939898556,,experiment,emotion,1.0,,,,1257.3997037999798,98,26,female,True,12573,12581,False,False,inspiration,expiration
482,106.0,25,M,down,0.7307764000725001,0.9745604894834246,,experiment,emotion,1.0,,,,1259.43298459996,98,26,female,True,12594,12601,False,False,expiration,inspiration
483,100.0,25,M,down,0.6122817000141367,1.2563793493943285,,experiment,emotion,1.0,,,,1261.6995448999805,98,26,female,True,12616,12622,False,False,expiration,expiration
484,100.0,25,M,up,0.80064770008903,0.4947383834271394,,experiment,emotion,1.0,,,,1263.0662070999388,98,26,female,True,12630,12638,False,False,expiration,expiration
485,106.0,25,M,up,0.8014282999793068,1.918096676671036,,experiment,emotion,1.0,,,,1266.049400299904,98,26,female,True,12660,12668,False,False,expiration,expiration
486,109.0,25,F,down,0.8529448000481352,0.4918493680519712,,experiment,emotion,1.0,,,,1267.61591589998,98,26,female,True,12676,12685,False,False,expiration,inspiration
487,109.0,25,F,up,0.895874899928458,0.4295030088193723,,experiment,emotion,1.0,,,,1269.1659464999102,98,26,female,True,12691,12700,False,False,inspiration,expiration
488,100.0,25,M,up,0.4690115000121296,0.6906965237894532,,experiment,emotion,1.0,,,,1271.0158194999674,98,26,female,True,12710,12715,False,False,expiration,expiration
489,109.0,25,F,up,0.5546999999787658,0.7940581186246359,,experiment,emotion,1.0,,,,1272.549163299962,98,26,female,True,12725,12731,False,False,inspiration,inspiration
490,103.0,25,F,up,0.7447168000508101,0.6099292884966899,,experiment,emotion,1.0,,,,1273.9991043999325,98,26,female,True,12739,12746,False,False,expiration,expiration
491,106.0,25,F,up,0.6782387000275776,0.3991979457715956,,experiment,emotion,1.0,,,,1275.415622200002,98,26,female,True,12754,12761,False,False,inspiration,inspiration
492,103.0,25,M,up,0.5481352000497282,0.6848481314461247,,experiment,emotion,1.0,,,,1277.0656721999405,98,26,female,True,12770,12775,False,False,expiration,expiration
493,100.0,25,F,up,0.8335679000010714,0.6840278059143702,,experiment,emotion,1.0,,,,1278.5822688998887,98,26,female,True,12785,12793,False,False,inspiration,expiration
494,106.0,25,F,up,0.6279747999506071,1.6123267381424988,,experiment,emotion,1.0,,,,1281.298845799989,98,26,female,True,12812,12818,False,False,inspiration,inspiration
495,103.0,25,F,up,0.5891123999608681,0.4818398430545953,,experiment,emotion,1.0,,,,1282.6987779999615,98,26,female,True,12826,12832,False,False,expiration,expiration
496,106.0,25,M,up,0.5327135999687016,0.5289994767845296,,experiment,emotion,1.0,,,,1284.0820803999668,98,26,female,True,12840,12845,False,False,inspiration,inspiration
497,100.0,25,M,down,0.7391910000005737,1.512940935070506,,experiment,emotion,1.0,,,,1286.3986422999294,98,26,female,True,12863,12870,False,False,expiration,inspiration
498,109.0,25,F,down,0.5578670999966562,0.6188602810840009,,experiment,emotion,1.0,,,,1288.031940399902,98,26,female,True,12880,12886,False,False,inspiration,expiration
499,106.0,25,M,up,0.6773523000301793,1.894219532218049,,experiment,emotion,1.0,,,,1290.7484914999222,98,26,female,True,12907,12914,False,False,inspiration,expiration
500,109.0,25,F,up,0.8853975998936221,1.3561599513477247,,experiment,emotion,1.0,,,,1293.0484076999128,98,26,female,True,12930,12939,False,False,inspiration,peak
501,100.0,25,M,up,0.6379314999794587,0.9221848913446916,,experiment,emotion,1.0,,,,1295.1148872999474,98,26,female,True,12951,12957,False,False,expiration,trough
502,103.0,25,M,up,0.8318980999756604,0.9324376185679744,,experiment,emotion,1.0,,,,1296.964941199985,98,26,female,True,12969,12977,False,False,peak,expiration
503,0.11093900391111053,25,up,down,0.637298500048928,1.6534613570121888,,experiment,cRDM,2.0,,,,1315.7975548999384,98,26,female,True,13158,13164,False,False,peak,expiration
504,0.11093900391111053,25,up,up,0.5480145000619814,1.0828783929406904,,experiment,cRDM,2.0,,,,1317.780827099923,98,26,female,True,13177,13182,False,False,expiration,expiration
505,0.11093900391111053,25,down,down,0.8000708000035957,0.6474073710864854,,experiment,cRDM,2.0,,,,1319.2308141998947,98,26,female,True,13192,13200,False,False,inspiration,expiration
506,0.11093900391111053,25,down,up,0.702466499991715,1.1492136983435737,,experiment,cRDM,2.0,,,,1321.4473396999526,98,26,female,True,13214,13221,False,False,expiration,inspiration
507,0.11093900391111053,25,up,up,0.6658689000178128,1.3558206700745694,,experiment,cRDM,2.0,,,,1323.7639505999396,98,26,female,True,13237,13244,False,False,expiration,expiration
508,0.11093900391111053,25,down,up,0.6269366999622434,1.628742025546895,,experiment,cRDM,2.0,,,,1326.3139034999767,98,26,female,True,13263,13269,False,False,expiration,inspiration
509,0.11093900391111053,25,up,up,0.6740456999978051,0.8156013507418483,,experiment,cRDM,2.0,,,,1328.0138139999472,98,26,female,True,13280,13287,False,False,peak,expiration
510,0.11093900391111053,25,up,up,0.43784689996391535,1.4421337369564422,,experiment,cRDM,2.0,,,,1330.396925199893,98,26,female,True,13304,13308,False,False,expiration,expiration
511,0.11093900391111053,25,down,up,0.4335822999710217,1.4753078769912358,,experiment,cRDM,2.0,,,,1332.580267699901,98,26,female,True,13325,13329,False,False,inspiration,inspiration
512,0.11093900391111053,25,down,down,0.5505530999507755,1.30069400781524,,experiment,cRDM,2.0,,,,1334.5802396999204,98,26,female,True,13345,13351,False,False,expiration,expiration
513,0.11093900391111053,25,down,up,0.5023372999858111,1.1817818339247197,,experiment,cRDM,2.0,,,,1336.5634816999084,98,26,female,True,13365,13370,False,False,inspiration,expiration
514,0.11093900391111053,25,down,up,0.6927689000731334,1.4580011161813478,,experiment,cRDM,2.0,,,,1338.7800476999255,98,26,female,True,13387,13394,False,False,trough,inspiration
515,0.11093900391111053,25,down,up,0.5467834000010043,0.6913773307683533,,experiment,cRDM,2.0,,,,1340.4300323999487,98,26,female,True,13404,13409,False,False,peak,expiration
516,0.11093900391111053,25,down,down,0.7035241000121459,0.5154311553886061,,experiment,cRDM,2.0,,,,1341.7632769999327,98,26,female,True,13417,13424,False,False,expiration,expiration
517,0.11093900391111053,25,up,up,0.8312927999068052,0.5138857805193177,,experiment,cRDM,2.0,,,,1343.2465638999126,98,26,female,True,13432,13440,False,False,inspiration,inspiration
518,0.11093900391111053,25,up,up,0.6990130000049248,1.9388422185967928,,experiment,cRDM,2.0,,,,1346.2798034999287,98,26,female,True,13462,13469,False,False,expiration,expiration
519,0.11093900391111053,25,up,up,0.8690717000281438,1.7973989280067957,,experiment,cRDM,2.0,,,,1349.0297174999725,98,26,female,True,13490,13499,False,False,peak,expiration
520,0.11093900391111053,25,up,up,1.0258766000624746,1.5025353209426484,,experiment,cRDM,2.0,,,,1351.6629219999306,98,26,female,True,13516,13526,False,False,trough,inspiration
521,0.11093900391111053,25,down,up,0.8463030999992043,0.6843712302375549,,experiment,cRDM,2.0,,,,1353.6295371999734,98,26,female,True,13536,13544,False,False,expiration,expiration
522,0.11093900391111053,25,up,down,0.6130779999075457,1.927948790295292,,experiment,cRDM,2.0,,,,1356.662735599908,98,26,female,True,13566,13572,False,False,expiration,expiration
523,0.11093900391111053,25,up,up,0.5798573000356555,0.9533381081835202,,experiment,cRDM,2.0,,,,1358.495986099937,98,26,female,True,13584,13590,False,False,inspiration,expiration
524,0.11093900391111053,25,down,up,0.7453589000506327,1.1732953579887255,,experiment,cRDM,2.0,,,,1360.5124560999686,98,26,female,True,13605,13612,False,False,expiration,inspiration
525,0.11093900391111053,25,up,up,0.7990000999998301,0.5397001036166393,,experiment,cRDM,2.0,,,,1362.045871499926,98,26,female,True,13620,13628,False,False,inspiration,expiration
526,0.11093900391111053,25,down,up,0.421014399966225,1.5912110163640982,,experiment,cRDM,2.0,,,,1364.6957831999753,98,26,female,True,13646,13650,False,False,inspiration,inspiration
527,0.11093900391111053,25,down,down,0.4487395000178367,1.1508552289403335,,experiment,cRDM,2.0,,,,1366.5290693999268,98,26,female,True,13665,13669,False,False,peak,expiration
528,0.11093900391111053,25,up,up,0.5214957999996841,0.3091541751208359,,experiment,cRDM,2.0,,,,1367.562339899945,98,26,female,True,13675,13680,False,False,expiration,expiration
529,0.11093900391111053,25,up,up,0.724612099933438,1.5668623415406338,,experiment,cRDM,2.0,,,,1369.9121999999045,98,26,female,True,13699,13706,False,False,expiration,inspiration
530,0.11093900391111053,25,down,up,0.7699515999993309,1.8201073945248736,,experiment,cRDM,2.0,,,,1372.728838799987,98,26,female,True,13727,13735,False,False,expiration,expiration
531,0.11093900391111053,25,up,up,0.7240779000567272,1.0077234498616607,,experiment,cRDM,2.0,,,,1374.7787337999325,98,26,female,True,13747,13754,False,False,expiration,expiration
532,0.11093900391111053,25,down,down,0.9001489999936894,0.3167634036282589,,experiment,cRDM,2.0,,,,1376.0786889999872,98,26,female,True,13760,13769,False,False,inspiration,expiration
533,0.11093900391111053,25,down,down,0.7842431999742985,0.8415871168510953,,experiment,cRDM,2.0,,,,1378.0786069999451,98,26,female,True,13780,13788,False,False,expiration,expiration
534,0.11093900391111053,25,down,up,0.8588884999044241,0.6468435982111264,,experiment,cRDM,2.0,,,,1379.7618975999067,98,26,female,True,13797,13806,False,False,inspiration,expiration
535,0.11093900391111053,25,up,up,0.7317047999240458,0.9032022896513576,,experiment,cRDM,2.0,,,,1381.7951199999081,98,26,female,True,13817,13824,False,False,expiration,inspiration
536,0.11093900391111053,25,up,down,0.6757709999801591,1.411814738196272,,experiment,cRDM,2.0,,,,1384.1950399999039,98,26,female,True,13841,13848,False,False,expiration,expiration
