,stimLvl,stimTime,rand,response,rt,precedingITI,trialNumber,trialType,stimuli,block,estIntens,estThres,estSlope,trialStart,subject,age,gender,headRest,onset,responsI,manBadOnset,manBadRespons,onset_phase,respons_phase
0,150.0,100,F,,,1.7930341448038494,,introTrial,emotion,,,,,160.0989450000052,101,24,female,True,1600,0,False,False,expiration,0
1,0.9,100,down,,,0.9878596936935116,,introTrial,cRDM,,,,,165.03203509998275,101,24,female,True,1649,0,False,False,expiration,0
2,200.0,25,F,up,0.9097834999847692,1.4424898864676992,,tutorial,emotion,,,,,201.6640783000039,101,24,female,True,2016,2025,False,False,expiration,inspiration
3,200.0,25,F,up,0.5262372000142932,1.9320945188777945,,tutorial,emotion,,,,,204.78064549999542,101,24,female,True,2047,2052,False,False,expiration,inspiration
4,200.0,25,M,up,0.35016729999915697,1.9292530789752864,,tutorial,emotion,,,,,207.5305307999952,101,24,female,True,2074,2078,False,False,expiration,expiration
5,0.0,25,F,down,0.5240653999790084,0.8193643579596137,,tutorial,emotion,,,,,209.06378130000667,101,24,female,True,2090,2095,False,False,inspiration,expiration
6,0.0,25,M,down,0.4497515000111889,1.432627025128887,,tutorial,emotion,,,,,211.29709279999955,101,24,female,True,2112,2116,False,False,expiration,inspiration
7,200.0,25,M,up,0.4802219000121113,1.632949794741416,,tutorial,emotion,,,,,213.6636268000002,101,24,female,True,2135,2140,False,False,expiration,expiration
8,0.0,25,M,down,0.546925700007705,0.4028632538085318,,tutorial,emotion,,,,,214.79694929998368,101,24,female,True,2147,2152,False,False,inspiration,inspiration
9,200.0,25,M,up,0.4263640000135638,1.5518624430161814,,tutorial,emotion,,,,,217.1635021999828,101,24,female,True,2170,2174,False,False,expiration,expiration
10,0.0,25,F,down,1.4883823000127452,0.5018792818751352,,tutorial,emotion,,,,,218.3804642999894,101,24,female,True,2183,2198,False,False,inspiration,expiration
11,0.0,25,F,up,0.40018310002051294,1.956434047338237,,tutorial,emotion,,,,,222.113329099986,101,24,female,True,2220,2224,False,False,inspiration,inspiration
12,0.9,25,up,up,0.8123513000027742,0.9052309823469892,,tutorial,cRDM,,,,,234.02949829999127,101,24,female,True,2339,2347,False,False,trough,inspiration
13,0.9,25,up,down,0.7607419000123627,0.4259533744608025,,tutorial,cRDM,,,,,235.54610469998443,101,24,female,True,2354,2362,False,False,expiration,expiration
14,0.9,25,down,up,0.4527931000047829,1.6289944658252415,,tutorial,cRDM,,,,,238.1960528999916,101,24,female,True,2381,2386,False,False,expiration,expiration
15,0.9,25,down,up,0.6159983999968972,1.8116320412882645,,tutorial,cRDM,,,,,240.74589729998843,101,24,female,True,2406,2412,False,False,inspiration,peak
16,0.9,25,up,up,0.4953937999962363,0.43388401625895495,,tutorial,cRDM,,,,,242.06251299998257,101,24,female,True,2419,2424,False,False,expiration,expiration
17,0.9,25,down,down,0.4726773999864236,0.6482576223473351,,tutorial,cRDM,,,,,243.47916849999456,101,24,female,True,2434,2439,False,False,inspiration,inspiration
18,0.9,25,up,up,0.5394045999855734,1.3419076604305145,,tutorial,cRDM,,,,,245.56240049999906,101,24,female,True,2454,2459,False,False,expiration,expiration
19,0.9,25,up,up,0.4188575999869499,1.4176311294326764,,tutorial,cRDM,,,,,247.77900680000312,101,24,female,True,2477,2481,False,False,expiration,expiration
20,0.9,25,down,down,0.5266059999994468,1.1881395839641269,,tutorial,cRDM,,,,,249.66224249999505,101,24,female,True,2495,2500,False,False,inspiration,inspiration
21,0.9,25,down,down,0.5563788000144996,1.3410652010143715,,tutorial,cRDM,,,,,251.7955008999852,101,24,female,True,2517,2523,False,False,expiration,inspiration
22,100.0,25,M,up,0.7936357999860775,1.3291943277557046,,psi_staircase_training,emotion,,100.0,100.0,25.00050000000001,258.1792220000061,101,24,female,True,2581,2589,False,False,expiration,inspiration
23,55.0,25,M,down,0.8022585000144318,1.8403615290366668,,psi_staircase_training,emotion,,54.742809467541896,54.742809467541896,25.00050000000011,261.1785887999868,101,24,female,True,2611,2619,False,False,expiration,expiration
24,79.0,25,F,down,0.6087143000040669,0.5158444342971835,,psi_staircase_training,emotion,,79.636070985635,79.636070985635,25.71326925488641,262.8451495000045,101,24,female,True,2627,2633,False,False,inspiration,inspiration
25,103.0,25,F,down,0.3835078999982216,1.7876461615154726,,psi_staircase_training,emotion,,97.61123893914808,97.61123893914808,26.1463337262867,265.57838699998683,101,24,female,True,2655,2659,False,False,inspiration,inspiration
26,127.0,25,M,up,0.5812093999993522,0.8786796827038366,,psi_staircase_training,emotion,,117.15641007867752,117.15641007867752,31.432291447829705,267.21167499999865,101,24,female,True,2671,2677,False,False,expiration,expiration
27,116.0,25,F,up,0.4199210999940988,1.8548126101783948,,psi_staircase_training,emotion,,105.03864224082596,105.03864224082596,29.69406400548579,269.9949018000043,101,24,female,True,2699,2703,False,False,expiration,expiration
28,88.0,25,M,up,0.4169122999883257,0.8107555910239725,,psi_staircase_training,emotion,,98.16151255584974,98.16151255584974,27.87588470540113,271.59486369998194,101,24,female,True,2715,2719,False,False,expiration,inspiration
29,74.0,25,F,down,0.5097174000111409,1.6813822251477897,,psi_staircase_training,emotion,,88.18732141252634,88.18732141252634,31.080646395593387,274.028100800002,101,24,female,True,2739,2744,False,False,expiration,expiration
30,76.0,25,F,down,0.5141693000041414,0.6715347145452929,,psi_staircase_training,emotion,,92.88252185135836,92.88252185135836,29.457244424775986,275.56169410000444,101,24,female,True,2755,2760,False,False,inspiration,inspiration
31,112.0,25,M,up,0.748156999994535,1.2774278121443807,,psi_staircase_training,emotion,,96.17439572928065,96.17439572928065,28.02319218293509,277.6946517000033,101,24,female,True,2776,2783,False,False,expiration,inspiration
32,89.0,25,F,up,0.8013229999924079,0.8440547379145382,,psi_staircase_training,emotion,,93.03346523794521,93.03346523794521,26.248053615271047,279.6445479000104,101,24,female,True,2795,2803,False,False,expiration,expiration
33,71.0,25,F,up,0.3834899000066798,0.8160543871063606,,psi_staircase_training,emotion,,88.07556487901617,88.07556487901617,26.638375133391676,281.62783219999983,101,24,female,True,2815,2819,False,False,expiration,expiration
34,60.0,25,F,up,0.4831315999908838,1.3767982541800503,,psi_staircase_training,emotion,,81.69711549426911,81.69711549426911,32.21741401757639,283.77774869999854,101,24,female,True,2837,2842,False,False,expiration,expiration
35,52.0,25,M,up,0.538550800003577,1.0236430703777717,,psi_staircase_training,emotion,,74.69756705613307,74.69756705613307,36.177767812383536,285.6443527000083,101,24,female,True,2855,2860,False,False,trough,inspiration
36,46.0,25,M,up,0.33348760000080796,1.873186426447367,,psi_staircase_training,emotion,,67.81721367660954,67.81721367660954,38.85309314435516,288.394254999992,101,24,female,True,2883,2886,False,False,expiration,expiration
37,42.0,25,F,up,0.3001243000035174,0.8893936888361216,,psi_staircase_training,emotion,,61.295981644441284,61.295981644441284,40.674925924109274,290.0441961000033,101,24,female,True,2899,2902,False,False,inspiration,inspiration
38,38.0,25,F,up,0.2501708999916445,1.3284970275408343,,psi_staircase_training,emotion,,55.26501273987529,55.26501273987529,41.92401785125282,292.1441049999848,101,24,female,True,2920,2923,False,False,expiration,expiration
39,35.0,25,M,up,0.2501651000056881,1.5211251830515915,,psi_staircase_training,emotion,,49.630012433375036,49.630012433375036,42.84928485304968,294.44401979999384,101,24,female,True,2943,2946,False,False,expiration,expiration
40,32.0,25,M,up,0.23349700000835585,1.6296151740842453,,psi_staircase_training,emotion,,44.41981455592391,44.41981455592391,43.53846274768711,296.82726069999626,101,24,female,True,2967,2969,False,False,inspiration,inspiration
41,29.0,25,M,down,0.3336913000093773,0.8335817023728112,,psi_staircase_training,emotion,,39.5872485125752,39.5872485125752,44.071382207181216,298.4105376999942,101,24,female,True,2983,2986,False,False,expiration,expiration
42,30.0,25,M,down,0.3001681000168901,0.6179913730630391,,psi_staircase_training,emotion,,42.67466915628479,42.67466915628479,43.78148017568905,299.7938307999866,101,24,female,True,2997,3000,False,False,expiration,inspiration
43,32.0,25,F,down,0.2334885000018403,0.6485435077929332,,psi_staircase_training,emotion,,45.43952367823533,45.43952367823533,43.48880659520708,301.19378639999195,101,24,female,True,3011,3013,False,False,expiration,expiration
44,34.0,25,F,down,0.3336078000138514,1.3675034242012851,,psi_staircase_training,emotion,,47.96683505697667,47.96683505697667,43.20340675695021,303.3103437999962,101,24,female,True,3032,3035,False,False,expiration,trough
45,36.0,25,F,down,0.38380640000104893,1.8196259318716912,,psi_staircase_training,emotion,,50.28940863597864,50.28940863597864,42.92888178485719,305.89360360000865,101,24,female,True,3058,3062,False,False,expiration,expiration
46,38.0,25,M,down,0.28318689999287017,1.6240587503242412,,psi_staircase_training,emotion,,52.44011116691371,52.44011116691371,42.667847468298675,308.27716379999765,101,24,female,True,3082,3085,False,False,expiration,expiration
47,41.0,25,M,down,0.3002332000178285,1.8408895944329424,,psi_staircase_training,emotion,,54.44819743251875,54.44819743251875,42.422475506030935,310.89342149998987,101,24,female,True,3108,3111,False,False,inspiration,inspiration
48,47.0,25,F,down,0.3168637999915518,1.5616886824359766,,psi_staircase_training,emotion,,56.37781237739992,56.37781237739992,42.20308720011125,313.2266302999924,101,24,female,True,3131,3134,False,False,expiration,inspiration
49,75.0,25,F,down,0.28351649999967776,0.6619606419413169,,psi_staircase_training,emotion,,58.364244118928006,58.364244118928006,42.048419258169474,314.65992249999545,101,24,female,True,3145,3148,False,False,inspiration,expiration
50,78.0,25,M,down,0.25018820000696,1.4215234819036617,,psi_staircase_training,emotion,,61.381265139953356,61.381265139953356,42.49853191187528,316.8598442999937,101,24,female,True,3167,3170,False,False,expiration,trough
51,80.0,25,M,down,0.7150366000132635,0.9382997286876212,,psi_staircase_training,emotion,,64.29222912718625,64.29222912718625,42.92618037237364,318.5597895999963,101,24,female,True,3184,3191,False,False,expiration,expiration
52,0.29,25,up,up,0.4739522999734618,0.3800175544017238,,psi_staircase_training,cRDM,,0.25,0.25693124029946324,0.10500000000000002,323.34288370001013,101,24,female,True,3232,3237,False,False,inspiration,inspiration
53,0.25,25,up,down,0.462994700006675,0.4002667998456369,,psi_staircase_training,cRDM,,0.21910266653183127,0.2260132002683493,0.10468632033873933,324.49284249998163,101,24,female,True,3244,3249,False,False,expiration,expiration
54,0.36,25,down,up,0.2505338000191841,0.9213617155925218,,psi_staircase_training,cRDM,,0.3202997408361979,0.3276103223604739,0.1107465658214764,326.15943169998354,101,24,female,True,3260,3263,False,False,expiration,expiration
55,0.43,25,down,down,0.447773000021698,0.3825129157254145,,psi_staircase_training,cRDM,,0.3923744910111199,0.399460699682156,0.10734758546986332,327.2260865999852,101,24,female,True,3271,3275,False,False,inspiration,peak
56,0.42,25,up,up,0.5080746999883559,0.6409743302157288,,psi_staircase_training,cRDM,,0.3798855818941703,0.3870986840618793,0.1092698701656739,328.59273020000546,101,24,female,True,3285,3290,False,False,expiration,expiration
57,0.41,25,down,down,0.4002667000168003,0.9755664085545326,,psi_staircase_training,cRDM,,0.367671626369661,0.3749288789433721,0.10993869600779443,330.34260450000875,101,24,female,True,3302,3306,False,False,inspiration,peak
58,0.4,25,up,up,0.5457448000088334,1.9339629103122704,,psi_staircase_training,cRDM,,0.3556959873710901,0.3629517119809007,0.10991554918231697,332.976139699982,101,24,female,True,3329,3334,False,False,inspiration,inspiration
59,0.38,25,down,down,0.4350309999717865,0.8867286615608674,,psi_staircase_training,cRDM,,0.3437947038291127,0.35104268903042285,0.10979830640073174,334.67580500000616,101,24,female,True,3346,3350,False,False,expiration,expiration
60,0.35000000000000003,25,down,up,0.38383469998370856,1.9611147884998381,,psi_staircase_training,cRDM,,0.330039618891669,0.3374693330025544,0.11255128201274124,337.34235069999704,101,24,female,True,3372,3376,False,False,expiration,expiration
61,0.41,25,up,up,0.4388806000060868,0.9769999360424504,,psi_staircase_training,cRDM,,0.3735966710822738,0.37980393518870864,0.09403262663193664,339.00897460000124,101,24,female,True,3389,3393,False,False,inspiration,inspiration
62,0.4,25,down,up,0.41695070001878776,0.6483582268468218,,psi_staircase_training,cRDM,,0.3668836251399018,0.3727790321556506,0.08930836472392356,340.3756202000077,101,24,female,True,3403,3407,False,False,expiration,expiration
63,0.43,25,down,down,0.5206420999893453,0.8299254381854917,,psi_staircase_training,cRDM,,0.3971026671942929,0.4043666822925039,0.11004114016523392,341.89220639999263,101,24,female,True,3418,3423,False,False,inspiration,inspiration
64,0.43,25,down,down,0.41699990001507103,0.4076924147791224,,psi_staircase_training,cRDM,,0.390668851140472,0.3976941361867252,0.10642466542585596,343.09214940000675,101,24,female,True,3430,3434,False,False,expiration,expiration
65,0.43,25,up,up,0.5953834000101779,0.7842191190321535,,psi_staircase_training,cRDM,,0.3851893809389012,0.3919020163271691,0.101688397071259,344.5754643999972,101,24,female,True,3445,3451,False,False,trough,inspiration
66,0.43,25,up,up,0.6074703000194859,0.7330712345940193,,psi_staircase_training,cRDM,,0.38065453809160055,0.3870088065253731,0.09625956635752236,346.1753704999865,101,24,female,True,3461,3467,False,False,expiration,expiration
67,0.39,25,down,down,0.26714549999451265,0.950386834029771,,psi_staircase_training,cRDM,,0.3770129398650932,0.3829860954089099,0.09048616192823716,348.00865169998724,101,24,female,True,3479,3482,False,False,inspiration,inspiration
68,0.39,25,down,up,0.3340726000024006,1.5000303337157546,,psi_staircase_training,cRDM,,0.3687568174394528,0.3750966788346152,0.0960413169550039,350.2085511999903,101,24,female,True,3501,3504,False,False,expiration,expiration
69,0.43,25,up,down,0.3505314000067301,0.6167343180829716,,psi_staircase_training,cRDM,,0.3923521535583821,0.3979657191479564,0.0850388042311773,351.5251760999963,101,24,female,True,3514,3518,False,False,inspiration,inspiration
70,0.45,25,up,up,0.41702079999959096,0.5950491167823004,,psi_staircase_training,cRDM,,0.4094485477517071,0.41783522391262334,0.12704811243730868,352.808466699993,101,24,female,True,3527,3531,False,False,expiration,expiration
71,0.45,25,up,up,0.3505085000069812,0.6483570504676541,,psi_staircase_training,cRDM,,0.4047733820992439,0.4129484962985181,0.12384320177014535,354.1417202999874,101,24,female,True,3540,3544,False,False,inspiration,inspiration
72,0.45,25,up,up,0.3838228000095114,0.9150774666792416,,psi_staircase_training,cRDM,,0.40057157766573226,0.40848034465948574,0.11980836018748613,355.7583423999895,101,24,female,True,3557,3561,False,False,expiration,expiration
73,0.45,25,down,up,0.3838473999931011,1.3422541883910326,,psi_staircase_training,cRDM,,0.3968633965641954,0.4044640343278416,0.11514057090830487,357.7916147999931,101,24,female,True,3577,3581,False,False,inspiration,expiration
74,0.45,25,down,down,0.3005084000178613,0.7607192836909378,,psi_staircase_training,cRDM,,0.4141953887328685,0.4236294483009096,0.14291471826781404,359.258505899983,101,24,female,True,3592,3595,False,False,expiration,expiration
75,0.45,25,down,down,0.416990400000941,0.9396193948283462,,psi_staircase_training,cRDM,,0.4095372067659303,0.41891853083462105,0.14211583853019924,360.8915142999904,101,24,female,True,3608,3612,False,False,inspiration,expiration
76,0.45,25,up,up,0.4444729999813717,1.1466865594116922,,psi_staircase_training,cRDM,,0.40505330245396587,0.414343370362298,0.1407334168533169,362.7414201000065,101,24,female,True,3626,3630,False,False,expiration,inspiration
77,0.45,25,up,down,0.3672034999763128,0.4410344795214585,,psi_staircase_training,cRDM,,0.4007672683220741,0.4099328625356171,0.13884778926169133,363.8913859000022,101,24,female,True,3638,3642,False,False,inspiration,expiration
78,0.47,25,down,up,0.40026439999928703,0.7095710867628006,,psi_staircase_training,cRDM,,0.41805014307478056,0.42787024795265866,0.14876284295857525,365.29133680000086,101,24,female,True,3652,3656,False,False,expiration,expiration
79,0.46,25,down,down,0.4170044999918901,0.5997241045597612,,psi_staircase_training,cRDM,,0.4331525631748989,0.4432229184983149,0.1525538378810159,366.59129579999717,101,24,female,True,3665,3669,False,False,inspiration,inspiration
80,0.46,25,up,down,0.30051089997868985,0.7288384059901792,,psi_staircase_training,cRDM,,0.4294291696079587,0.4395486369993066,0.1532978269666694,368.0245609999984,101,24,female,True,3679,3682,False,False,expiration,expiration
81,0.46,25,up,down,0.4833385999954771,1.6452870597959757,,psi_staircase_training,cRDM,,0.4419110938108013,0.4519486328816044,0.1520567109058303,370.3745432999858,101,24,female,True,3703,3708,False,False,expiration,expiration
82,100.0,25,M,up,0.6099382000102196,1.0512061622877582,,psi_staircase,emotion,,100.0,100.0,25.00050000000001,379.3408913000021,101,24,female,True,3792,3798,False,False,inspiration,expiration
83,55.0,25,M,down,0.5533607999968808,0.4545565254609201,,psi_staircase,emotion,,54.742809467541896,54.742809467541896,25.00050000000011,380.75749630000786,101,24,female,True,3806,3812,False,False,expiration,expiration
84,79.0,25,F,down,0.38353449999704026,0.8029964609697156,,psi_staircase,emotion,,79.636070985635,79.636070985635,25.71326925488641,382.4574222000083,101,24,female,True,3823,3827,False,False,inspiration,peak
85,103.0,25,F,down,0.4169736999901943,1.8980608138987312,,psi_staircase,emotion,,97.61123893914808,97.61123893914808,26.1463337262867,385.12399239998194,101,24,female,True,3850,3854,False,False,inspiration,inspiration
86,127.0,25,M,up,0.4542187000042759,0.6682171486599355,,psi_staircase,emotion,,117.15641007867752,117.15641007867752,31.432291447829705,386.54062479999277,101,24,female,True,3864,3869,False,False,expiration,expiration
87,116.0,25,F,up,0.30015550000825897,0.4935009839626721,,psi_staircase,emotion,,105.03864224082596,105.03864224082596,29.69406400548579,387.84057629999006,101,24,female,True,3877,3880,False,False,expiration,inspiration
88,88.0,25,M,up,0.2835120999952778,1.3090746810827851,,psi_staircase,emotion,,98.16151255584974,98.16151255584974,27.87588470540113,389.90717739998945,101,24,female,True,3898,3901,False,False,expiration,expiration
89,74.0,25,F,up,0.3002048999769613,1.237512577728517,,psi_staircase,emotion,,88.18732141252634,88.18732141252634,31.080646395593387,391.92372389999224,101,24,female,True,3918,3921,False,False,inspiration,peak
90,62.0,25,F,down,0.28349070000695065,0.7496853481951142,,psi_staircase,emotion,,78.20249408374599,78.20249408374599,34.53297789346845,393.4403768999909,101,24,female,True,3933,3936,False,False,expiration,expiration
91,64.0,25,M,down,0.3001686000206973,1.6345986969389188,,psi_staircase,emotion,,82.8341718949967,82.8341718949967,33.25247293857655,395.84028599999147,101,24,female,True,3957,3960,False,False,expiration,expiration
92,104.0,25,F,down,0.2502165000187233,1.1739017382418844,,psi_staircase,emotion,,86.26677980576159,86.26677980576159,32.096587490511,397.77350469998777,101,24,female,True,3977,3980,False,False,inspiration,inspiration
93,115.0,25,F,down,0.2668394999927841,1.0373533418501375,,psi_staircase,emotion,,93.53908475381357,93.53908475381357,34.82408185385336,399.5568098000076,101,24,female,True,3994,3997,False,False,expiration,expiration
94,122.0,25,F,down,0.2667403999948874,1.323326765536561,,psi_staircase,emotion,,100.77712984848569,100.77712984848569,37.358666665508416,401.65681230000337,101,24,female,True,4015,4018,False,False,inspiration,expiration
95,127.0,25,M,up,0.28342809999594465,1.7805370774401104,,psi_staircase,emotion,,107.68069254191157,107.68069254191157,39.284384060066564,404.19007360000984,101,24,female,True,4041,4044,False,False,inspiration,inspiration
96,126.0,25,M,up,0.3002081999729853,1.9466161565129128,,psi_staircase,emotion,,104.68239237502009,104.68239237502009,38.62942223852464,406.88988480000984,101,24,female,True,4068,4071,False,False,expiration,expiration
97,124.0,25,F,up,0.2668408999743406,0.6134039008312594,,psi_staircase,emotion,,102.16553268887512,102.16553268887512,38.00814983260763,408.27315239998285,101,24,female,True,4082,4085,False,False,inspiration,expiration
98,77.0,25,F,up,0.3168200000072829,0.9597839919782324,,psi_staircase,emotion,,99.94828145494566,99.94828145494566,37.42387942554427,410.0064283999963,101,24,female,True,4099,4102,False,False,expiration,expiration
99,73.0,25,M,down,0.6295385999837889,1.3038401362037315,,psi_staircase,emotion,,94.7339779200718,94.7339779200718,39.0713479414251,412.0563368999865,101,24,female,True,4119,4125,False,False,expiration,expiration
100,74.0,25,M,down,0.3168429999786895,1.845269937622968,,psi_staircase,emotion,,96.78738277844326,96.78738277844326,38.54442460847192,414.8895866000094,101,24,female,True,4148,4151,False,False,inspiration,inspiration
101,124.0,25,M,down,0.2835011999995913,1.018272265588808,,psi_staircase,emotion,,98.61356206505432,98.61356206505432,38.03604245353577,416.65617790000397,101,24,female,True,4165,4168,False,False,expiration,expiration
102,127.0,25,M,down,0.5770254000090063,0.6099299334773003,,psi_staircase,emotion,,103.23105367376823,103.23105367376823,39.671717413434074,418.02279139999877,101,24,female,True,4179,4185,False,False,inspiration,peak
103,130.0,25,F,up,0.3834824000077788,0.36402372539135786,,psi_staircase,emotion,,107.60479344670269,107.60479344670269,40.90925387336939,419.3061056000006,101,24,female,True,4192,4196,False,False,expiration,expiration
104,129.0,25,F,up,0.3002148999948986,1.589294795307316,,psi_staircase,emotion,,105.83499500756012,105.83499500756012,40.49167518485885,421.6725911000103,101,24,female,True,4216,4219,False,False,peak,expiration
105,128.0,25,F,up,0.28350140000111423,0.44300594967384377,,psi_staircase,emotion,,104.22276849416008,104.22276849416008,40.08417971707604,422.90595260000566,101,24,female,True,4228,4231,False,False,expiration,expiration
106,77.0,25,M,up,0.23360649999813174,0.914296807546225,,psi_staircase,emotion,,102.74296772413177,102.74296772413177,39.68721691844036,424.58923270000383,101,24,female,True,4245,4247,False,False,inspiration,expiration
107,75.0,25,M,down,0.5156462000159081,1.9322855744588647,,psi_staircase,emotion,,99.014270436369,99.014270436369,40.892376517485935,427.28914899998927,101,24,female,True,4272,4277,False,False,inspiration,inspiration
108,76.0,25,F,down,0.366908500000136,1.7093057467377932,,psi_staircase,emotion,,100.42034177855257,100.42034177855257,40.52313749539175,429.87236079998553,101,24,female,True,4298,4302,False,False,expiration,expiration
109,129.0,25,F,down,0.4002021999913268,0.7394623655525759,,psi_staircase,emotion,,101.7297896888204,101.7297896888204,40.159970294141424,431.3726415999991,101,24,female,True,4313,4317,False,False,inspiration,expiration
110,130.0,25,M,up,0.491869499994209,0.4574411907019345,,psi_staircase,emotion,,105.13172864864909,105.13172864864909,41.30675952353665,432.5889416999999,101,24,female,True,4325,4330,False,False,expiration,expiration
111,129.0,25,M,up,0.5496689999999944,1.1420858326962742,,psi_staircase,emotion,,103.8818372763447,103.8818372763447,40.96902598373779,434.5721820000035,101,24,female,True,4345,4350,False,False,inspiration,expiration
112,75.0,25,F,up,0.33351529997889884,1.8762284156875333,,psi_staircase,emotion,,102.70722925576788,102.70722925576788,40.636273928062955,437.338751400006,101,24,female,True,4372,4375,False,False,inspiration,inspiration
113,75.0,25,M,down,0.5651858999917749,1.1530797451560155,,psi_staircase,emotion,,99.60479215389364,99.60479215389364,41.687230765159725,439.23867630001035,101,24,female,True,4391,4397,False,False,expiration,expiration
114,75.0,25,F,down,0.3835071999928914,0.7713685138853656,,psi_staircase,emotion,,100.75378329871364,100.75378329871364,41.382986114032505,440.9052956000087,101,24,female,True,4408,4412,False,False,inspiration,peak
115,130.0,25,M,down,0.3335221000015736,0.3564144873877165,,psi_staircase,emotion,,101.81692598881159,101.81692598881159,41.07902465057865,442.021926699992,101,24,female,True,4419,4422,False,False,expiration,expiration
116,130.0,25,F,up,0.4946750999952201,1.8950602322707888,,psi_staircase,emotion,,104.67199652567564,104.67199652567564,42.04610572762967,444.67213980000815,101,24,female,True,4446,4451,False,False,expiration,expiration
117,130.0,25,M,up,0.33348090000799857,1.114042022325498,,psi_staircase,emotion,,103.62717120787914,103.62717120787914,41.76408811328682,446.62175359998946,101,24,female,True,4465,4468,False,False,inspiration,inspiration
118,75.0,25,F,down,0.5287601999880279,1.165279008249126,,psi_staircase,emotion,,102.6544232542684,102.6544232542684,41.482058469492884,448.55499720000086,101,24,female,True,4484,4489,False,False,expiration,expiration
119,133.0,25,M,up,0.5845476999820676,1.9012769989564275,,psi_staircase,emotion,,103.56579706246492,103.56579706246492,41.183511962682225,451.33823619998293,101,24,female,True,4512,4518,False,False,expiration,expiration
120,72.0,25,M,down,0.5086374999955297,0.36161127800105997,,psi_staircase,emotion,,102.72652373125904,102.72652373125904,40.87287177458638,452.638175800006,101,24,female,True,4525,4530,False,False,expiration,inspiration
121,135.0,25,F,up,0.5310479000036139,1.3065484248228378,,psi_staircase,emotion,,103.51220836887823,103.51220836887823,40.547274777093655,454.8047929999884,101,24,female,True,4547,4552,False,False,expiration,expiration
122,70.0,25,F,down,0.4574676000047475,1.5879260414895129,,psi_staircase,emotion,,102.77097221401144,102.77097221401144,40.21244412926567,457.27136849999084,101,24,female,True,4572,4577,False,False,expiration,expiration
123,137.0,25,F,up,0.6488645000208635,1.700574812935968,,psi_staircase,emotion,,103.46485261282335,103.46485261282335,39.86428140597053,459.7879406999855,101,24,female,True,4597,4603,False,False,inspiration,expiration
124,69.0,25,M,down,0.7979333000257611,0.6510345490309039,,psi_staircase,emotion,,102.81198616756431,102.81198616756431,39.5089872509711,461.43784949998366,101,24,female,True,4613,4621,False,False,expiration,expiration
125,138.0,25,M,up,0.5856973999761976,0.54690424228874,,psi_staircase,emotion,,103.44102283010568,103.44102283010568,39.140790193132155,463.1211487999826,101,24,female,True,4630,4636,False,False,inspiration,expiration
126,68.0,25,F,down,0.5207993000221904,1.16300620204997,,psi_staircase,emotion,,102.85049285859292,102.85049285859292,38.767603384983204,465.22106929999427,101,24,female,True,4651,4656,False,False,expiration,inspiration
127,139.0,25,F,up,0.7068509999953676,1.1416600278515043,,psi_staircase,emotion,,103.41984160007556,103.41984160007556,38.3828438023039,467.2209937000007,101,24,female,True,4671,4678,False,False,expiration,expiration
128,67.0,25,F,down,0.5665450000087731,0.8287318155358505,,psi_staircase,emotion,,102.88676478627865,102.88676478627865,37.99570427392758,469.1042675999925,101,24,female,True,4690,4696,False,False,inspiration,peak
129,140.0,25,M,up,0.5083297000091989,1.423895032164749,,psi_staircase,emotion,,103.40116513260534,103.40116513260534,37.59885771740152,471.4374954999949,101,24,female,True,4713,4718,False,False,expiration,inspiration
130,67.0,25,M,down,0.4001778999809176,1.2460379516969684,,psi_staircase,emotion,,102.92098909835647,102.92098909835647,37.20259614776743,473.52077489998186,101,24,female,True,4734,4738,False,False,expiration,expiration
131,140.0,25,M,up,0.4635319000226446,0.7677845298102415,,psi_staircase,emotion,,103.39997677234369,103.39997677234369,36.79479516068879,475.0373406999861,101,24,female,True,4749,4754,False,False,inspiration,inspiration
132,0.29,25,up,up,0.5991251000086777,1.499902749982544,,psi_staircase,cRDM,,0.25,0.25693124029946324,0.10500000000000002,480.9537722000096,101,24,female,True,4809,4815,False,False,expiration,inspiration
133,0.25,25,up,down,0.4173071999975946,1.5301785453040628,,psi_staircase,cRDM,,0.21910266653183127,0.2260132002683493,0.10468632033873933,483.33699829998665,101,24,female,True,4832,4836,False,False,expiration,expiration
134,0.36,25,down,up,0.3674362000019755,1.787670968072731,,psi_staircase,cRDM,,0.3202997408361979,0.3276103223604739,0.1107465658214764,485.82022590001,101,24,female,True,4857,4861,False,False,expiration,expiration
135,0.43,25,down,down,0.3338723999913782,1.80445035693679,,psi_staircase,cRDM,,0.3923744910111199,0.399460699682156,0.10734758546986332,488.3035002999823,101,24,female,True,4882,4885,False,False,inspiration,inspiration
136,0.42,25,up,up,0.4543090999941342,1.1492058856934269,,psi_staircase,cRDM,,0.3798855818941703,0.3870986840618793,0.1092698701656739,490.15347019999166,101,24,female,True,4901,4906,False,False,expiration,expiration
137,0.41,25,down,down,0.3504816000058781,1.0836367680559005,,psi_staircase,cRDM,,0.367671626369661,0.3749288789433721,0.10993869600779443,491.95335920000804,101,24,female,True,4919,4923,False,False,inspiration,expiration
138,0.4,25,up,up,0.4662340999930166,1.5123409320053112,,psi_staircase,cRDM,,0.3556959873710901,0.3629517119809007,0.10991554918231697,494.1365950999898,101,24,female,True,4940,4945,False,False,expiration,inspiration
139,0.38,25,down,down,0.41691790000186296,1.8551377321491491,,psi_staircase,cRDM,,0.3437947038291127,0.35104268903042285,0.10979830640073174,496.7198390999984,101,24,female,True,4966,4970,False,False,expiration,expiration
140,0.35000000000000003,25,down,down,0.4586902000010014,1.4007193182230095,,psi_staircase,cRDM,,0.330039618891669,0.3374693330025544,0.11255128201274124,498.80309410000336,101,24,female,True,4987,4992,False,False,expiration,expiration
141,0.34,25,up,down,0.3504504000011366,1.36169042633201,,psi_staircase,cRDM,,0.313043440250402,0.320950160439769,0.1197773535492376,500.88636579999,101,24,female,True,5008,5012,False,False,inspiration,inspiration
142,0.4,25,down,up,0.5011932000052184,0.6557391172955458,,psi_staircase,cRDM,,0.3618261207777183,0.3687126112763926,0.1043220940438037,502.21963569999207,101,24,female,True,5021,5026,False,False,expiration,expiration
143,0.44,25,down,down,0.5065839999879245,0.8063903636521312,,psi_staircase,cRDM,,0.39596359555030536,0.4038206682468416,0.11902525341679306,503.786254000006,101,24,female,True,5037,5042,False,False,inspiration,inspiration
144,0.43,25,down,down,0.4359849999891594,1.6433137699772808,,psi_staircase,cRDM,,0.3892353105952601,0.39692675979670505,0.1165162555703422,506.20282999999466,101,24,female,True,5061,5065,False,False,expiration,expiration
145,0.43,25,up,up,0.4307907999900635,1.8336650578028983,,psi_staircase,cRDM,,0.38284318359929065,0.3903309498534137,0.1134307025459504,508.7360515999899,101,24,female,True,5086,5090,False,False,expiration,expiration
146,0.43,25,up,up,0.4421636000042781,1.0594956025634443,,psi_staircase,cRDM,,0.3773230814325863,0.38454493478248336,0.10940244010843356,510.50266609998647,101,24,female,True,5104,5108,False,False,inspiration,inspiration
147,0.39,25,down,down,0.5825275999959558,1.8514775303303883,,psi_staircase,cRDM,,0.37266477961952,0.37958003004535495,0.10475777254020648,513.0693004000059,101,24,female,True,5130,5136,False,False,inspiration,inspiration
148,0.38,25,down,down,0.4862881999870297,0.3938766772945245,,psi_staircase,cRDM,,0.36344108039843465,0.37073573070089794,0.11050522686653386,514.3025400000042,101,24,female,True,5142,5147,False,False,expiration,expiration
149,0.38,25,up,up,0.5296279999893159,1.7193404111826758,,psi_staircase,cRDM,,0.35349186849760617,0.361205785928144,0.11685662236658945,516.7691182999988,101,24,female,True,5167,5172,False,False,expiration,expiration
150,0.38,25,up,down,0.4217844000086188,1.8004444629560077,,psi_staircase,cRDM,,0.3439086318838596,0.3519056607619476,0.12114542216409148,519.3690184000006,101,24,female,True,5193,5197,False,False,inspiration,expiration
151,0.43,25,up,down,0.3671179999946617,0.4030560920253993,,psi_staircase,cRDM,,0.37394417471145375,0.3814021422121479,0.11297928707413618,520.4689933999907,101,24,female,True,5204,5208,False,False,expiration,expiration
152,0.45,25,up,down,0.3338518000091426,1.9768795314338825,,psi_staircase,cRDM,,0.3945557345557309,0.4038610720174385,0.14096473232286652,523.1355439999897,101,24,female,True,5230,5233,False,False,expiration,expiration
153,0.45,25,down,down,0.31713500001933426,0.9283780582435924,,psi_staircase,cRDM,,0.4163404326472651,0.4262175036425159,0.1496258114989376,524.7354810999823,101,24,female,True,5246,5249,False,False,expiration,inspiration
154,0.45,25,down,down,0.36712889999034815,0.9418205935057764,,psi_staircase,cRDM,,0.411038081942882,0.4209800201047166,0.15060847148431306,526.3687629000051,101,24,female,True,5263,5267,False,False,expiration,expiration
155,0.45,25,down,down,0.3337776999978814,1.847713653459836,,psi_staircase,cRDM,,0.4058845404145984,0.4158464415875235,0.15091088722434606,528.9020114000014,101,24,female,True,5288,5291,False,False,inspiration,inspiration
156,0.46,25,up,up,0.5839444999874104,1.8993278296691483,,psi_staircase,cRDM,,0.4008757144813909,0.4108227380615754,0.15068550948958745,531.4688374999969,101,24,female,True,5314,5320,False,False,inspiration,inspiration
157,0.46,25,up,up,0.4917178000032436,1.4139575594600056,,psi_staircase,cRDM,,0.3963237537720005,0.4062050215985745,0.1496893884736071,533.7351256999826,101,24,female,True,5336,5341,False,False,expiration,expiration
158,0.42,25,down,down,0.31717149997712113,1.9059010489232335,,psi_staircase,cRDM,,0.391939788208262,0.4017363100157942,0.14840558765081807,536.4017060000042,101,24,female,True,5363,5366,False,False,expiration,expiration
159,0.43,25,down,down,0.3840464999957476,1.7841191097210116,,psi_staircase,cRDM,,0.38632527516131016,0.39616213985512494,0.1490167341234061,538.8683027999941,101,24,female,True,5388,5392,False,False,inspiration,peak
160,0.44,25,up,down,0.4272813000134192,0.7154902264762673,,psi_staircase,cRDM,,0.3812033809567687,0.39100982503582826,0.14855589819631435,540.2685404999938,101,24,female,True,5402,5406,False,False,expiration,expiration
161,0.47,25,up,up,0.4389649000077043,1.0814108772750308,,psi_staircase,cRDM,,0.40086232953141065,0.4110149327962632,0.15379979581606354,542.0348441000096,101,24,female,True,5419,5423,False,False,inspiration,inspiration
162,0.42,25,down,down,0.4934614000085276,1.9336733340057757,,psi_staircase,cRDM,,0.3970324684593429,0.40711247000254497,0.1526999665728195,544.6683626000013,101,24,female,True,5446,5451,False,False,inspiration,inspiration
163,0.42,25,up,up,0.4664909999992233,1.583455416570256,,psi_staircase,cRDM,,0.3918817259539129,0.4020209083437856,0.15359648561298175,547.0013317999836,101,24,female,True,5469,5474,False,False,expiration,expiration
164,0.43,25,down,down,0.2838262999721337,1.4215591127354408,,psi_staircase,cRDM,,0.38681629209877577,0.3969905468271497,0.154127789590845,549.1512249000081,101,24,female,True,5490,5493,False,False,expiration,expiration
165,0.43,25,up,down,0.4619596000120509,0.8829015214199563,,psi_staircase,cRDM,,0.3820887289433863,0.3922568141761323,0.15403432911148907,550.7178620999912,101,24,female,True,5506,5511,False,False,expiration,expiration
166,0.48,25,down,down,0.4740041000186466,0.5806039348233175,,psi_staircase,cRDM,,0.3997265097630812,0.4099668859678829,0.15512945087006227,552.0178125000093,101,24,female,True,5519,5524,False,False,inspiration,expiration
167,0.48,25,up,up,0.4790381999919191,1.207017553702541,,psi_staircase,cRDM,,0.3964504809840517,0.4066092941209837,0.15389386795036605,553.9677553999936,101,24,female,True,5539,5544,False,False,expiration,expiration
168,0.42,25,down,down,0.3171512999979313,1.4994505710122268,,psi_staircase,cRDM,,0.3932731488840713,0.40334621491471184,0.15259490185315838,556.2176519999921,101,24,female,True,5561,5564,False,False,expiration,expiration
169,0.42,25,up,down,0.31717170000774786,0.8724031833438655,,psi_staircase,cRDM,,0.3886240559885091,0.3987519682560144,0.1534257567394415,557.7676077999931,101,24,female,True,5577,5580,False,False,inspiration,inspiration
170,0.48,25,up,down,0.3671443999919575,1.1595109994889403,,psi_staircase,cRDM,,0.40394518373847627,0.4139538374783112,0.151619132691742,559.6008741999976,101,24,female,True,5595,5599,False,False,expiration,expiration
171,0.55,25,down,down,0.35045379999792203,0.8928924558262028,,psi_staircase,cRDM,,0.4180958340388404,0.4285824055291007,0.15885901496772453,561.1674882000078,101,24,female,True,5611,5615,False,False,inspiration,inspiration
172,0.54,25,down,down,0.3505223999964073,0.8092992670165611,,psi_staircase,cRDM,,0.4162475073483671,0.426629833375239,0.15727982088659762,562.6507278000063,101,24,female,True,5625,5629,False,False,expiration,expiration
173,0.54,25,down,down,0.3838084999879357,1.2062523201521034,,psi_staircase,cRDM,,0.4143012640312105,0.42458158480980135,0.1557345633847999,564.5340167999966,101,24,female,True,5644,5648,False,False,trough,inspiration
174,0.53,25,up,up,0.4974632000084966,0.5494337541781759,,psi_staircase,cRDM,,0.4124040666780088,0.4225823647584927,0.15418904153901086,565.7673322999908,101,24,female,True,5657,5662,False,False,expiration,expiration
175,0.53,25,up,down,0.8069145000190474,1.5064616347843724,,psi_staircase,cRDM,,0.4104104081454165,0.4204899607484309,0.1526931656659583,568.0338883000078,101,24,female,True,5679,5687,False,False,trough,inspiration
176,0.5700000000000001,25,down,down,0.4823066999961157,1.2500323143203695,,psi_staircase,cRDM,,0.4237246469617355,0.4344827813122709,0.1629728674814076,570.3504894000071,101,24,female,True,5702,5707,False,False,expiration,expiration
177,0.5700000000000001,25,down,up,0.5337300999963189,1.1140621454088773,,psi_staircase,cRDM,,0.42222425539486297,0.4328859226866458,0.161511506926673,572.2170717999978,101,24,female,True,5721,5726,False,False,inspiration,expiration
178,0.59,25,down,down,0.5801666000043042,1.967099080597036,,psi_staircase,cRDM,,0.4340730859114753,0.445514850319058,0.17332904514783876,574.9836234999822,101,24,female,True,5749,5755,False,False,inspiration,inspiration
179,0.59,25,up,down,0.3004803000076208,1.8706896527174124,,psi_staircase,cRDM,,0.4327734670107997,0.44413254529624907,0.1720764492993469,577.6835690999869,101,24,female,True,5776,5779,False,False,inspiration,inspiration
180,0.6,25,up,down,0.3671908999967855,0.4719365903874089,,psi_staircase,cRDM,,0.4430865542496251,0.4551214380132372,0.1823140939547469,578.850133400003,101,24,female,True,5787,5791,False,False,peak,expiration
181,0.6,25,up,up,0.5837213999766391,1.6352462904892633,,psi_staircase,cRDM,,0.4519109876802606,0.4644165496754196,0.1894443061789936,581.1500704000064,101,24,female,True,5810,5816,False,False,inspiration,inspiration
182,117.0,25,F,up,0.8050330999831203,0.3403931870091791,,experiment,emotion,0.0,,,,585.5499562000041,101,24,female,True,5854,5862,False,False,expiration,expiration
183,88.0,25,M,down,0.6056069999758621,1.1465311110247476,,experiment,emotion,0.0,,,,587.7832422000065,101,24,female,True,5877,5883,False,False,inspiration,peak
184,107.0,25,F,down,0.5240293999959249,1.2763243005679163,,experiment,emotion,0.0,,,,589.9497935999825,101,24,female,True,5898,5903,False,False,expiration,expiration
185,117.0,25,M,down,0.44938040000852203,1.2633672932991311,,experiment,emotion,0.0,,,,592.016389299999,101,24,female,True,5919,5923,False,False,expiration,expiration
186,107.0,25,F,up,0.7625466999888886,1.941205013841969,,experiment,emotion,0.0,,,,594.6662943999983,101,24,female,True,5946,5954,False,False,inspiration,expiration
187,98.0,25,F,down,0.5089866000053007,1.7259206648291334,,experiment,emotion,0.0,,,,597.432865299983,101,24,female,True,5973,5978,False,False,inspiration,inspiration
188,88.0,25,M,down,0.41695240000262856,1.9762449251532583,,experiment,emotion,0.0,,,,600.1827799000022,101,24,female,True,6001,6005,False,False,trough,inspiration
189,98.0,25,F,down,0.3168485999922268,1.2665533966986764,,experiment,emotion,0.0,,,,602.1493594000058,101,24,female,True,6020,6023,False,False,expiration,expiration
190,117.0,25,M,down,0.4001958000008017,1.3651367041170186,,experiment,emotion,0.0,,,,604.1992884000065,101,24,female,True,6041,6045,False,False,inspiration,inspiration
191,98.0,25,M,down,0.4852009000023827,1.5960692632873137,,experiment,emotion,0.0,,,,606.4825781999971,101,24,female,True,6064,6069,False,False,expiration,expiration
192,107.0,25,F,down,0.28350290001253603,0.8823051512352225,,experiment,emotion,0.0,,,,608.1491477999953,101,24,female,True,6080,6083,False,False,inspiration,expiration
193,117.0,25,M,down,0.2668296000047121,1.429821534780268,,experiment,emotion,0.0,,,,610.2824134999828,101,24,female,True,6102,6105,False,False,expiration,trough
194,107.0,25,M,down,0.28350160000263713,1.6230869770310938,,experiment,emotion,0.0,,,,612.598985699995,101,24,female,True,6125,6128,False,False,expiration,expiration
195,88.0,25,M,down,0.21651299999211915,1.865150325703864,,experiment,emotion,0.0,,,,615.1658787000051,101,24,female,True,6151,6153,False,False,inspiration,inspiration
196,98.0,25,F,up,0.3168526999943424,0.5930015631362329,,experiment,emotion,0.0,,,,616.4654907000076,101,24,female,True,6164,6167,False,False,expiration,expiration
197,88.0,25,F,down,0.3668197999941185,1.1388641934615882,,experiment,emotion,0.0,,,,618.2987945000059,101,24,female,True,6182,6186,False,False,inspiration,expiration
198,117.0,25,M,down,0.2501993000041693,1.3498135919637495,,experiment,emotion,0.0,,,,620.3320013000048,101,24,female,True,6202,6205,False,False,expiration,expiration
199,88.0,25,M,down,0.3335032999748364,1.9664055189367224,,experiment,emotion,0.0,,,,622.9819420999847,101,24,female,True,6229,6232,False,False,expiration,expiration
200,107.0,25,F,down,0.2501940999936778,1.220596760838644,,experiment,emotion,0.0,,,,624.9151915999828,101,24,female,True,6248,6251,False,False,inspiration,inspiration
201,107.0,25,F,down,0.23350239999126646,1.0291202259618777,,experiment,emotion,0.0,,,,626.6151380999945,101,24,female,True,6265,6267,False,False,expiration,expiration
202,98.0,25,M,down,0.3001627000048757,0.4977158107224338,,experiment,emotion,0.0,,,,627.7984330999898,101,24,female,True,6277,6280,False,False,inspiration,inspiration
203,98.0,25,F,down,0.3336514999973588,1.5407336891202803,,experiment,emotion,0.0,,,,630.0316794999818,101,24,female,True,6299,6302,False,False,expiration,expiration
204,88.0,25,M,down,0.5452644000179134,1.6943467058151331,,experiment,emotion,0.0,,,,632.431555099989,101,24,female,True,6323,6328,False,False,inspiration,expiration
205,117.0,25,F,up,0.9239522000134456,1.9589089695998405,,experiment,emotion,0.0,,,,635.2148340999847,101,24,female,True,6351,6360,False,False,trough,inspiration
206,107.0,25,F,down,0.6647090000042226,0.4454734134276948,,experiment,emotion,0.0,,,,636.8480829999899,101,24,female,True,6367,6374,False,False,expiration,expiration
207,88.0,25,M,down,0.3168046000064351,1.5483853223476418,,experiment,emotion,0.0,,,,639.3313454999881,101,24,female,True,6392,6395,False,False,inspiration,peak
208,117.0,25,M,down,0.28352409999934025,1.937444274152209,,experiment,emotion,0.0,,,,641.9645427000069,101,24,female,True,6419,6422,False,False,inspiration,inspiration
209,117.0,25,F,down,0.2838343000039458,1.2230839936315083,,experiment,emotion,0.0,,,,643.8645068999904,101,24,female,True,6438,6441,False,False,expiration,expiration
210,98.0,25,M,down,0.30017369997221977,1.6579964413803396,,experiment,emotion,0.0,,,,646.1977378999873,101,24,female,True,6461,6464,False,False,inspiration,peak
211,88.0,25,F,down,0.2669076999882236,0.972444358807353,,experiment,emotion,0.0,,,,647.8476592999941,101,24,female,True,6478,6481,False,False,expiration,expiration
212,98.0,25,M,down,0.2501886999816634,1.7129956177390746,,experiment,emotion,0.0,,,,650.2309097999822,101,24,female,True,6501,6504,False,False,expiration,expiration
213,107.0,25,F,down,0.366807600017637,0.7193630913316081,,experiment,emotion,0.0,,,,651.664228699985,101,24,female,True,6516,6520,False,False,expiration,expiration
214,88.0,25,M,down,0.3501972000231035,1.609364977141792,,experiment,emotion,0.0,,,,653.9641016999957,101,24,female,True,6539,6543,False,False,expiration,expiration
215,117.0,25,F,down,0.30021169999963604,0.6210256030315355,,experiment,emotion,0.0,,,,655.2640559999853,101,24,female,True,6552,6555,False,False,expiration,expiration
216,107.0,25,M,up,0.8657823999819811,1.059264320127242,,experiment,emotion,0.0,,,,657.01400190001,101,24,female,True,6569,6578,False,False,peak,expiration
217,117.0,25,F,up,0.6181977000087501,1.1642845886943227,,experiment,emotion,0.0,,,,659.330584499985,101,24,female,True,6592,6598,False,False,expiration,inspiration
218,88.0,25,M,down,0.7559344000183046,1.7871158295209209,,experiment,emotion,0.0,,,,662.0138394999957,101,24,female,True,6619,6627,False,False,expiration,expiration
219,107.0,25,F,down,0.4169646999798715,0.4701979596789454,,experiment,emotion,0.0,,,,663.5304563999816,101,24,female,True,6634,6638,False,False,trough,inspiration
220,98.0,25,M,down,0.30012460000580177,1.3144635220033694,,experiment,emotion,0.0,,,,665.5637054999826,101,24,female,True,6655,6658,False,False,expiration,expiration
221,98.0,25,F,down,0.2668660000199452,1.9603403013553768,,experiment,emotion,0.0,,,,668.213592199987,101,24,female,True,6681,6684,False,False,expiration,expiration
222,107.0,25,F,down,0.4005618999945,0.7584857759968634,,experiment,emotion,0.0,,,,669.6635463999993,101,24,female,True,6696,6700,False,False,expiration,expiration
223,117.0,25,M,down,0.3001583000004757,1.4503528861729758,,experiment,emotion,0.0,,,,671.7968107000053,101,24,female,True,6717,6720,False,False,expiration,expiration
224,98.0,25,F,down,0.31689269997878006,0.4599917888479862,,experiment,emotion,0.0,,,,672.9467314000067,101,24,female,True,6729,6732,False,False,expiration,expiration
225,88.0,25,M,down,0.2668266000109725,1.3474813848480929,,experiment,emotion,0.0,,,,674.9800312999869,101,24,female,True,6749,6752,False,False,inspiration,expiration
226,88.0,25,M,down,0.2835168000019621,0.4031749708927704,,experiment,emotion,0.0,,,,676.0633263000053,101,24,female,True,6760,6763,False,False,expiration,expiration
227,98.0,25,F,down,0.2834840000141412,1.9584359702002585,,experiment,emotion,0.0,,,,678.7132288999857,101,24,female,True,6786,6789,False,False,expiration,expiration
228,117.0,25,F,down,0.3001625000033528,1.96451844244204,,experiment,emotion,0.0,,,,681.363131399994,101,24,female,True,6813,6816,False,False,inspiration,inspiration
229,107.0,25,M,down,0.3001605000172276,0.4866522713830106,,experiment,emotion,0.0,,,,682.5630877999937,101,24,female,True,6825,6828,False,False,expiration,expiration
230,88.0,25,F,down,0.3835292000148911,1.393902896874252,,experiment,emotion,0.0,,,,684.6463025999838,101,24,female,True,6845,6849,False,False,inspiration,peak
231,117.0,25,M,down,0.3001798999903258,1.7075539983542982,,experiment,emotion,0.0,,,,687.0462210999976,101,24,female,True,6869,6872,False,False,trough,inspiration
232,107.0,25,M,down,0.3001778000034392,1.8023815203969749,,experiment,emotion,0.0,,,,689.5295075000031,101,24,female,True,6894,6897,False,False,expiration,expiration
233,107.0,25,M,down,0.3001624000025913,0.6074084924108706,,experiment,emotion,0.0,,,,690.8294427999936,101,24,female,True,6907,6910,False,False,inspiration,inspiration
234,88.0,25,M,down,0.3168159000051673,0.8576269388577971,,experiment,emotion,0.0,,,,692.379398899997,101,24,female,True,6923,6926,False,False,expiration,expiration
235,98.0,25,M,down,0.2498510000004899,0.8889593951591683,,experiment,emotion,0.0,,,,693.963008699997,101,24,female,True,6939,6941,False,False,inspiration,inspiration
236,117.0,25,F,down,0.2835043999948539,1.338616720739917,,experiment,emotion,0.0,,,,695.9792657000072,101,24,female,True,6959,6962,False,False,expiration,expiration
237,98.0,25,F,down,0.2668935999972746,0.7485110669440341,,experiment,emotion,0.0,,,,697.412505699991,101,24,female,True,6973,6976,False,False,inspiration,inspiration
238,98.0,25,F,down,0.3501643000054173,1.6672618223682067,,experiment,emotion,0.0,,,,699.7624375000014,101,24,female,True,6997,7001,False,False,expiration,expiration
239,98.0,25,M,down,0.2335283000138588,0.4887857133417082,,experiment,emotion,0.0,,,,700.9457269999838,101,24,female,True,7008,7010,False,False,inspiration,inspiration
240,117.0,25,F,down,0.21680389999528416,0.9792794459630688,,experiment,emotion,0.0,,,,702.5956865999907,101,24,female,True,7025,7027,False,False,expiration,expiration
241,107.0,25,F,down,0.4292265000112821,1.0900101375715971,,experiment,emotion,0.0,,,,704.3955988000089,101,24,female,True,7043,7047,False,False,inspiration,peak
242,88.0,25,F,down,0.7819447000219952,0.7162557253380866,,experiment,emotion,0.0,,,,705.8458655999858,101,24,female,True,7058,7066,False,False,expiration,expiration
243,88.0,25,M,down,0.3335176999971736,1.6276443867687826,,experiment,emotion,0.0,,,,708.5287740000058,101,24,female,True,7084,7087,False,False,expiration,expiration
244,107.0,25,F,down,0.3836109000258148,0.9570740312299626,,experiment,emotion,0.0,,,,710.1787409000099,101,24,female,True,7101,7105,False,False,inspiration,inspiration
245,117.0,25,M,down,0.5151970000006258,1.3918970956210222,,experiment,emotion,0.0,,,,712.2456381999947,101,24,female,True,7122,7127,False,False,expiration,expiration
246,117.0,25,M,down,0.21652399998856708,1.733414309773689,,experiment,emotion,0.0,,,,714.7622240000055,101,24,female,True,7147,7149,False,False,expiration,expiration
247,88.0,25,F,up,0.28350799999316223,0.6427013820049734,,experiment,emotion,0.0,,,,716.0951911000011,101,24,female,True,7160,7163,False,False,expiration,expiration
248,117.0,25,M,up,0.2834691000171006,1.3219369525599154,,experiment,emotion,0.0,,,,718.0951366999942,101,24,female,True,7180,7183,False,False,expiration,expiration
249,98.0,25,F,up,0.3002185999939684,0.4868309937369973,,experiment,emotion,0.0,,,,719.278407500009,101,24,female,True,7192,7195,False,False,expiration,expiration
250,107.0,25,M,down,0.989157299976796,1.5517166248541123,,experiment,emotion,0.0,,,,721.5116548000078,101,24,female,True,7214,7224,False,False,expiration,expiration
251,98.0,25,F,down,0.2834945999784395,1.943890777437256,,experiment,emotion,0.0,,,,724.711531399982,101,24,female,True,7246,7249,False,False,expiration,expiration
252,88.0,25,M,down,0.3001533999922685,1.8886445499313536,,experiment,emotion,0.0,,,,727.2947657000041,101,24,female,True,7272,7275,False,False,inspiration,inspiration
253,107.0,25,F,down,0.2668524999753572,1.7480920296544364,,experiment,emotion,0.0,,,,729.7279895999817,101,24,female,True,7296,7299,False,False,expiration,expiration
254,98.0,25,F,down,0.6072174000146333,0.3259207982244746,,experiment,emotion,0.0,,,,730.7445826999901,101,24,female,True,7307,7313,False,False,inspiration,inspiration
255,107.0,25,F,down,0.3001636000117287,0.5392402140024322,,experiment,emotion,0.0,,,,732.16125569999,101,24,female,True,7321,7324,False,False,expiration,expiration
256,88.0,25,F,down,0.3334841000032611,1.2174466642214792,,experiment,emotion,0.0,,,,734.0778692000023,101,24,female,True,7340,7343,False,False,inspiration,inspiration
257,117.0,25,F,down,0.3168021999881603,1.781538869160136,,experiment,emotion,0.0,,,,736.5611124999997,101,24,female,True,7365,7368,False,False,expiration,expiration
258,107.0,25,M,down,0.38350749999517575,1.3551944864541223,,experiment,emotion,0.0,,,,738.6110184999997,101,24,female,True,7385,7389,False,False,expiration,expiration
259,117.0,25,M,up,0.6308357999951113,1.6302664757914982,,experiment,emotion,0.0,,,,740.910935199994,101,24,female,True,7408,7414,False,False,trough,inspiration
260,88.0,25,M,up,0.36685690001468174,0.3872748184089449,,experiment,emotion,0.0,,,,742.2108755999942,101,24,female,True,7421,7425,False,False,expiration,expiration
261,98.0,25,M,up,0.4902715999924112,0.6052180513077319,,experiment,emotion,0.0,,,,743.5274957999936,101,24,female,True,7434,7439,False,False,expiration,expiration
262,0.4508258632322356,25,up,down,0.8185106999881099,1.0790925535230826,,experiment,cRDM,0.0,,,,747.8272607999969,101,24,female,True,7477,7485,False,False,inspiration,inspiration
263,0.4508258632322356,25,up,up,0.3340033999993466,1.0131797839005383,,experiment,cRDM,0.0,,,,749.9271820999858,101,24,female,True,7498,7501,False,False,expiration,expiration
264,0.4508258632322356,25,down,down,0.283985499991104,1.367545279095201,,experiment,cRDM,0.0,,,,751.9771315999969,101,24,female,True,7519,7522,False,False,expiration,expiration
265,0.4508258632322356,25,down,up,0.4002379000012297,1.5404727544691317,,experiment,cRDM,0.0,,,,754.1937263,101,24,female,True,7541,7545,False,False,inspiration,inspiration
266,0.4508258632322356,25,up,up,0.5591525000054389,1.0139740788585596,,experiment,cRDM,0.0,,,,755.8936586999916,101,24,female,True,7558,7564,False,False,expiration,expiration
267,0.4508258632322356,25,down,down,0.4178326000110246,0.61075166554418,,experiment,cRDM,0.0,,,,757.3269300999817,101,24,female,True,7572,7576,False,False,inspiration,inspiration
268,0.4508258632322356,25,up,up,0.33384350000415003,0.9093684915744558,,experiment,cRDM,0.0,,,,758.9102197999891,101,24,female,True,7588,7591,False,False,expiration,expiration
269,0.4508258632322356,25,up,down,0.33383649997995235,1.849335602041512,,experiment,cRDM,0.0,,,,761.4267862999986,101,24,female,True,7613,7616,False,False,inspiration,expiration
270,0.4508258632322356,25,down,up,0.2671527000202332,1.3045827993756645,,experiment,cRDM,0.0,,,,763.4267072000075,101,24,female,True,7633,7636,False,False,trough,inspiration
271,0.4508258632322356,25,down,down,0.4002196000074037,1.865756975152294,,experiment,cRDM,0.0,,,,765.9766373999882,101,24,female,True,7659,7663,False,False,expiration,expiration
272,0.4508258632322356,25,down,up,0.36683529999572784,1.9115570266106952,,experiment,cRDM,0.0,,,,768.5601528999977,101,24,female,True,7685,7689,False,False,expiration,inspiration
273,0.4508258632322356,25,down,up,0.4203289999859408,0.6500544072866404,,experiment,cRDM,0.0,,,,769.8765105000058,101,24,female,True,7698,7702,False,False,peak,expiration
274,0.4508258632322356,25,down,down,0.4587696000235155,1.2827533659217318,,experiment,cRDM,0.0,,,,771.8430808999983,101,24,female,True,7717,7722,False,False,expiration,expiration
275,0.4508258632322356,25,down,down,0.4297705999924801,1.9235335598072267,,experiment,cRDM,0.0,,,,774.4929715000035,101,24,female,True,7744,7748,False,False,expiration,expiration
276,0.4508258632322356,25,up,up,0.31721809998271056,1.1394240310431274,,experiment,cRDM,0.0,,,,776.3428899999999,101,24,female,True,7762,7765,False,False,inspiration,inspiration
277,0.4508258632322356,25,up,down,0.30054099997505546,1.460438209187079,,experiment,cRDM,0.0,,,,778.4761768000026,101,24,female,True,7784,7787,False,False,expiration,expiration
278,0.4508258632322356,25,up,up,0.33381630000076257,1.0709327587133664,,experiment,cRDM,0.0,,,,780.2094157999962,101,24,female,True,7801,7804,False,False,inspiration,expiration
279,0.4508258632322356,25,up,up,0.537678099994082,0.6016306753791925,,experiment,cRDM,0.0,,,,781.4760693999997,101,24,female,True,7814,7819,False,False,expiration,expiration
280,0.4508258632322356,25,down,down,0.30047849999391474,1.583521286624069,,experiment,cRDM,0.0,,,,783.8593237999886,101,24,female,True,7838,7841,False,False,expiration,expiration
281,0.4508258632322356,25,up,down,0.4298766999854706,1.9804831135291945,,experiment,cRDM,0.0,,,,786.5258156000053,101,24,female,True,7864,7868,False,False,inspiration,expiration
282,0.4508258632322356,25,up,up,0.4873964000144042,1.2867741233478365,,experiment,cRDM,0.0,,,,788.4924342999875,101,24,female,True,7884,7889,False,False,expiration,inspiration
283,0.4508258632322356,25,down,down,0.5577154000056908,1.3113367329501482,,experiment,cRDM,0.0,,,,790.5590469999879,101,24,female,True,7905,7911,False,False,expiration,expiration
284,0.4508258632322356,25,up,down,0.5681387000076938,1.0507904327980708,,experiment,cRDM,0.0,,,,792.4256239999959,101,24,female,True,7923,7929,False,False,inspiration,expiration
285,0.4508258632322356,25,down,up,0.416966799995862,1.6321710167899468,,experiment,cRDM,0.0,,,,794.8922308000039,101,24,female,True,7948,7952,False,False,inspiration,inspiration
286,0.4508258632322356,25,down,down,0.3999963000242133,1.6764203201826375,,experiment,cRDM,0.0,,,,797.2424142000092,101,24,female,True,7972,7976,False,False,expiration,expiration
287,0.4508258632322356,25,up,down,0.35090499999932945,1.765780302958394,,experiment,cRDM,0.0,,,,799.6920465999866,101,24,female,True,7996,8000,False,False,expiration,expiration
288,0.4508258632322356,25,up,down,0.31714430000283755,1.3316499671993154,,experiment,cRDM,0.0,,,,801.6919651000062,101,24,female,True,8016,8019,False,False,inspiration,inspiration
289,0.4508258632322356,25,down,down,0.3504915999947116,1.0599888444356518,,experiment,cRDM,0.0,,,,803.4252113999974,101,24,female,True,8033,8037,False,False,expiration,expiration
290,0.4508258632322356,25,up,up,0.4170421999879181,1.6733664422525951,,experiment,cRDM,0.0,,,,805.7918151000049,101,24,female,True,8057,8061,False,False,peak,expiration
291,0.4508258632322356,25,down,down,0.3171805000165477,0.8505304783470775,,experiment,cRDM,0.0,,,,807.3250691999857,101,24,female,True,8072,8075,False,False,expiration,expiration
292,0.4508258632322356,25,down,down,0.33384490001481026,1.0131489186253209,,experiment,cRDM,0.0,,,,809.0250146999898,101,24,female,True,8089,8092,False,False,peak,expiration
293,0.4508258632322356,25,down,down,0.3338189999922179,0.698182300849514,,experiment,cRDM,0.0,,,,810.391641299997,101,24,female,True,8103,8106,False,False,expiration,expiration
294,0.4508258632322356,25,up,down,0.35054200000013225,1.7623438854749245,,experiment,cRDM,0.0,,,,812.8248611000017,101,24,female,True,8127,8131,False,False,expiration,expiration
295,0.4508258632322356,25,up,down,0.3004873000027146,1.9837734455034055,,experiment,cRDM,0.0,,,,815.491452599992,101,24,female,True,8154,8157,False,False,inspiration,peak
296,0.4508258632322356,25,up,down,0.3338111000193749,0.7171418055293505,,experiment,cRDM,0.0,,,,816.8914102999843,101,24,female,True,8168,8171,False,False,expiration,expiration
297,0.4508258632322356,25,down,up,0.33385230001294985,0.9504787938618816,,experiment,cRDM,0.0,,,,818.5080131999858,101,24,female,True,8184,8187,False,False,inspiration,inspiration
298,0.4508258632322356,25,down,up,0.4170684000127949,1.1036606758548275,,experiment,cRDM,0.0,,,,820.2912808999828,101,24,female,True,8202,8206,False,False,expiration,expiration
299,0.4508258632322356,25,up,down,0.4495835999841802,1.860233929199488,,experiment,cRDM,0.0,,,,822.8412038999959,101,24,female,True,8228,8232,False,False,expiration,expiration
300,0.4508258632322356,25,down,down,0.4599248000013176,0.5517149231578615,,experiment,cRDM,0.0,,,,824.1078019999841,101,24,female,True,8240,8245,False,False,trough,inspiration
301,0.4508258632322356,25,up,up,0.8169887000112794,1.6212107537571545,,experiment,cRDM,0.0,,,,826.4577639999916,101,24,female,True,8264,8272,False,False,expiration,expiration
302,0.4508258632322356,25,up,down,0.3005068000056781,1.763878394910381,,experiment,cRDM,0.0,,,,829.3076090000104,101,24,female,True,8292,8295,False,False,expiration,expiration
303,0.4508258632322356,25,up,down,0.3672083999845199,1.192680070447356,,experiment,cRDM,0.0,,,,831.1742369999993,101,24,female,True,8311,8315,False,False,inspiration,inspiration
304,0.4508258632322356,25,down,down,0.4199822999944445,1.7815603278752716,,experiment,cRDM,0.0,,,,833.6408103999856,101,24,female,True,8336,8340,False,False,expiration,inspiration
305,0.4508258632322356,25,down,down,0.504130500019528,1.3687406299300773,,experiment,cRDM,0.0,,,,835.6906863999902,101,24,female,True,8356,8361,False,False,expiration,expiration
306,0.4508258632322356,25,up,down,0.3505026000202633,1.646871852521239,,experiment,cRDM,0.0,,,,838.107297599985,101,24,female,True,8380,8384,False,False,inspiration,expiration
307,0.4508258632322356,25,down,down,0.4745804000122007,1.9717477171650284,,experiment,cRDM,0.0,,,,840.7572099999817,101,24,female,True,8407,8412,False,False,inspiration,inspiration
308,0.4508258632322356,25,down,down,0.4726030000019818,0.4077336654544299,,experiment,cRDM,0.0,,,,841.9071505999892,101,24,female,True,8418,8423,False,False,expiration,expiration
309,0.4508258632322356,25,up,up,0.5559406999964267,0.4422515670132711,,experiment,cRDM,0.0,,,,843.0738352999907,101,24,female,True,8430,8436,False,False,expiration,inspiration
310,0.4508258632322356,25,up,up,0.3670952999964357,1.9836372058464984,,experiment,cRDM,0.0,,,,845.8737115999976,101,24,female,True,8458,8462,False,False,expiration,expiration
311,0.4508258632322356,25,down,down,0.4705072999931872,1.1910871455517364,,experiment,cRDM,0.0,,,,847.7402678999933,101,24,female,True,8476,8481,False,False,inspiration,expiration
312,0.4508258632322356,25,up,down,0.3671654999780003,1.8248631739194725,,experiment,cRDM,0.0,,,,850.2901716000052,101,24,female,True,8502,8506,False,False,inspiration,inspiration
313,0.4508258632322356,25,down,down,0.5762681999767665,0.40480109547923937,,experiment,cRDM,0.0,,,,851.3734869000036,101,24,female,True,8513,8519,False,False,expiration,expiration
314,0.4508258632322356,25,down,down,0.5196975999861024,1.6256174441333444,,experiment,cRDM,0.0,,,,853.8400579000007,101,24,female,True,8538,8543,False,False,inspiration,peak
315,0.4508258632322356,25,down,down,0.4751151000091341,1.3903513897718822,,experiment,cRDM,0.0,,,,856.0066382999939,101,24,female,True,8559,8564,False,False,expiration,trough
316,0.4508258632322356,25,up,up,0.4229216999956407,1.7498712914677483,,experiment,cRDM,0.0,,,,858.4898639000021,101,24,female,True,8584,8588,False,False,expiration,expiration
317,0.4508258632322356,25,up,up,0.4236351999861654,1.5353898577460072,,experiment,cRDM,0.0,,,,860.7231191000027,101,24,female,True,8606,8610,False,False,inspiration,expiration
318,0.4508258632322356,25,down,down,0.4170176000043284,1.999076789062323,,experiment,cRDM,0.0,,,,863.4063392999815,101,24,female,True,8633,8637,False,False,inspiration,inspiration
319,0.4508258632322356,25,down,down,0.5111234000069089,1.4097561548647577,,experiment,cRDM,0.0,,,,865.4896358999831,101,24,female,True,8654,8659,False,False,expiration,expiration
320,0.4508258632322356,25,up,up,0.4514983000117354,1.7893263912545372,,experiment,cRDM,0.0,,,,868.0562295999845,101,24,female,True,8680,8685,False,False,expiration,expiration
321,0.4508258632322356,25,up,down,0.4002675999945495,1.6632716956407356,,experiment,cRDM,0.0,,,,870.4394401999889,101,24,female,True,8704,8708,False,False,inspiration,expiration
322,0.4508258632322356,25,up,up,0.5570463000040036,0.6990117972386736,,experiment,cRDM,0.0,,,,871.8227010999982,101,24,female,True,8717,8723,False,False,expiration,expiration
323,0.4508258632322356,25,up,up,0.6494071999914013,1.2567099580101069,,experiment,cRDM,0.0,,,,873.8893285999948,101,24,female,True,8738,8744,False,False,expiration,expiration
324,0.4508258632322356,25,up,up,0.8062134999781847,1.9653384564075027,,experiment,cRDM,0.0,,,,876.7725359000032,101,24,female,True,8767,8775,False,False,expiration,expiration
325,0.4508258632322356,25,down,down,0.3504704999795649,1.2956688231700997,,experiment,cRDM,0.0,,,,879.1391310000035,101,24,female,True,8791,8795,False,False,inspiration,inspiration
326,0.4508258632322356,25,down,down,0.3505812000075821,1.794423225989494,,experiment,cRDM,0.0,,,,881.6056930999913,101,24,female,True,8815,8819,False,False,expiration,inspiration
327,0.4508258632322356,25,up,down,0.4598045000166167,0.4484146253901205,,experiment,cRDM,0.0,,,,882.7390085000079,101,24,female,True,8827,8832,False,False,inspiration,expiration
328,0.4508258632322356,25,down,down,0.456545199995162,1.453726612566645,,experiment,cRDM,0.0,,,,884.9222092999844,101,24,female,True,8848,8853,False,False,expiration,inspiration
329,0.4508258632322356,25,down,down,0.6288303000037558,0.5907163506290247,,experiment,cRDM,0.0,,,,886.2388715999841,101,24,female,True,8862,8868,False,False,inspiration,expiration
330,0.4508258632322356,25,down,down,0.5831773999962024,0.3217720739637955,,experiment,cRDM,0.0,,,,887.4555240999907,101,24,female,True,8874,8880,False,False,expiration,expiration
331,0.4508258632322356,25,up,up,0.439295200019842,0.6565493835368515,,experiment,cRDM,0.0,,,,888.9554578000098,101,24,female,True,8889,8893,False,False,inspiration,inspiration
332,0.4508258632322356,25,down,down,0.5020152000070084,0.3674868220445043,,experiment,cRDM,0.0,,,,890.0387437999889,101,24,female,True,8900,8905,False,False,expiration,expiration
333,0.4508258632322356,25,down,down,0.5124447999987751,1.314136996341258,,experiment,cRDM,0.0,,,,892.1053200000024,101,24,female,True,8920,8925,False,False,inspiration,expiration
334,0.4508258632322356,25,down,down,0.4651818000129424,1.5498377044996068,,experiment,cRDM,0.0,,,,894.4385563000105,101,24,female,True,8944,8949,False,False,expiration,inspiration
335,0.4508258632322356,25,up,down,0.47630490001756703,1.7755722459434546,,experiment,cRDM,0.0,,,,896.9384722999821,101,24,female,True,8969,8974,False,False,expiration,expiration
336,0.4508258632322356,25,up,up,0.6922888000262901,1.0655379296549234,,experiment,cRDM,0.0,,,,898.7384277000093,101,24,female,True,8987,8994,False,False,inspiration,expiration
337,0.4508258632322356,25,down,down,0.4170161999936681,1.3907509318008386,,experiment,cRDM,0.0,,,,901.0883092999866,101,24,female,True,9010,9014,False,False,inspiration,inspiration
338,0.4508258632322356,25,up,up,0.5225313999981154,1.7634402888671905,,experiment,cRDM,0.0,,,,903.5382242999913,101,24,female,True,9035,9040,False,False,expiration,expiration
339,0.4508258632322356,25,down,down,0.38384039999800734,1.5354149423626555,,experiment,cRDM,0.0,,,,905.8714679999975,101,24,female,True,9058,9062,False,False,expiration,expiration
340,0.4508258632322356,25,up,up,0.6330204000114463,1.8951087118848136,,experiment,cRDM,0.0,,,,908.4547439999878,101,24,female,True,9084,9090,False,False,inspiration,expiration
341,0.4508258632322356,25,up,up,0.7115177999949083,1.7592804426805713,,experiment,cRDM,0.0,,,,911.1212566999893,101,24,female,True,9110,9117,False,False,inspiration,inspiration
342,117.0,25,M,down,0.7835299999860581,1.687044484588056,,experiment,emotion,1.0,,,,924.2041927000099,101,24,female,True,9241,9249,False,False,expiration,expiration
343,88.0,25,M,down,0.5072549000033177,0.4799288573975631,,experiment,emotion,1.0,,,,925.7374142000044,101,24,female,True,9257,9262,False,False,expiration,expiration
344,107.0,25,F,down,0.43971229999442585,1.8119522939343156,,experiment,emotion,1.0,,,,928.3540329000098,101,24,female,True,9283,9287,False,False,expiration,expiration
345,117.0,25,F,down,0.3168296000221744,1.935721895305737,,experiment,emotion,1.0,,,,931.0039509999916,101,24,female,True,9309,9312,False,False,inspiration,inspiration
346,107.0,25,M,down,0.2834845999896061,0.5723465625648155,,experiment,emotion,1.0,,,,932.2705756000067,101,24,female,True,9322,9325,False,False,expiration,expiration
347,98.0,25,F,down,0.28345110002555884,1.8667188933462548,,experiment,emotion,1.0,,,,934.8371434999864,101,24,female,True,9348,9351,False,False,inspiration,inspiration
348,88.0,25,M,down,0.2668327999999747,0.7597475974669219,,experiment,emotion,1.0,,,,936.2704216999992,101,24,female,True,9362,9365,False,False,expiration,expiration
349,98.0,25,M,,,1.8845290643213728,,experiment,emotion,1.0,,,,938.836997300008,101,24,female,True,9388,0,False,False,inspiration,0
350,117.0,25,F,up,0.6489334999932908,1.949040536455279,,experiment,emotion,1.0,,,,943.4868140000036,101,24,female,True,9434,9440,False,False,expiration,expiration
351,98.0,25,F,up,0.445281199994497,0.9837326601486596,,experiment,emotion,1.0,,,,945.403417499998,101,24,female,True,9453,9457,False,False,inspiration,inspiration
352,107.0,25,F,up,0.31682720000389963,0.5742157166339894,,experiment,emotion,1.0,,,,946.7200119000045,101,24,female,True,9466,9469,False,False,expiration,expiration
353,117.0,25,F,up,0.6371942000114359,1.7349265072065465,,experiment,emotion,1.0,,,,949.1365952999913,101,24,female,True,9491,9497,False,False,inspiration,expiration
354,107.0,25,F,up,0.3668599000084214,0.7950313549299572,,experiment,emotion,1.0,,,,950.869851299998,101,24,female,True,9508,9512,False,False,expiration,expiration
355,88.0,25,F,up,0.3168479000160005,0.6957793142755485,,experiment,emotion,1.0,,,,952.2531481999904,101,24,female,True,9522,9525,False,False,inspiration,inspiration
356,98.0,25,M,up,0.28348640000331216,0.789443718215645,,experiment,emotion,1.0,,,,953.7197515000007,101,24,female,True,9537,9540,False,False,expiration,expiration
357,88.0,25,M,up,0.2834911999816541,1.2770382236387177,,experiment,emotion,1.0,,,,955.6697165000078,101,24,female,True,9556,9559,False,False,inspiration,peak
358,117.0,25,M,down,0.31685360000119545,0.5739633954833412,,experiment,emotion,1.0,,,,956.9363129999838,101,24,female,True,9569,9572,False,False,expiration,expiration
359,88.0,25,M,down,0.4175143000029493,1.3220925435847743,,experiment,emotion,1.0,,,,958.9362312000012,101,24,female,True,9589,9593,False,False,inspiration,expiration
360,107.0,25,F,down,0.2834982999775093,1.3795415572727507,,experiment,emotion,1.0,,,,961.0028451999823,101,24,female,True,9609,9612,False,False,expiration,inspiration
361,107.0,25,M,down,0.3668225000146776,1.974369221573824,,experiment,emotion,1.0,,,,963.6694164999936,101,24,female,True,9636,9640,False,False,expiration,expiration
362,98.0,25,M,down,0.3334980000217911,0.9080015262724106,,experiment,emotion,1.0,,,,965.252692799986,101,24,female,True,9652,9655,False,False,inspiration,inspiration
363,98.0,25,F,down,0.2335239000094589,0.9854013548440584,,experiment,emotion,1.0,,,,966.9192748999923,101,24,female,True,9668,9670,False,False,expiration,expiration
364,88.0,25,M,down,0.2501813000126276,0.3059232066818429,,experiment,emotion,1.0,,,,967.9025941999863,101,24,female,True,9678,9681,False,False,expiration,expiration
365,117.0,25,F,down,0.2668134999985341,1.2455555581240358,,experiment,emotion,1.0,,,,969.8525285999933,101,24,female,True,9698,9701,False,False,expiration,expiration
366,107.0,25,F,down,0.2835211000056006,0.7457715838128395,,experiment,emotion,1.0,,,,971.2857773999858,101,24,female,True,9712,9715,False,False,expiration,expiration
367,88.0,25,M,down,0.4597648000053596,0.8775066994195462,,experiment,emotion,1.0,,,,972.8690640999994,101,24,female,True,9728,9733,False,False,inspiration,expiration
368,117.0,25,M,down,0.43877100001554936,0.7743904593376858,,experiment,emotion,1.0,,,,974.3690201999852,101,24,female,True,9743,9747,False,False,expiration,expiration
369,117.0,25,F,down,0.4001905000186525,1.5350158560246283,,experiment,emotion,1.0,,,,976.6189102999924,101,24,female,True,9765,9769,False,False,inspiration,expiration
370,98.0,25,M,down,0.3001705999777187,1.5630968185781855,,experiment,emotion,1.0,,,,978.8855156000064,101,24,female,True,9788,9791,False,False,expiration,expiration
371,88.0,25,F,down,0.5383185000100639,1.3490997301787464,,experiment,emotion,1.0,,,,980.9353900999997,101,24,female,True,9809,9814,False,False,expiration,expiration
372,98.0,25,F,down,0.3168267000000924,1.7828266922159388,,experiment,emotion,1.0,,,,983.5186604000046,101,24,female,True,9834,9837,False,False,inspiration,inspiration
373,107.0,25,F,down,0.3502406000043265,1.942355475520485,,experiment,emotion,1.0,,,,986.1685830999922,101,24,female,True,9861,9865,False,False,expiration,inspiration
374,88.0,25,M,down,0.3502039000159129,1.6291365772127795,,experiment,emotion,1.0,,,,988.4851569999882,101,24,female,True,9884,9888,False,False,expiration,expiration
375,117.0,25,M,down,0.3668872000125703,1.9242001221116172,,experiment,emotion,1.0,,,,991.1183818999853,101,24,female,True,9910,9914,False,False,peak,expiration
376,107.0,25,M,down,0.418103699979838,1.9443114017698044,,experiment,emotion,1.0,,,,993.751641699986,101,24,female,True,9937,9941,False,False,inspiration,inspiration
377,117.0,25,F,down,0.4698290000087582,1.9542713731931833,,experiment,emotion,1.0,,,,996.3848783999856,101,24,female,True,9963,9968,False,False,expiration,trough
378,88.0,25,F,down,0.6792725000123028,1.771648300876931,,experiment,emotion,1.0,,,,998.9014526999963,101,24,female,True,9988,9995,False,False,expiration,expiration
379,107.0,25,M,down,0.3501405999995768,0.30729281612605874,,experiment,emotion,1.0,,,,1000.1514282999852,101,24,female,True,10001,10005,False,False,expiration,inspiration
380,98.0,25,F,down,0.3001870999869425,1.164978890520518,,experiment,emotion,1.0,,,,1002.0179714999975,101,24,female,True,10019,10022,False,False,expiration,expiration
381,98.0,25,M,down,0.3002254000166431,1.630373209128643,,experiment,emotion,1.0,,,,1004.334548199986,101,24,female,True,10043,10046,False,False,inspiration,inspiration
382,107.0,25,M,up,0.4928816000174266,0.4835739971184273,,experiment,emotion,1.0,,,,1005.5178475999857,101,24,female,True,10054,10059,False,False,expiration,expiration
383,117.0,25,M,up,0.6046312999969814,1.4549992781980903,,experiment,emotion,1.0,,,,1007.751139800006,101,24,female,True,10077,10083,False,False,inspiration,inspiration
384,98.0,25,F,up,0.4001718000217807,1.1542247167917548,,experiment,emotion,1.0,,,,1009.7843895999832,101,24,female,True,10097,10101,False,False,expiration,expiration
385,88.0,25,F,down,0.8421034000057261,1.237440837579897,,experiment,emotion,1.0,,,,1011.7176306000038,101,24,female,True,10116,10124,False,False,inspiration,expiration
386,88.0,25,M,down,0.6905062999867368,0.9083739777249932,,experiment,emotion,1.0,,,,1013.7342224000023,101,24,female,True,10137,10144,False,False,expiration,inspiration
387,98.0,25,F,down,0.2668333000037819,0.30154478764870585,,experiment,emotion,1.0,,,,1015.000865399983,101,24,female,True,10149,10152,False,False,inspiration,inspiration
388,117.0,25,F,down,0.6399734999868087,1.6559018448497238,,experiment,emotion,1.0,,,,1017.3507555999968,101,24,female,True,10173,10179,False,False,expiration,expiration
389,107.0,25,M,down,0.23351269998238425,0.5730169262165616,,experiment,emotion,1.0,,,,1018.8340414999983,101,24,female,True,10188,10190,False,False,inspiration,inspiration
390,88.0,25,M,down,0.2835099999792874,0.9503647158838552,,experiment,emotion,1.0,,,,1020.4673260999845,101,24,female,True,10204,10207,False,False,expiration,expiration
391,117.0,25,F,down,0.2834998000180349,0.3763494927898233,,experiment,emotion,1.0,,,,1021.5339423999832,101,24,female,True,10215,10218,False,False,inspiration,inspiration
392,107.0,25,M,down,0.5165167999803089,1.68714661299694,,experiment,emotion,1.0,,,,1023.9171634000087,101,24,female,True,10238,10243,False,False,expiration,expiration
393,107.0,25,F,down,0.2834852000232786,0.7831286090317122,,experiment,emotion,1.0,,,,1025.483819199988,101,24,female,True,10254,10257,False,False,inspiration,inspiration
394,88.0,25,F,down,0.28349689999595284,0.5121121679405297,,experiment,emotion,1.0,,,,1026.7004274000064,101,24,female,True,10266,10269,False,False,expiration,expiration
395,98.0,25,F,down,0.4001797999953851,1.4524709655099253,,experiment,emotion,1.0,,,,1028.8670131999822,101,24,female,True,10288,10292,False,False,inspiration,inspiration
396,117.0,25,M,down,0.472808199992869,0.7097226293169434,,experiment,emotion,1.0,,,,1030.2669674000065,101,24,female,True,10302,10307,False,False,expiration,expiration
397,98.0,25,M,down,0.5661322000087239,0.3167468576166875,,experiment,emotion,1.0,,,,1031.3335887999856,101,24,female,True,10313,10319,False,False,expiration,expiration
398,98.0,25,F,down,0.6015799999877345,1.3303570838318768,,experiment,emotion,1.0,,,,1033.5001505999826,101,24,female,True,10334,10340,False,False,peak,expiration
399,98.0,25,F,down,0.3001607999904081,0.9710882908953484,,experiment,emotion,1.0,,,,1035.333464700001,101,24,female,True,10353,10356,False,False,trough,inspiration
400,117.0,25,M,down,0.3001576000242494,1.0378441810303625,,experiment,emotion,1.0,,,,1037.0500341999866,101,24,female,True,10370,10373,False,False,expiration,expiration
401,107.0,25,M,down,0.2668659999908414,1.9798301327997505,,experiment,emotion,1.0,,,,1039.733301900007,101,24,female,True,10397,10400,False,False,inspiration,inspiration
402,88.0,25,M,down,0.2835027000110131,1.125819676021123,,experiment,emotion,1.0,,,,1041.5665424999897,101,24,female,True,10415,10418,False,False,expiration,expiration
403,88.0,25,M,down,0.35017989997868426,1.269636879140416,,experiment,emotion,1.0,,,,1043.5164523999847,101,24,female,True,10435,10439,False,False,inspiration,inspiration
404,107.0,25,M,down,0.3001994999940507,0.9338995448359736,,experiment,emotion,1.0,,,,1045.1330495000002,101,24,female,True,10451,10454,False,False,expiration,expiration
405,117.0,25,F,down,0.3335221000015736,1.6820702094855553,,experiment,emotion,1.0,,,,1047.5163124999963,101,24,female,True,10475,10478,False,False,inspiration,expiration
406,117.0,25,F,down,0.3502273000194691,1.203110653323788,,experiment,emotion,1.0,,,,1049.4162313999839,101,24,female,True,10494,10498,False,False,expiration,expiration
407,88.0,25,M,down,0.33349550000275485,0.7853254072736771,,experiment,emotion,1.0,,,,1050.882884199993,101,24,female,True,10508,10511,False,False,inspiration,inspiration
408,117.0,25,F,down,0.3836449999944307,0.6686196662552892,,experiment,emotion,1.0,,,,1052.2327922999975,101,24,female,True,10522,10526,False,False,expiration,expiration
409,98.0,25,F,down,0.3668090999999549,0.4156886846703533,,experiment,emotion,1.0,,,,1053.349446200009,101,24,female,True,10533,10537,False,False,expiration,expiration
410,107.0,25,F,down,0.283550300024217,0.7560238959711141,,experiment,emotion,1.0,,,,1054.7827353999894,101,24,female,True,10547,10550,False,False,inspiration,inspiration
411,98.0,25,M,down,0.3334933000151068,1.9879201331745804,,experiment,emotion,1.0,,,,1057.465965799987,101,24,female,True,10574,10577,False,False,expiration,inspiration
412,88.0,25,F,down,0.33349550000275485,1.7156249008523312,,experiment,emotion,1.0,,,,1059.8658682999958,101,24,female,True,10598,10601,False,False,expiration,expiration
413,107.0,25,F,down,0.2668308000138495,1.913695645751097,,experiment,emotion,1.0,,,,1062.4657863999894,101,24,female,True,10624,10627,False,False,expiration,expiration
414,98.0,25,F,down,0.4169546999910381,0.6362957061216835,,experiment,emotion,1.0,,,,1063.7823921999952,101,24,female,True,10637,10641,False,False,expiration,expiration
415,107.0,25,M,down,0.3501832000038121,1.7261151250296216,,experiment,emotion,1.0,,,,1066.2156190999958,101,24,female,True,10661,10665,False,False,expiration,expiration
416,88.0,25,M,down,0.3501598000002559,1.1877769317365738,,experiment,emotion,1.0,,,,1068.0989113000103,101,24,female,True,10680,10684,False,False,expiration,inspiration
417,117.0,25,F,down,0.2668572999828029,0.5300087733411764,,experiment,emotion,1.0,,,,1069.3321733000048,101,24,female,True,10693,10696,False,False,inspiration,expiration
418,107.0,25,M,down,0.4727175000007264,1.6111894573018881,,experiment,emotion,1.0,,,,1071.632077199989,101,24,female,True,10716,10721,False,False,inspiration,inspiration
419,117.0,25,F,down,0.31679219999932684,1.9669980910680644,,experiment,emotion,1.0,,,,1074.3486952999956,101,24,female,True,10743,10746,False,False,inspiration,inspiration
420,88.0,25,M,down,0.6814868999936152,1.421777458117144,,experiment,emotion,1.0,,,,1076.465232699993,101,24,female,True,10764,10771,False,False,expiration,expiration
421,98.0,25,M,down,0.4002084999810904,0.7687704916048977,,experiment,emotion,1.0,,,,1078.198531800008,101,24,female,True,10781,10785,False,False,inspiration,inspiration
422,0.4508258632322356,25,up,down,0.3671480000193697,1.0390875963857578,,experiment,cRDM,1.0,,,,1082.214983199985,101,24,female,True,10822,10826,False,False,expiration,expiration
423,0.4508258632322356,25,up,up,0.489409900008468,1.8496137053995076,,experiment,cRDM,1.0,,,,1084.7482528999972,101,24,female,True,10847,10852,False,False,inspiration,peak
424,0.4508258632322356,25,down,down,0.5265314000134822,1.0480219303579708,,experiment,cRDM,1.0,,,,1086.5481841999865,101,24,female,True,10865,10870,False,False,expiration,inspiration
425,0.4508258632322356,25,down,down,0.4980199999990873,0.7852215801075695,,experiment,cRDM,1.0,,,,1088.114742899983,101,24,female,True,10880,10885,False,False,peak,expiration
426,0.4508258632322356,25,up,up,0.5520867999875918,1.9874388101674665,,experiment,cRDM,1.0,,,,1090.8646637999918,101,24,female,True,10908,10914,False,False,inspiration,expiration
427,0.4508258632322356,25,down,up,0.4527158999990206,0.3840852049312956,,experiment,cRDM,1.0,,,,1092.0479909999997,101,24,female,True,10920,10925,False,False,expiration,expiration
428,0.4508258632322356,25,up,up,0.5975261999992654,1.0075370817185323,,experiment,cRDM,1.0,,,,1093.7811904999837,101,24,female,True,10937,10943,False,False,inspiration,expiration
429,0.4508258632322356,25,up,up,0.586657700012438,1.6981623418521419,,experiment,cRDM,1.0,,,,1096.3311345999828,101,24,female,True,10963,10969,False,False,inspiration,expiration
430,0.4508258632322356,25,down,down,0.4283228999993298,1.3747153755637933,,experiment,cRDM,1.0,,,,1098.5643780999817,101,24,female,True,10985,10989,False,False,inspiration,inspiration
431,0.4508258632322356,25,down,down,0.7144206999801099,0.3164953474615748,,experiment,cRDM,1.0,,,,1099.5643201000057,101,24,female,True,10995,11002,False,False,expiration,expiration
432,0.4508258632322356,25,down,up,0.5088496000098529,1.9369392221489408,,experiment,cRDM,1.0,,,,1102.4808959999937,101,24,female,True,11024,11029,False,False,peak,expiration
433,0.4508258632322356,25,down,down,0.5188666000030935,1.5773045471389198,,experiment,cRDM,1.0,,,,1104.8308263999934,101,24,female,True,11048,11053,False,False,inspiration,expiration
434,0.4508258632322356,25,down,down,0.4683111000049394,0.94387038111413,,experiment,cRDM,1.0,,,,1106.547437000001,101,24,female,True,11065,11070,False,False,expiration,inspiration
435,0.4508258632322356,25,down,down,0.3671613000042271,0.4246688266707057,,experiment,cRDM,1.0,,,,1107.7140256999992,101,24,female,True,11076,11080,False,False,inspiration,expiration
436,0.4508258632322356,25,up,up,0.4467847000050824,1.2159092277758532,,experiment,cRDM,1.0,,,,1109.613951599982,101,24,female,True,11095,11099,False,False,expiration,inspiration
437,0.4508258632322356,25,up,down,0.31714690002263524,0.7577133493419415,,experiment,cRDM,1.0,,,,1111.0805883999856,101,24,female,True,11110,11113,False,False,peak,expiration
438,0.4508258632322356,25,up,down,0.4002809000085108,1.9879377541723209,,experiment,cRDM,1.0,,,,1113.73047770001,101,24,female,True,11137,11141,False,False,inspiration,expiration
439,0.4508258632322356,25,up,down,0.4236291999986861,0.44051521049868303,,experiment,cRDM,1.0,,,,1114.8471199999913,101,24,female,True,11148,11152,False,False,expiration,expiration
440,0.4508258632322356,25,down,down,0.4866834999993444,1.8222749620149508,,experiment,cRDM,1.0,,,,1117.3470300000045,101,24,female,True,11173,11178,False,False,expiration,expiration
441,0.4508258632322356,25,up,up,0.4170016999996733,1.2691112397586295,,experiment,cRDM,1.0,,,,1119.363609699998,101,24,female,True,11193,11197,False,False,inspiration,expiration
442,0.4508258632322356,25,up,down,0.5818760000111071,1.8899935039081583,,experiment,cRDM,1.0,,,,1121.9468623999855,101,24,female,True,11219,11225,False,False,inspiration,expiration
443,0.4508258632322356,25,down,down,0.5039629999955649,0.9577362898599301,,experiment,cRDM,1.0,,,,1123.7467959999922,101,24,female,True,11237,11242,False,False,expiration,expiration
444,0.4508258632322356,25,up,up,0.5466415999981109,0.812288939201625,,experiment,cRDM,1.0,,,,1125.3300683999844,101,24,female,True,11253,11258,False,False,inspiration,expiration
445,0.4508258632322356,25,down,down,0.4837171999970451,1.4391050557454852,,experiment,cRDM,1.0,,,,1127.5799694999878,101,24,female,True,11275,11280,False,False,inspiration,inspiration
446,0.4508258632322356,25,down,down,0.4404808999970555,1.6462501395517848,,experiment,cRDM,1.0,,,,1129.963222499995,101,24,female,True,11299,11303,False,False,expiration,expiration
447,0.4508258632322356,25,up,down,0.467190399998799,1.8701446817333245,,experiment,cRDM,1.0,,,,1132.5465070999926,101,24,female,True,11325,11330,False,False,expiration,expiration
448,0.4508258632322356,25,up,up,0.4266769000096247,1.1326599286820025,,experiment,cRDM,1.0,,,,1134.4130434999825,101,24,female,True,11343,11347,False,False,inspiration,peak
449,0.4508258632322356,25,down,down,0.4570196999993641,0.4817163855456059,,experiment,cRDM,1.0,,,,1135.5796867999886,101,24,female,True,11355,11360,False,False,expiration,expiration
450,0.4508258632322356,25,up,up,0.35049280000384897,1.002480329436821,,experiment,cRDM,1.0,,,,1137.3129412999842,101,24,female,True,11372,11376,False,False,inspiration,inspiration
451,0.4508258632322356,25,down,down,0.4170143000083044,0.7457803906193223,,experiment,cRDM,1.0,,,,1138.729592699994,101,24,female,True,11387,11391,False,False,expiration,expiration
452,0.4508258632322356,25,down,down,0.5109158999985084,0.4964149932920192,,experiment,cRDM,1.0,,,,1139.9128266999905,101,24,female,True,11398,11403,False,False,inspiration,inspiration
453,0.4508258632322356,25,down,down,0.4169782999961171,0.36144784783288936,,experiment,cRDM,1.0,,,,1141.0461881000085,101,24,female,True,11410,11414,False,False,expiration,expiration
454,0.4508258632322356,25,up,up,0.3673533000110183,1.0626663344102707,,experiment,cRDM,1.0,,,,1142.7960811000085,101,24,female,True,11427,11431,False,False,expiration,inspiration
455,0.4508258632322356,25,up,down,0.4563508999999613,0.6851467457627711,,experiment,cRDM,1.0,,,,1144.179367100005,101,24,female,True,11441,11446,False,False,expiration,expiration
456,0.4508258632322356,25,up,up,0.3671450999972876,0.5060335322892552,,experiment,cRDM,1.0,,,,1145.4126446000012,101,24,female,True,11453,11457,False,False,expiration,expiration
457,0.4508258632322356,25,down,down,0.4002520999929402,0.9224504350471072,,experiment,cRDM,1.0,,,,1147.029285800003,101,24,female,True,11470,11474,False,False,inspiration,expiration
458,0.4508258632322356,25,down,down,0.5335559000086505,1.5798910788643743,,experiment,cRDM,1.0,,,,1149.2791781999986,101,24,female,True,11492,11497,False,False,expiration,inspiration
459,0.4508258632322356,25,up,up,0.350506899994798,0.5267328609419589,,experiment,cRDM,1.0,,,,1150.6124410000048,101,24,female,True,11505,11509,False,False,peak,expiration
460,0.4508258632322356,25,down,up,0.33380059999763034,0.5591241450660385,,experiment,cRDM,1.0,,,,1151.8457898999914,101,24,female,True,11518,11521,False,False,expiration,expiration
461,0.4508258632322356,25,up,up,0.5100188000069465,0.7236286594440684,,experiment,cRDM,1.0,,,,1153.2457471000087,101,24,female,True,11532,11537,False,False,inspiration,inspiration
462,0.4508258632322356,25,up,down,0.5077633000037167,1.1726486549440902,,experiment,cRDM,1.0,,,,1155.178938600002,101,24,female,True,11551,11556,False,False,expiration,expiration
463,0.4508258632322356,25,up,down,0.4780586000124458,1.492270235070496,,experiment,cRDM,1.0,,,,1157.4455814000105,101,24,female,True,11574,11579,False,False,expiration,expiration
464,0.4508258632322356,25,down,down,0.4603067999996711,0.8146006876919434,,experiment,cRDM,1.0,,,,1158.9954757000087,101,24,female,True,11589,11594,False,False,expiration,inspiration
465,0.4508258632322356,25,down,down,0.3338506000000052,0.3425409202473905,,experiment,cRDM,1.0,,,,1160.0620758000005,101,24,female,True,11600,11603,False,False,inspiration,expiration
466,0.4508258632322356,25,up,up,0.5646819999965373,1.710170001444003,,experiment,cRDM,1.0,,,,1162.4620228999993,101,24,female,True,11624,11630,False,False,inspiration,inspiration
467,0.4508258632322356,25,down,down,0.4002770999795757,1.3492241709789083,,experiment,cRDM,1.0,,,,1164.6286230999976,101,24,female,True,11646,11650,False,False,expiration,expiration
468,0.4508258632322356,25,down,down,0.5008484999998473,1.704494712613366,,experiment,cRDM,1.0,,,,1167.011852800002,101,24,female,True,11669,11674,False,False,expiration,expiration
469,0.4508258632322356,25,up,down,0.4796319000015501,1.765702074582854,,experiment,cRDM,1.0,,,,1169.5451214000059,101,24,female,True,11695,11700,False,False,inspiration,expiration
470,0.4508258632322356,25,up,up,0.5213139999832492,0.4949805140416453,,experiment,cRDM,1.0,,,,1170.7783984999987,101,24,female,True,11707,11712,False,False,expiration,expiration
471,0.4508258632322356,25,down,down,0.4876302999909967,1.4805304574967224,,experiment,cRDM,1.0,,,,1173.0450287999993,101,24,female,True,11730,11735,False,False,expiration,expiration
472,0.4508258632322356,25,up,up,0.4431744999892544,1.6169921439987414,,experiment,cRDM,1.0,,,,1175.4115309999906,101,24,female,True,11753,11757,False,False,inspiration,inspiration
473,0.4508258632322356,25,down,down,0.3837999000097625,0.8182800143476241,,experiment,cRDM,1.0,,,,1176.928168399987,101,24,female,True,11769,11773,False,False,expiration,expiration
474,0.4508258632322356,25,down,down,0.400268600002164,1.6225886033043768,,experiment,cRDM,1.0,,,,1179.244769699988,101,24,female,True,11792,11796,False,False,inspiration,expiration
475,0.4508258632322356,25,down,down,0.3671274999796879,1.3767778188149022,,experiment,cRDM,1.0,,,,1181.294682000007,101,24,female,True,11812,11816,False,False,inspiration,inspiration
476,0.4508258632322356,25,up,down,0.3171165999956429,0.8671234760375199,,experiment,cRDM,1.0,,,,1182.8446461999847,101,24,female,True,11828,11831,False,False,expiration,expiration
477,0.4508258632322356,25,up,down,0.5271566000010353,1.7284336707946921,,experiment,cRDM,1.0,,,,1185.2445253999906,101,24,female,True,11852,11857,False,False,expiration,expiration
478,0.4508258632322356,25,down,down,0.4002649000030942,0.4534072703879223,,experiment,cRDM,1.0,,,,1186.4944596999846,101,24,female,True,11864,11868,False,False,expiration,trough
479,0.4508258632322356,25,down,down,0.42229560000123456,1.51720715100883,,experiment,cRDM,1.0,,,,1188.6944045999844,101,24,female,True,11886,11890,False,False,expiration,expiration
480,0.4508258632322356,25,up,down,0.3671160999801941,1.3567453842456092,,experiment,cRDM,1.0,,,,1190.7443666000036,101,24,female,True,11907,11911,False,False,peak,expiration
481,0.4508258632322356,25,up,up,0.6051043999905232,1.8920681033897448,,experiment,cRDM,1.0,,,,1193.3275746,101,24,female,True,11933,11939,False,False,inspiration,expiration
482,0.4508258632322356,25,up,up,0.5095399999991059,1.011542386875639,,experiment,cRDM,1.0,,,,1195.1941596999825,101,24,female,True,11951,11956,False,False,expiration,expiration
483,0.4508258632322356,25,up,up,0.4959808999847155,1.3394158934486224,,experiment,cRDM,1.0,,,,1197.310745900002,101,24,female,True,11972,11977,False,False,expiration,expiration
484,0.4508258632322356,25,up,up,0.5046565000084229,0.8599786568754488,,experiment,cRDM,1.0,,,,1198.9440461999914,101,24,female,True,11989,11994,False,False,expiration,inspiration
485,0.4508258632322356,25,down,down,0.3671039000037126,1.507215828186618,,experiment,cRDM,1.0,,,,1201.227320200007,101,24,female,True,12012,12016,False,False,expiration,expiration
486,0.4508258632322356,25,down,down,0.3671502999786753,0.4323580222712412,,experiment,cRDM,1.0,,,,1202.343922,101,24,female,True,12023,12027,False,False,inspiration,inspiration
487,0.4508258632322356,25,up,down,0.2835365000064485,0.4982780875828109,,experiment,cRDM,1.0,,,,1203.527465799998,101,24,female,True,12035,12038,False,False,expiration,expiration
488,0.4508258632322356,25,down,down,0.4742545000044629,1.3454734445703298,,experiment,cRDM,1.0,,,,1205.5604463999914,101,24,female,True,12055,12060,False,False,inspiration,inspiration
489,0.4508258632322356,25,down,down,0.4359980000008363,1.9361453065192469,,experiment,cRDM,1.0,,,,1208.2437057000059,101,24,female,True,12082,12086,False,False,inspiration,inspiration
490,0.4508258632322356,25,down,down,0.3337664999999106,0.4908051879297347,,experiment,cRDM,1.0,,,,1209.4436764999991,101,24,female,True,12094,12097,False,False,expiration,expiration
491,0.4508258632322356,25,up,down,0.36711500000092206,1.5130700758639528,,experiment,cRDM,1.0,,,,1211.6269126999832,101,24,female,True,12116,12120,False,False,trough,inspiration
492,0.4508258632322356,25,down,down,0.7251651000115089,0.640948565491424,,experiment,cRDM,1.0,,,,1212.9435484999851,101,24,female,True,12129,12136,False,False,expiration,expiration
493,0.4508258632322356,25,down,down,0.4002577999781352,0.5896743713193351,,experiment,cRDM,1.0,,,,1214.5100948000036,101,24,female,True,12144,12148,False,False,expiration,expiration
494,0.4508258632322356,25,down,down,0.2671516000118572,1.1504973802252945,,experiment,cRDM,1.0,,,,1216.3267164999852,101,24,female,True,12163,12166,False,False,expiration,expiration
495,0.4508258632322356,25,up,up,0.3504769999999553,1.8048972555212497,,experiment,cRDM,1.0,,,,1218.8266491999964,101,24,female,True,12188,12192,False,False,inspiration,inspiration
496,0.4508258632322356,25,up,up,0.5144933999981731,1.7901826373997702,,experiment,cRDM,1.0,,,,1221.2932094999996,101,24,female,True,12212,12217,False,False,expiration,expiration
497,0.4508258632322356,25,down,down,0.4932159000018146,1.3417195368839478,,experiment,cRDM,1.0,,,,1223.4264704000086,101,24,female,True,12234,12239,False,False,peak,expiration
498,0.4508258632322356,25,up,down,0.40023840000503697,1.2976448087818817,,experiment,cRDM,1.0,,,,1225.4763791000005,101,24,female,True,12254,12258,False,False,expiration,trough
499,0.4508258632322356,25,down,down,0.5543656000227202,0.6184379642887888,,experiment,cRDM,1.0,,,,1226.7763283000095,101,24,female,True,12267,12273,False,False,inspiration,expiration
500,0.4508258632322356,25,up,down,0.3838191000104416,1.6021343080982535,,experiment,cRDM,1.0,,,,1229.2095603999915,101,24,female,True,12291,12295,False,False,expiration,expiration
501,0.4508258632322356,25,up,down,0.4458506999944801,1.5001426230687822,,experiment,cRDM,1.0,,,,1231.3928465000065,101,24,female,True,12313,12317,False,False,expiration,expiration
502,117.0,25,M,down,0.9629884999885691,0.6636408696728621,,experiment,emotion,2.0,,,,1237.6426675999828,101,24,female,True,12376,12386,False,False,expiration,inspiration
503,88.0,25,M,down,0.3668430000252556,1.0674085252973418,,experiment,emotion,2.0,,,,1239.9592652999854,101,24,female,True,12399,12403,False,False,expiration,expiration
504,107.0,25,F,down,0.3001896000059787,1.0067999426994858,,experiment,emotion,2.0,,,,1241.6591774999981,101,24,female,True,12416,12419,False,False,expiration,inspiration
505,117.0,25,F,up,0.684235799999442,1.5062263896513504,,experiment,emotion,2.0,,,,1243.8424560999847,101,24,female,True,12438,12445,False,False,expiration,expiration
506,107.0,25,M,up,0.7700793000112753,1.886401204410336,,experiment,emotion,2.0,,,,1246.6756613999894,101,24,female,True,12466,12474,False,False,expiration,expiration
507,98.0,25,F,up,0.3334397999860812,0.5715105819378641,,experiment,emotion,2.0,,,,1248.2922823999836,101,24,female,True,12482,12485,False,False,expiration,expiration
508,88.0,25,M,up,0.3001222000166308,0.5686278260103717,,experiment,emotion,2.0,,,,1249.5422756999906,101,24,female,True,12495,12498,False,False,inspiration,inspiration
509,98.0,25,M,up,0.3334862000192516,1.963791057524188,,experiment,emotion,2.0,,,,1252.1921389999914,101,24,female,True,12521,12524,False,False,expiration,expiration
510,117.0,25,F,down,0.4001827999891248,1.3794108341407565,,experiment,emotion,2.0,,,,1254.258720999991,101,24,female,True,12542,12546,False,False,expiration,expiration
511,98.0,25,F,down,0.2835084999969695,1.344587356538735,,experiment,emotion,2.0,,,,1256.308632500004,101,24,female,True,12562,12565,False,False,expiration,expiration
512,107.0,25,F,down,0.6827622999844607,0.9576594363884492,,experiment,emotion,2.0,,,,1257.9419274000102,101,24,female,True,12579,12586,False,False,inspiration,expiration
513,117.0,25,F,down,0.7715294999943579,1.0265970439938426,,experiment,emotion,2.0,,,,1259.9251759999895,101,24,female,True,12599,12607,False,False,expiration,inspiration
514,107.0,25,F,down,0.300196700001834,1.5387101032828563,,experiment,emotion,2.0,,,,1262.5083874999834,101,24,female,True,12624,12627,False,False,expiration,expiration
515,88.0,25,F,down,0.3669133000075817,1.6524187329236422,,experiment,emotion,2.0,,,,1264.8583348999964,101,24,female,True,12648,12652,False,False,peak,expiration
516,98.0,25,M,down,0.4974206000042614,1.006930952073065,,experiment,emotion,2.0,,,,1266.5582724999986,101,24,female,True,12665,12670,False,False,expiration,trough
517,88.0,25,M,down,0.200149300013436,1.1945427334120229,,experiment,emotion,2.0,,,,1268.5248153999855,101,24,female,True,12685,12687,False,False,expiration,expiration
518,117.0,25,M,down,0.2668499000137672,0.42241329734489946,,experiment,emotion,2.0,,,,1269.6414691999962,101,24,female,True,12696,12699,False,False,expiration,expiration
519,88.0,25,M,down,0.7879325999820139,1.5537116498728063,,experiment,emotion,2.0,,,,1271.874752100004,101,24,female,True,12718,12726,False,False,expiration,expiration
520,107.0,25,F,down,0.2501771999814082,0.8241445331571275,,experiment,emotion,2.0,,,,1273.7580006000062,101,24,female,True,12737,12740,False,False,inspiration,inspiration
521,107.0,25,M,down,0.35024840000551194,0.6298813920096361,,experiment,emotion,2.0,,,,1275.0912914999935,101,24,female,True,12750,12754,False,False,expiration,expiration
522,98.0,25,M,down,0.2668603000056464,0.7447471143432165,,experiment,emotion,2.0,,,,1276.5245369999902,101,24,female,True,12765,12768,False,False,expiration,expiration
523,98.0,25,F,down,0.383503799996106,0.5878536775157095,,experiment,emotion,2.0,,,,1277.791200000007,101,24,female,True,12777,12781,False,False,inspiration,inspiration
524,88.0,25,M,down,0.33350409998092795,1.051855672738918,,experiment,emotion,2.0,,,,1279.5411271000048,101,24,female,True,12795,12798,False,False,expiration,expiration
525,117.0,25,F,up,0.8450055999855977,1.7439179848460558,,experiment,emotion,2.0,,,,1282.0076796000067,101,24,female,True,12819,12827,False,False,expiration,expiration
526,107.0,25,F,up,0.6437297000084072,1.859451614702708,,experiment,emotion,2.0,,,,1284.9909238999824,101,24,female,True,12849,12855,False,False,inspiration,expiration
527,88.0,25,M,up,0.4002487999969162,0.6035514934677517,,experiment,emotion,2.0,,,,1286.4908798999968,101,24,female,True,12864,12868,False,False,expiration,expiration
528,117.0,25,M,up,0.35021030000643805,0.6475544682976055,,experiment,emotion,2.0,,,,1287.8241048000054,101,24,female,True,12878,12882,False,False,inspiration,inspiration
529,117.0,25,F,up,0.3002260999928694,0.3027902077967926,,experiment,emotion,2.0,,,,1288.824031900003,101,24,female,True,12888,12891,False,False,expiration,expiration
530,98.0,25,M,up,0.5253046999860089,0.5103032487746568,,experiment,emotion,2.0,,,,1290.0073817000086,101,24,female,True,12899,12904,False,False,expiration,expiration
531,88.0,25,F,down,0.7842734000005294,0.5586076842912872,,experiment,emotion,2.0,,,,1291.357364399999,101,24,female,True,12913,12921,False,False,inspiration,peak
532,98.0,25,F,down,0.3835159000009298,0.8072986427920921,,experiment,emotion,2.0,,,,1293.2239390999894,101,24,female,True,12932,12936,False,False,expiration,expiration
533,107.0,25,F,down,0.3668331000080798,1.2078761421499276,,experiment,emotion,2.0,,,,1295.1238715999934,101,24,female,True,12951,12955,False,False,expiration,expiration
534,88.0,25,M,down,0.25016200001118705,1.420791767874635,,experiment,emotion,2.0,,,,1297.2404743999941,101,24,female,True,12972,12975,False,False,inspiration,inspiration
535,117.0,25,M,down,0.2501820999896154,0.7280936712312507,,experiment,emotion,2.0,,,,1298.657080600009,101,24,female,True,12986,12989,False,False,expiration,expiration
536,107.0,25,M,down,0.25016960001084954,0.5088527391198094,,experiment,emotion,2.0,,,,1299.8570386999927,101,24,female,True,12998,13001,False,False,expiration,expiration
537,117.0,25,F,down,0.4834088999778032,1.5484260878923557,,experiment,emotion,2.0,,,,1302.090303999983,101,24,female,True,13020,13025,False,False,expiration,expiration
