,stimLvl,stimTime,rand,response,rt,precedingITI,trialNumber,trialType,stimuli,block,estIntens,estThres,estSlope,trialStart,subject,age,gender,headRest,onset,responsI,manBadOnset,manBadRespons,onset_phase,respons_phase
0,0.9,100,down,down,1.3838111999793907,0.7366461226126676,,introTrial,cRDM,,,,,206.51127409999023,118,22,female,True,2064,2078,False,False,expiration,expiration
1,150.0,100,F,up,1.4167594999889843,1.8346669566275704,,introTrial,emotion,,,,,210.29449850000674,118,22,female,True,2102,2116,False,False,expiration,inspiration
2,0.9,25,down,down,0.6110296999686398,0.7618131896711537,,tutorial,cRDM,,,,,255.14281789999225,118,22,female,True,2550,2556,False,False,expiration,expiration
3,0.9,25,up,up,0.3670234000310302,1.1785664605376371,,tutorial,cRDM,,,,,257.20941300003324,118,22,female,True,2571,2575,False,False,inspiration,peak
4,0.9,25,down,down,0.3506690000067465,1.8754032508942169,,tutorial,cRDM,,,,,259.77583380002756,118,22,female,True,2597,2601,False,False,inspiration,expiration
5,0.9,25,down,down,0.3173384999972768,1.722106069411114,,tutorial,cRDM,,,,,262.175751200004,118,22,female,True,2621,2624,False,False,inspiration,expiration
6,0.9,25,up,up,0.416791399999056,0.7730935959947824,,tutorial,cRDM,,,,,263.6425123999943,118,22,female,True,2635,2639,False,False,expiration,inspiration
7,0.9,25,down,down,0.3340857000439428,1.613907627825215,,tutorial,cRDM,,,,,265.9424409000203,118,22,female,True,2658,2661,False,False,expiration,expiration
8,0.9,25,up,up,0.4799051000154577,1.971365249323426,,tutorial,cRDM,,,,,268.6089905000408,118,22,female,True,2685,2690,False,False,inspiration,inspiration
9,0.9,25,up,down,0.36735529999714345,0.8333018875154151,,tutorial,cRDM,,,,,270.1922712000087,118,22,female,True,2701,2705,False,False,inspiration,expiration
10,0.9,25,up,up,0.4709650999866426,0.5140559774329241,,tutorial,cRDM,,,,,271.40888599999016,118,22,female,True,2713,2718,False,False,expiration,expiration
11,0.9,25,down,down,0.4681679999921471,1.924129482575758,,tutorial,cRDM,,,,,274.07572890003206,118,22,female,True,2740,2745,False,False,inspiration,expiration
12,200.0,25,M,up,0.3834793000132777,0.478843966595854,,tutorial,emotion,,,,,281.47518980002496,118,22,female,True,2814,2818,False,False,inspiration,peak
13,200.0,25,M,up,0.4299879999598488,1.1614494421814865,,tutorial,emotion,,,,,283.34177880000783,118,22,female,True,2832,2836,False,False,trough,inspiration
14,200.0,25,F,up,0.35027400002582,1.8155156108168848,,tutorial,emotion,,,,,285.85833360004466,118,22,female,True,2857,2861,False,False,inspiration,inspiration
15,0.0,25,F,down,0.3834850999992341,1.3841515529570894,,tutorial,emotion,,,,,287.95826410001615,118,22,female,True,2878,2882,False,False,expiration,expiration
16,0.0,25,M,down,0.7566369000123814,0.35514766458982056,,tutorial,emotion,,,,,289.0082328999997,118,22,female,True,2889,2897,False,False,inspiration,peak
17,200.0,25,F,up,0.4643379000481218,0.3961158673099325,,tutorial,emotion,,,,,290.44153290003305,118,22,female,True,2903,2908,False,False,expiration,expiration
18,0.0,25,M,down,0.3834883000236005,0.4419541876794082,,tutorial,emotion,,,,,291.6414778000326,118,22,female,True,2915,2919,False,False,inspiration,inspiration
19,200.0,25,M,up,0.4354254999780096,1.7283320163736815,,tutorial,emotion,,,,,294.0914015000453,118,22,female,True,2940,2944,False,False,inspiration,inspiration
20,0.0,25,F,down,0.3500960000092164,1.8140888796530272,,tutorial,emotion,,,,,296.62462360004434,118,22,female,True,2965,2969,False,False,inspiration,inspiration
21,0.0,25,F,up,0.4005372999818064,0.7376707011427917,,tutorial,emotion,,,,,298.07447809999576,118,22,female,True,2980,2984,False,False,expiration,trough
22,0.29,25,up,up,0.33381580002605915,0.4926662081090486,,psi_staircase_training,cRDM,,0.25,0.25693124029946324,0.10500000000000002,310.3574446000275,118,22,female,True,3102,3105,False,False,expiration,expiration
23,0.25,25,up,up,0.3671741000143811,1.45540644096159,,psi_staircase_training,cRDM,,0.21910266653183127,0.2260132002683493,0.10468632033873933,312.5073748000432,118,22,female,True,3124,3128,False,False,expiration,expiration
24,0.21,25,down,down,0.4441286000073888,1.4751707922676145,,psi_staircase_training,cRDM,,0.1900540959403307,0.19684979615540016,0.10294672984249993,314.6737941000028,118,22,female,True,3146,3150,False,False,expiration,expiration
25,0.18,25,down,down,0.6822844999842346,1.499397877948877,,psi_staircase_training,cRDM,,0.1635257589279754,0.1701521334256793,0.100381647756865,316.8905626999913,118,22,female,True,3168,3175,False,False,inspiration,expiration
26,0.15,25,up,up,0.3842132000136189,1.8321354655377744,,psi_staircase_training,cRDM,,0.14018955742449365,0.14660133511875031,0.0971307628663642,319.6904450000148,118,22,female,True,3196,3200,False,False,expiration,expiration
27,0.13,25,down,down,0.2838213999639265,1.5493946716692846,,psi_staircase_training,cRDM,,0.11987606021454796,0.12605547676183335,0.09361076941961036,321.9236944000004,118,22,female,True,3218,3221,False,False,expiration,expiration
28,0.11,25,up,up,0.4205536000081338,1.8663645463104508,,psi_staircase_training,cRDM,,0.10257735236965487,0.10849103445698656,0.08958521019937955,324.4903130000457,118,22,female,True,3244,3248,False,False,expiration,expiration
29,0.09,25,down,down,0.31716879998566583,1.2756468361996631,,psi_staircase_training,cRDM,,0.08784432595859408,0.09348182153209693,0.08540131486476357,326.45683929999365,118,22,female,True,3263,3266,False,False,expiration,trough
30,0.08,25,down,up,0.6164189000264741,1.3785382863240578,,psi_staircase_training,cRDM,,0.07518520921180863,0.0805556301471181,0.08135545354720439,328.5234400000191,118,22,female,True,3284,3290,False,False,expiration,inspiration
31,0.13,25,up,down,0.4003096999949776,1.5786944260986089,,psi_staircase_training,cRDM,,0.1145374077699418,0.12103712105675656,0.09846288191283688,331.0067024000455,118,22,female,True,3309,3313,False,False,inspiration,inspiration
32,0.2,25,down,down,0.9948347000172362,0.4382765280981051,,psi_staircase_training,cRDM,,0.16369417802888606,0.17147461567943656,0.11786432413417668,332.1400020000292,118,22,female,True,3320,3330,False,False,expiration,expiration
33,0.18,25,down,up,0.4333139000227675,1.1029461387868906,,psi_staircase_training,cRDM,,0.14776472512940192,0.1553323279426576,0.1146401309233758,334.5065537000192,118,22,female,True,3344,3348,False,False,expiration,expiration
34,0.26,25,down,up,0.4950078999972902,0.7293783039236659,,psi_staircase_training,cRDM,,0.20278774260950413,0.21130796821068112,0.12907122671722426,335.93985270004487,118,22,female,True,3358,3363,False,False,inspiration,expiration
35,0.34,25,up,up,0.48147349996725103,1.9001294502705277,,psi_staircase_training,cRDM,,0.2759679951587541,0.28507826779299705,0.13800973350607734,338.60640910000075,118,22,female,True,3385,3390,False,False,peak,expiration
36,0.32,25,up,up,0.4626410999917425,1.8193093722287792,,psi_staircase_training,cRDM,,0.2570287064167749,0.26624509003241403,0.1396171879536554,341.17321790003916,118,22,female,True,3411,3416,False,False,expiration,expiration
37,0.31,25,down,down,0.439645099977497,1.8908156456493368,,psi_staircase_training,cRDM,,0.23987115500088144,0.24911797309376224,0.14007823388083487,343.80621629999945,118,22,female,True,3437,3441,False,False,expiration,expiration
38,0.26,25,down,down,0.3004882999812253,0.8041978986442562,,psi_staircase_training,cRDM,,0.22495150668296826,0.2341626616601215,0.1395379803346282,345.32284219999565,118,22,female,True,3452,3455,False,False,inspiration,inspiration
39,0.25,25,up,up,0.41775580000830814,0.9301064428973124,,psi_staircase_training,cRDM,,0.20904234533204147,0.2184091015557907,0.14189515310410322,346.95608209999045,118,22,female,True,3468,3472,False,False,expiration,expiration
40,0.24,25,up,up,0.4721664999960922,1.8664395939065963,,psi_staircase_training,cRDM,,0.1946651305225312,0.20412562453409,0.14331516846856324,349.5227049000096,118,22,female,True,3494,3499,False,False,expiration,inspiration
41,0.24,25,up,up,0.4619798000203446,0.7131249574833332,,psi_staircase_training,cRDM,,0.18188958717406828,0.1913794945499156,0.14376074575586886,350.97287560004037,118,22,female,True,3509,3514,False,False,expiration,expiration
42,0.23,25,up,up,0.6069509000517428,0.5923901228193225,,psi_staircase_training,cRDM,,0.17099845540504266,0.18044582038293533,0.14311627931231133,352.3059057000209,118,22,female,True,3522,3528,False,False,trough,inspiration
43,0.23,25,down,down,0.2838348000077531,1.868868713896356,,psi_staircase_training,cRDM,,0.1614683856090964,0.17083528202656478,0.14189727687126108,355.05580630002083,118,22,female,True,3549,3552,False,False,inspiration,inspiration
44,0.22,25,down,down,0.3338228000211529,0.9696033200492816,,psi_staircase_training,cRDM,,0.15344889750264368,0.16269312195161886,0.1400389432779521,356.72240299999254,118,22,female,True,3566,3569,False,False,expiration,expiration
45,0.17,25,down,down,0.3337985000107437,0.877307416640376,,psi_staircase_training,cRDM,,0.1463462257659431,0.1554557612559501,0.13799856665260934,358.3056795000448,118,22,female,True,3582,3585,False,False,inspiration,peak
46,0.16,25,up,up,0.4169920000131242,1.8991901839267364,,psi_staircase_training,cRDM,,0.13730478554159947,0.14659948806926945,0.1408036257927637,360.8889595000073,118,22,female,True,3608,3612,False,False,inspiration,expiration
47,0.17,25,up,up,0.233965800027363,1.484321819899694,,psi_staircase_training,cRDM,,0.1287909799005269,0.13823250127491313,0.14302775570879026,363.07202880003024,118,22,female,True,3630,3632,False,False,inspiration,inspiration
48,0.16,25,down,down,0.4002720999997109,0.6461657647858801,,psi_staircase_training,cRDM,,0.12146157437897565,0.13093642071276168,0.14353258898332708,364.4221287000109,118,22,female,True,3643,3647,False,False,expiration,expiration
49,0.16,25,down,down,0.421527199971024,1.9551743165546416,,psi_staircase_training,cRDM,,0.11461817201984392,0.12410772667802122,0.1437554025050574,367.07228700001724,118,22,female,True,3670,3674,False,False,expiration,trough
50,0.17,25,up,up,0.4002440999611281,1.2670706988367573,,psi_staircase_training,cRDM,,0.10855430840154873,0.11800807860678054,0.14321331084513286,369.0386284000124,118,22,female,True,3689,3693,False,False,expiration,expiration
51,0.17,25,up,up,0.4692777000018396,1.7496987385155836,,psi_staircase_training,cRDM,,0.10353887932542752,0.11289136945626264,0.14167903886029348,371.4885567000019,118,22,female,True,3714,3719,False,False,expiration,expiration
52,100.0,25,M,down,0.4960862000007182,0.8342888577009249,,psi_staircase_training,emotion,,100.0,100.0,25.00050000000001,387.15487790002953,118,22,female,True,3871,3876,False,False,expiration,expiration
53,145.0,25,M,up,0.5459833000204526,0.3496390868291901,,psi_staircase_training,emotion,,145.25719053245996,145.25719053245996,25.000500000000283,388.33788659999846,118,22,female,True,3882,3887,False,False,inspiration,inspiration
54,121.0,25,F,down,0.6354307000292465,1.9328453633754552,,psi_staircase_training,emotion,,120.36392901436103,120.36392901436103,25.71326925488699,391.1713920999901,118,22,female,True,3911,3917,False,False,inspiration,inspiration
55,137.0,25,F,up,0.6014512000256218,1.1588671305652838,,psi_staircase_training,emotion,,137.8359832966118,137.8359832966118,25.292325986285494,393.3044173000381,118,22,female,True,3932,3938,False,False,trough,inspiration
56,127.0,25,M,up,0.4168994000065141,1.516343377913615,,psi_staircase_training,emotion,,126.46069055808249,126.46069055808249,23.649751085611292,395.770871900022,118,22,female,True,3957,3961,False,False,expiration,inspiration
57,113.0,25,F,up,0.3668206000002101,1.1307975614334116,,psi_staircase_training,emotion,,117.5164469811675,117.5164469811675,24.576174135130763,397.6709152000258,118,22,female,True,3976,3980,False,False,expiration,expiration
58,94.0,25,M,down,0.4347066999762319,1.0558778968596212,,psi_staircase_training,emotion,,106.52678028801836,106.52678028801836,30.115701177201284,399.5041582999984,118,22,female,True,3994,3998,False,False,inspiration,expiration
59,98.0,25,F,down,0.4818339999765158,0.8147178267270965,,psi_staircase_training,emotion,,112.69176471044777,112.69176471044777,27.72735343080098,401.10410220001364,118,22,female,True,4010,4015,False,False,inspiration,inspiration
60,132.0,25,F,up,0.6045449000084773,1.7981192765697738,,psi_staircase_training,emotion,,116.55524461345101,116.55524461345101,25.686082281091608,403.73732130002463,118,22,female,True,4036,4042,False,False,trough,inspiration
61,103.0,25,M,up,0.4472507999744266,1.277069757948019,,psi_staircase_training,emotion,,113.7593527695303,113.7593527695303,23.877520687671648,405.9706025000196,118,22,female,True,4059,4063,False,False,expiration,inspiration
62,89.0,25,F,down,0.4196805999963544,0.9833934139769692,,psi_staircase_training,emotion,,106.970000257245,106.970000257245,28.47559920864261,407.7541348999948,118,22,female,True,4077,4081,False,False,expiration,expiration
63,91.0,25,F,down,0.4804004000034183,1.0544638833758528,,psi_staircase_training,emotion,,109.64127021210014,109.64127021210014,26.604015150838336,409.57045970001485,118,22,female,True,4095,4100,False,False,inspiration,expiration
64,128.0,25,F,down,0.521822200040333,0.3823078610677789,,psi_staircase_training,emotion,,111.590326808177,111.590326808177,24.932290871560106,410.7870857000234,118,22,female,True,4107,4112,False,False,expiration,trough
65,140.0,25,M,up,0.4668753999867477,1.5826509292291884,,psi_staircase_training,emotion,,117.3500159149452,117.3500159149452,29.95184063361361,413.23697410000017,118,22,female,True,4131,4136,False,False,expiration,trough
66,92.0,25,M,down,0.6849337999592535,0.4735759556667774,,psi_staircase_training,emotion,,115.5668799031325,115.5668799031325,28.636405815310674,414.53692470001994,118,22,female,True,4144,4151,False,False,inspiration,expiration
67,139.0,25,F,up,0.4866293999948539,1.2507890555263408,,psi_staircase_training,emotion,,116.97172433352034,116.97172433352034,27.42659309226387,416.82018370000884,118,22,female,True,4167,4172,False,False,inspiration,expiration
68,93.0,25,F,down,0.28351829998428,1.8279390462860547,,psi_staircase_training,emotion,,115.55761258947146,115.55761258947146,26.11072696504723,419.4867588999914,118,22,female,True,4194,4197,False,False,inspiration,expiration
69,138.0,25,M,up,0.482858799980022,1.95967185880348,,psi_staircase_training,emotion,,116.67821993434372,116.67821993434372,24.91574418872993,422.21999589999916,118,22,female,True,4221,4226,False,False,expiration,expiration
70,94.0,25,M,up,0.40017650002846494,1.9493794005932752,,psi_staircase_training,emotion,,115.54846788641092,115.54846788641092,23.66276103948256,425.0032219000277,118,22,female,True,4249,4253,False,False,expiration,expiration
71,85.0,25,M,down,0.6753319000126794,0.7270205033890336,,psi_staircase_training,emotion,,111.45771838078876,111.45771838078876,28.74541061338216,426.4865040000295,118,22,female,True,4264,4271,False,False,inspiration,inspiration
72,137.0,25,M,up,0.6124151999829337,0.6620911123941526,,psi_staircase_training,emotion,,112.44726906618557,112.44726906618557,27.698896183458828,428.18643920001335,118,22,female,True,4281,4287,False,False,expiration,trough
73,86.0,25,F,down,0.4925424999673851,1.8816396692439483,,psi_staircase_training,emotion,,111.49124523938481,111.49124523938481,26.664818905395236,431.0363456000341,118,22,female,True,4309,4314,False,False,expiration,inspiration
74,136.0,25,F,up,0.4902445000479929,0.7398801950608032,,psi_staircase_training,emotion,,112.32040731059799,112.32040731059799,25.656830520893607,432.61960670002736,118,22,female,True,4325,4330,False,False,expiration,expiration
75,88.0,25,F,down,0.4001813000068069,1.3236002260493116,,psi_staircase_training,emotion,,111.50825997765007,111.50825997765007,24.673584603848585,434.7862001000322,118,22,female,True,4347,4351,False,False,expiration,expiration
76,135.0,25,M,up,0.7344068000093102,1.3687734086221572,,psi_staircase_training,emotion,,112.23899717561527,112.23899717561527,23.725065860433407,436.91945869999466,118,22,female,True,4368,4375,False,False,inspiration,trough
77,89.0,25,M,down,0.7162084999727085,1.5989863995761844,,psi_staircase_training,emotion,,111.54122236761722,111.54122236761722,22.819642761811103,439.60268040001387,118,22,female,True,4395,4402,False,False,expiration,expiration
78,133.0,25,F,up,0.5364042999572121,1.7981001090563673,,psi_staircase_training,emotion,,112.1646967653197,112.1646967653197,21.964892625586163,442.45246230001794,118,22,female,True,4424,4429,False,False,expiration,expiration
79,91.0,25,F,down,0.72265020001214,0.5726395168746837,,psi_staircase_training,emotion,,111.52394602535809,111.52394602535809,21.14365755621744,443.91919450002024,118,22,female,True,4438,4445,False,False,inspiration,inspiration
80,131.0,25,M,down,0.3500258999993093,1.3164489512576316,,psi_staircase_training,emotion,,112.09530033444143,112.09530033444143,20.381694257611638,446.3024328000029,118,22,female,True,4462,4466,False,False,inspiration,inspiration
81,139.0,25,M,up,0.4934619999839924,0.8156171628305247,,psi_staircase_training,emotion,,114.86179552580113,114.86179552580113,23.73934395573308,447.9023916000151,118,22,female,True,4478,4483,False,False,expiration,expiration
82,0.29,25,up,up,0.400227400008589,1.5122766649163375,,psi_staircase,cRDM,,0.25,0.25693124029946324,0.10500000000000002,473.48479439999215,118,22,female,True,4734,4738,False,False,expiration,expiration
83,0.25,25,up,up,0.4167741999845021,0.6407016962932081,,psi_staircase,cRDM,,0.21910266653183127,0.2260132002683493,0.10468632033873933,474.8180576000012,118,22,female,True,4747,4751,False,False,inspiration,inspiration
84,0.21,25,down,down,0.4774424000061117,0.4163029945836581,,psi_staircase,cRDM,,0.1900540959403307,0.19684979615540016,0.10294672984249993,475.901371999993,118,22,female,True,4758,4763,False,False,expiration,expiration
85,0.18,25,down,down,0.5902752000256442,1.7932106806589718,,psi_staircase,cRDM,,0.1635257589279754,0.1701521334256793,0.100381647756865,478.4345756000257,118,22,female,True,4783,4789,False,False,expiration,expiration
86,0.15,25,up,up,0.3171330000041053,1.5355109050336448,,psi_staircase,cRDM,,0.14018955742449365,0.14660133511875031,0.0971307628663642,480.8178484000382,118,22,female,True,4807,4810,False,False,expiration,expiration
87,0.13,25,down,down,0.42238330002874136,1.784234024316161,,psi_staircase,cRDM,,0.11987606021454796,0.12605547676183335,0.09361076941961036,483.2844177000225,118,22,female,True,4832,4836,False,False,expiration,expiration
88,0.11,25,up,up,0.367252699972596,1.4317950904737429,,psi_staircase,cRDM,,0.10257735236965487,0.10849103445698656,0.08958521019937955,485.40100400004303,118,22,female,True,4853,4857,False,False,inspiration,expiration
89,0.09,25,down,down,0.31719029997475445,1.6951457913645065,,psi_staircase,cRDM,,0.08784432595859408,0.09348182153209693,0.08540131486476357,487.7842188000213,118,22,female,True,4877,4880,False,False,inspiration,peak
90,0.08,25,down,up,0.4436629999545403,0.5690453667826514,,psi_staircase,cRDM,,0.07518520921180863,0.0805556301471181,0.08135545354720439,489.0341792000109,118,22,female,True,4889,4893,False,False,expiration,trough
91,0.13,25,up,up,0.5160055000451393,0.5603733040401008,,psi_staircase,cRDM,,0.1145374077699418,0.12103712105675656,0.09846288191283688,490.30080610001465,118,22,female,True,4902,4907,False,False,inspiration,expiration
92,0.13,25,down,down,0.4994280999526382,1.7871771238113017,,psi_staircase,cRDM,,0.1023941484636294,0.10857748278643099,0.09367011903258447,492.8674186000135,118,22,female,True,4928,4933,False,False,inspiration,expiration
93,0.12,25,down,up,0.4729470000020228,1.625009272586699,,psi_staircase,cRDM,,0.093157405715179,0.09896538803474302,0.08798398514641666,495.25089409999777,118,22,female,True,4952,4957,False,False,expiration,expiration
94,0.16,25,down,down,0.5044664000160992,0.5734297147369787,,psi_staircase,cRDM,,0.1290085181734406,0.136602985232638,0.11504709211675675,496.55040290002944,118,22,female,True,4965,4970,False,False,trough,inspiration
95,0.16,25,up,up,0.38406259997282177,1.8594168433462472,,psi_staircase,cRDM,,0.1173317507949223,0.12465379317969215,0.1109201841494908,499.1671900000074,118,22,female,True,4991,4995,False,False,inspiration,inspiration
96,0.15,25,up,down,0.5351984999724664,1.6010452116291898,,psi_staircase,cRDM,,0.10843366749217152,0.11543044405032805,0.10599279593052408,501.450665100012,118,22,female,True,5014,5019,False,False,inspiration,inspiration
97,0.2,25,down,down,0.4615837999735959,0.8992278769430351,,psi_staircase,cRDM,,0.14409855016609446,0.15281347691523378,0.1320207162245539,503.1502492,118,22,female,True,5031,5036,False,False,expiration,trough
98,0.19,25,down,down,0.5205787000013515,1.2246425059617296,,psi_staircase,cRDM,,0.13259126637712648,0.14112390346443188,0.12925924588654691,505.1002688000444,118,22,female,True,5050,5055,False,False,expiration,expiration
99,0.18,25,up,up,0.3505158000043593,0.9389529618570468,,psi_staircase,cRDM,,0.12330393288083467,0.13162155480034854,0.12600202327664015,506.8168758000247,118,22,female,True,5067,5071,False,False,inspiration,peak
100,0.14,25,up,up,0.3672676999703981,1.8563175845161293,,psi_staircase,cRDM,,0.11572233632952808,0.12381126019289072,0.1225375212743451,509.3499945999938,118,22,female,True,5093,5097,False,False,inspiration,expiration
101,0.14,25,up,up,0.5554607000085525,0.6549706729391608,,psi_staircase,cRDM,,0.10710680477941463,0.11528399028801095,0.12387457962885877,510.68339300004305,118,22,female,True,5106,5112,False,False,expiration,inspiration
102,0.14,25,up,up,0.4744746999931522,0.4678308884977838,,psi_staircase,cRDM,,0.09973460123498387,0.10790990110210134,0.1238460144158912,511.98336230003036,118,22,female,True,5119,5124,False,False,inspiration,expiration
103,0.11,25,down,down,0.3172790000098757,0.6303184679023026,,psi_staircase,cRDM,,0.0935440351545593,0.1016454502194368,0.12272674803642407,513.3498848000308,118,22,female,True,5133,5136,False,False,expiration,trough
104,0.11,25,down,up,0.6659189999918453,0.574414226812433,,psi_staircase,cRDM,,0.0865336216413926,0.09483155746005888,0.12570380239557274,514.5999281000113,118,22,female,True,5145,5152,False,False,inspiration,expiration
105,0.16,25,down,down,0.4550863999756984,0.5141572845902633,,psi_staircase,cRDM,,0.10648934151152628,0.1144686538970861,0.1208770384931918,516.0497510000132,118,22,female,True,5160,5165,False,False,expiration,inspiration
106,0.15,25,up,up,0.4206579999881797,0.5990861960559608,,psi_staircase,cRDM,,0.10207595089766712,0.10980333733689536,0.11706066173781285,517.3831575000077,118,22,female,True,5173,5177,False,False,expiration,expiration
107,0.1,25,up,down,0.4006663999753073,0.4672423809398564,,psi_staircase,cRDM,,0.0981069301134532,0.1056107254327054,0.11367352371010618,518.5496496999987,118,22,female,True,5185,5189,False,False,expiration,inspiration
108,0.16,25,down,down,0.5387230999767779,0.8425802419742201,,psi_staircase,cRDM,,0.11450159686265787,0.12083083410851075,0.0958803738006334,520.083069400047,118,22,female,True,5200,5205,False,False,expiration,expiration
109,0.15,25,down,up,0.5161942000268027,0.6107864745500745,,psi_staircase,cRDM,,0.11176694893864728,0.11771008178792147,0.09003135401641055,521.4996966000182,118,22,female,True,5214,5219,False,False,inspiration,inspiration
110,0.18,25,up,up,0.3998896999983117,1.3592780386111774,,psi_staircase,cRDM,,0.12576974750182776,0.13366138879338935,0.11954892628353005,523.6498434999958,118,22,female,True,5236,5240,False,False,expiration,inspiration
111,0.18,25,up,up,0.3839011999662034,1.5152548405706459,,psi_staircase,cRDM,,0.12173752539407867,0.1293095542151002,0.1147071796470293,525.8493909999961,118,22,female,True,5258,5262,False,False,expiration,inspiration
112,0.13,25,down,down,0.5024537999997847,1.861696847311709,,psi_staircase,cRDM,,0.11864047159552332,0.12587937283953338,0.10966069531306208,528.3994141000438,118,22,female,True,5283,5288,False,False,expiration,expiration
113,0.13,25,up,up,0.4397821000311524,1.7930778276409682,,psi_staircase,cRDM,,0.11234514341077513,0.11993718063401945,0.11501028300842267,530.9660253000329,118,22,female,True,5309,5313,False,False,expiration,expiration
114,0.14,25,down,down,0.3838570000370965,1.9900133667271942,,psi_staircase,cRDM,,0.10657406178108587,0.114406461060425,0.11865148065841738,533.6659077000222,118,22,female,True,5336,5340,False,False,expiration,expiration
115,0.14,25,up,up,0.4002562999958173,1.6868429758577117,,psi_staircase,cRDM,,0.10220535243744047,0.1100235704119072,0.11843665085202365,536.0324574999977,118,22,female,True,5359,5363,False,False,expiration,expiration
116,0.1,25,down,down,0.5754151999717578,1.6553335416116342,,psi_staircase,cRDM,,0.09848078729458164,0.1062230514039827,0.11728604064557716,538.3823998000007,118,22,female,True,5383,5389,False,False,inspiration,expiration
117,0.1,25,up,up,0.4167596999905072,1.0430684009083748,,psi_staircase,cRDM,,0.0926865260896849,0.10090696417103734,0.12452980437120985,540.2823426999968,118,22,female,True,5402,5406,False,False,inspiration,inspiration
118,0.1,25,down,down,0.5665724999853411,0.7763447734300559,,psi_staircase,cRDM,,0.08726026096638861,0.09585017885008297,0.13012698143761556,541.7322543000337,118,22,female,True,5416,5422,False,False,expiration,expiration
119,0.1,25,up,up,0.3838414000347257,1.6553021984581506,,psi_staircase,cRDM,,0.08227696514133821,0.09113997405456102,0.1342639838876254,544.232146400027,118,22,female,True,5441,5445,False,False,expiration,expiration
120,0.1,25,up,up,0.4168130999896675,0.5852687281488974,,psi_staircase,cRDM,,0.07774869697241199,0.08680511660303952,0.13719392491550575,545.4987833999911,118,22,female,True,5454,5458,False,False,inspiration,inspiration
121,0.1,25,down,up,0.3674272000207566,1.6016696406667268,,psi_staircase,cRDM,,0.07364930725243758,0.08283636526813136,0.1391729401911727,547.7820357000455,118,22,female,True,5477,5481,False,False,inspiration,inspiration
122,0.1,25,down,down,0.4628659000154585,0.8676685967635611,,psi_staircase,cRDM,,0.08579121535663395,0.09470795046847937,0.13507787153422887,549.331946499995,118,22,female,True,5492,5497,False,False,expiration,expiration
123,0.09,25,down,down,0.5709532999899238,1.9299915246465043,,psi_staircase,cRDM,,0.08143326617283632,0.09054403083863202,0.13801718719557698,551.9818994000088,118,22,female,True,5519,5525,False,False,expiration,expiration
124,0.1,25,up,up,0.4360363999730907,1.104282072464496,,psi_staircase,cRDM,,0.07730874747923037,0.08658604653048345,0.14053998394154732,553.9317992000142,118,22,female,True,5538,5542,False,False,expiration,expiration
125,0.17,25,up,up,0.5365791000076571,1.8222536967611789,,psi_staircase,cRDM,,0.07364908972096873,0.08301634506378458,0.14190271416096034,556.4482470999939,118,22,female,True,5564,5569,False,False,peak,expiration
126,0.09,25,down,down,0.4168023000238463,1.2223877753952863,,psi_staircase,cRDM,,0.07181192176418116,0.08106454848882469,0.14016622770426854,558.4816420000278,118,22,female,True,5584,5588,False,False,inspiration,inspiration
127,0.17,25,down,up,0.5786754000000656,0.5880930113245892,,psi_staircase,cRDM,,0.06838739859466775,0.07772991351335763,0.14152792632775996,559.7481664000079,118,22,female,True,5597,5603,False,False,expiration,expiration
128,0.22,25,down,down,0.4913235999993049,1.2530981206614784,,psi_staircase,cRDM,,0.0788468042362516,0.08889139380416619,0.15216351750388815,561.8315081000328,118,22,female,True,5617,5622,False,False,inspiration,peak
129,0.21,25,up,up,0.3674307999899611,1.3072004984162628,,psi_staircase,cRDM,,0.07727463485906881,0.0872162025982909,0.1506028600248001,563.881440200028,118,22,female,True,5638,5642,False,False,expiration,inspiration
130,0.21,25,up,up,0.5437290999689139,0.7313846086382569,,psi_staircase,cRDM,,0.07571476839540353,0.08555584451833048,0.14908053223711598,565.2980696000159,118,22,female,True,5652,5657,False,False,expiration,expiration
131,0.21,25,up,up,0.5994814999867231,0.3176852516916285,,psi_staircase,cRDM,,0.07427894097350407,0.08402052061445305,0.14757327954404473,566.4313284000382,118,22,female,True,5663,5669,False,False,trough,inspiration
132,100.0,25,M,down,0.5772378000547178,1.005144160803087,,psi_staircase,emotion,,100.0,100.0,25.00050000000001,577.797603700019,118,22,female,True,5777,5783,False,False,trough,inspiration
133,145.0,25,M,up,0.4168166999588721,0.9012312158436188,,psi_staircase,emotion,,145.25719053245996,145.25719053245996,25.000500000000283,579.6141844000084,118,22,female,True,5795,5799,False,False,expiration,expiration
134,121.0,25,F,up,0.5000947999651544,1.9908979586235729,,psi_staircase,emotion,,120.36392901436103,120.36392901436103,25.71326925488699,582.3807658000151,118,22,female,True,5823,5828,False,False,expiration,expiration
135,97.0,25,F,down,0.6761696999892592,1.8524639611131102,,psi_staircase,emotion,,102.38876106084959,102.38876106084959,26.14633372628729,585.0806528000394,118,22,female,True,5850,5857,False,False,expiration,expiration
136,113.0,25,M,down,0.5838975000078791,1.1767457045029075,,psi_staircase,emotion,,114.01123255420406,114.01123255420406,23.003056417783352,587.2639052000012,118,22,female,True,5872,5878,False,False,peak,expiration
137,127.0,25,F,up,0.4310008999891579,0.6160914297814134,,psi_staircase,emotion,,123.15505271238727,123.15505271238727,23.86267166612523,588.8138481000206,118,22,female,True,5887,5891,False,False,expiration,inspiration
138,117.0,25,M,up,0.6973625000100583,0.43198473066960297,,psi_staircase,emotion,,116.72664759921038,116.72664759921038,20.612160618334435,590.0304752000376,118,22,female,True,5899,5906,False,False,expiration,expiration
139,107.0,25,F,up,0.5167971000191756,1.5554598590959638,,psi_staircase,emotion,,111.41772370799677,111.41772370799677,20.39996786109954,592.6470352000323,118,22,female,True,5926,5931,False,False,expiration,expiration
140,91.0,25,F,down,0.7861952999955975,0.7814176150332686,,psi_staircase,emotion,,104.32443105099111,104.32443105099111,26.32628876540062,594.3136398000061,118,22,female,True,5942,5950,False,False,inspiration,inspiration
141,93.0,25,M,down,0.7068660000222735,0.8517537426240659,,psi_staircase,emotion,,107.92512315738632,107.92512315738632,23.700331269421763,596.2969353999943,118,22,female,True,5962,5969,False,False,expiration,inspiration
142,124.0,25,F,up,0.8600633999449201,1.0105780792258399,,psi_staircase,emotion,,110.22796413543165,110.22796413543165,21.45892762814926,598.3637579000206,118,22,female,True,5983,5992,False,False,expiration,expiration
143,95.0,25,F,down,0.5297227000119165,1.4229818896762203,,psi_staircase,emotion,,108.403965494472,108.403965494472,19.38210143201049,600.9801210000296,118,22,female,True,6009,6014,False,False,expiration,expiration
144,122.0,25,F,down,0.9944099999847822,0.4645422010912329,,psi_staircase,emotion,,109.94368713509012,109.94368713509012,17.31191981424421,602.3133694000427,118,22,female,True,6022,6032,False,False,expiration,inspiration
145,133.0,25,M,up,0.4465587000013329,1.8582922377426137,,psi_staircase,emotion,,114.59314066093279,114.59314066093279,24.11292154222967,605.5132408000062,118,22,female,True,6054,6058,False,False,inspiration,inspiration
146,132.0,25,M,up,0.5299675000132993,1.0222819803089722,,psi_staircase,emotion,,113.11482960151436,113.11482960151436,22.3415717159731,607.3298561000265,118,22,female,True,6072,6077,False,False,expiration,inspiration
147,95.0,25,F,down,0.5904176000040025,0.6718947132610326,,psi_staircase,emotion,,112.0421199076192,112.0421199076192,20.78866919367305,608.8633829000172,118,22,female,True,6088,6094,False,False,expiration,expiration
148,97.0,25,F,down,0.5054323000367731,0.7549515488456654,,psi_staircase,emotion,,113.14858318163755,113.14858318163755,19.1899060262132,610.5463899000315,118,22,female,True,6104,6109,False,False,inspiration,inspiration
149,130.0,25,M,up,0.5895510999835096,1.280319845086438,,psi_staircase,emotion,,114.00913104773956,114.00913104773956,17.8067915036077,612.6963057999965,118,22,female,True,6126,6132,False,False,trough,inspiration
150,99.0,25,M,down,0.8822742999764159,1.680915666955395,,psi_staircase,emotion,,113.18131505702776,113.18131505702776,16.448035494338278,615.3295223000458,118,22,female,True,6152,6161,False,False,expiration,inspiration
151,127.0,25,M,up,0.5837110000429675,1.32536989408215,,psi_staircase,emotion,,113.881547657974,113.881547657974,15.294028128063893,617.8961096000277,118,22,female,True,6178,6184,False,False,inspiration,inspiration
152,103.0,25,M,down,0.90476890001446,0.6711435379249999,,psi_staircase,emotion,,113.17176259181299,113.17176259181299,14.17861268692099,619.496061700047,118,22,female,True,6194,6203,False,False,expiration,expiration
153,125.0,25,F,up,0.5605724999913946,1.8285441326453509,,psi_staircase,emotion,,113.90039185885715,113.90039185885715,13.267994517046231,622.5792862999951,118,22,female,True,6225,6231,False,False,expiration,expiration
154,107.0,25,F,down,0.7000539999571629,0.7105543171569276,,psi_staircase,emotion,,113.29018031930764,113.29018031930764,12.381396674811938,624.1958658000221,118,22,female,True,6241,6248,False,False,inspiration,expiration
155,124.0,25,F,up,0.6456571000162512,0.8889119011641897,,psi_staircase,emotion,,114.1218099604705,114.1218099604705,11.732988674591825,626.1291351999971,118,22,female,True,6260,6266,False,False,inspiration,inspiration
156,108.0,25,M,down,0.628449100011494,1.673262675507321,,psi_staircase,emotion,,113.61182206910941,113.61182206910941,11.025272335255975,628.8124016000074,118,22,female,True,6287,6293,False,False,inspiration,peak
157,110.0,25,M,down,0.4928670999943279,0.4012917789024905,,psi_staircase,emotion,,114.33851935599195,114.33851935599195,10.463721733866775,630.1789972000406,118,22,female,True,6301,6306,False,False,expiration,expiration
158,112.0,25,F,down,0.9942654999904336,1.3627090578572658,,psi_staircase,emotion,,115.07567160132861,115.07567160132861,10.008635855332788,632.3955728000146,118,22,female,True,6323,6333,False,False,expiration,expiration
159,124.0,25,F,up,0.6727562000160106,0.4889820041703719,,psi_staircase,emotion,,115.84098410282556,115.84098410282556,9.65015955146348,634.2121730000363,118,22,female,True,6341,6348,False,False,inspiration,peak
160,112.0,25,M,down,0.7141039000125602,1.9182346164532464,,psi_staircase,emotion,,115.44248187728384,115.44248187728384,9.082412026105592,637.128725800023,118,22,female,True,6370,6377,False,False,inspiration,expiration
161,112.0,25,M,up,0.5858434999827296,1.4832526055377693,,psi_staircase,emotion,,116.07671089524617,116.07671089524617,8.662826299521411,639.6619841000065,118,22,female,True,6396,6402,False,False,inspiration,inspiration
162,124.0,25,F,down,1.2578779000323266,0.4010488111394808,,psi_staircase,emotion,,114.87633427164215,114.87633427164215,9.678037996756851,640.9619361000367,118,22,female,True,6409,6422,False,False,expiration,trough
163,129.0,25,M,down,0.8566888999775983,1.6266248666090088,,psi_staircase,emotion,,116.35249252910695,116.35249252910695,12.032724143929991,644.1951450000051,118,22,female,True,6441,6450,False,False,expiration,expiration
164,135.0,25,F,up,0.6914593999972567,1.168882383262185,,psi_staircase,emotion,,118.09589832298387,118.09589832298387,15.681520202784073,646.578389900038,118,22,female,True,6465,6472,False,False,expiration,expiration
165,134.0,25,M,up,0.938833500025794,0.9573543347064686,,psi_staircase,emotion,,117.72725492861592,117.72725492861592,14.828155491854154,648.594979000045,118,22,female,True,6485,6494,False,False,inspiration,expiration
166,133.0,25,F,up,0.6636469999793917,1.6623760752394388,,psi_staircase,emotion,,117.42580734388298,117.42580734388298,14.10657265130475,651.5281856000074,118,22,female,True,6514,6521,False,False,inspiration,expiration
167,103.0,25,M,down,0.7133440000470728,1.26670533510418,,psi_staircase,emotion,,117.17117912266748,117.17117912266748,13.490589204491453,653.8114633000223,118,22,female,True,6537,6544,False,False,expiration,inspiration
168,132.0,25,F,up,0.7001978000043891,1.1705135317826874,,psi_staircase,emotion,,117.41912691270868,117.41912691270868,12.948332308479431,656.044595000043,118,22,female,True,6560,6567,False,False,expiration,inspiration
169,104.0,25,M,down,0.7664869999862276,0.4290288785220471,,psi_staircase,emotion,,117.19769967771057,117.19769967771057,12.460399844496472,657.5113188000396,118,22,female,True,6574,6582,False,False,expiration,expiration
170,131.0,25,M,up,0.962530400021933,0.3619972469214777,,psi_staircase,emotion,,117.427563239352,117.427563239352,12.020193060542233,659.0112631000229,118,22,female,True,6589,6599,False,False,trough,inspiration
171,105.0,25,F,down,0.5372919000219554,1.8848837408685248,,psi_staircase,emotion,,117.22710929463724,117.22710929463724,11.626797130670257,662.1945015999953,118,22,female,True,6621,6626,False,False,inspiration,expiration
172,106.0,25,F,down,0.8886130999890156,1.7419591866946715,,psi_staircase,emotion,,117.4459633512955,117.4459633512955,11.262002375792624,664.8442116000224,118,22,female,True,6648,6657,False,False,inspiration,expiration
173,129.0,25,F,up,0.5755043000099249,0.6116123782291187,,psi_staircase,emotion,,117.6579915607698,117.6579915607698,10.932858811476581,666.6943146000268,118,22,female,True,6666,6672,False,False,expiration,inspiration
174,107.0,25,M,down,0.6555242000031285,1.3676536963268109,,psi_staircase,emotion,,117.44929587774577,117.44929587774577,10.61849539542927,668.9942440000012,118,22,female,True,6689,6696,False,False,expiration,inspiration
175,128.0,25,M,up,0.9733108000364156,1.3820146707746428,,psi_staircase,emotion,,117.65985234541178,117.65985234541178,10.335151435519617,671.3774737000349,118,22,female,True,6713,6723,False,False,expiration,expiration
176,108.0,25,F,down,0.6107603000127709,0.7982120367457133,,psi_staircase,emotion,,117.457007893284,117.457007893284,10.066219065985921,673.4940608000034,118,22,female,True,6734,6740,False,False,inspiration,expiration
177,127.0,25,F,down,0.8604812999838032,0.8693970499141079,,psi_staircase,emotion,,117.66922345094996,117.66922345094996,9.817028954123213,675.3273325000191,118,22,female,True,6752,6761,False,False,inspiration,peak
178,131.0,25,F,up,0.5993050000397488,1.7223632032923912,,psi_staircase,emotion,,118.62173887763369,118.62173887763369,10.925546715555628,678.2605068000266,118,22,female,True,6782,6788,False,False,inspiration,inspiration
179,108.0,25,M,down,0.6389313999679871,0.5549268192492625,,psi_staircase,emotion,,118.46325682565607,118.46325682565607,10.664188473275107,679.7438162000035,118,22,female,True,6796,6802,False,False,expiration,expiration
180,108.0,25,M,down,1.2587575000361542,1.9635849709505635,,psi_staircase,emotion,,118.65288356923578,118.65288356923578,10.414407454100227,682.6770766000262,118,22,female,True,6826,6839,False,False,expiration,inspiration
181,130.0,25,M,up,0.5309148999513127,0.34219041366110703,,psi_staircase,emotion,,118.82375947246055,118.82375947246055,10.186494277590274,684.6439454000209,118,22,female,True,6846,6851,False,False,expiration,expiration
182,0.07295397273649756,25,down,up,0.5379355999757536,0.7931704648968498,,experiment,cRDM,0.0,,,,697.7598477000138,118,22,female,True,6977,6982,False,False,expiration,trough
183,0.07295397273649756,25,up,up,0.4913821999798529,1.8664599790666976,,experiment,cRDM,0.0,,,,700.4263918999933,118,22,female,True,7003,7008,False,False,expiration,expiration
184,0.07295397273649756,25,down,down,0.5014564999728464,1.0877329924928962,,experiment,cRDM,0.0,,,,702.2763511000086,118,22,female,True,7022,7027,False,False,inspiration,expiration
185,0.07295397273649756,25,up,up,0.4515509000048041,1.434127886014166,,experiment,cRDM,0.0,,,,704.4762615000363,118,22,female,True,7044,7049,False,False,trough,inspiration
186,0.07295397273649756,25,down,down,0.4489831000100821,1.5069912380440422,,experiment,cRDM,0.0,,,,706.6928435000009,118,22,female,True,7066,7070,False,False,expiration,expiration
187,0.07295397273649756,25,down,up,0.5609163000481203,0.4887917843674213,,experiment,cRDM,0.0,,,,707.8928065000218,118,22,female,True,7078,7084,False,False,inspiration,expiration
188,0.07295397273649756,25,up,down,0.727694800007157,0.35590685407306105,,experiment,cRDM,0.0,,,,709.0761054999894,118,22,female,True,7090,7097,False,False,expiration,inspiration
189,0.07295397273649756,25,down,down,0.6078045000322163,1.0569883319764868,,experiment,cRDM,0.0,,,,711.1260121000232,118,22,female,True,7110,7116,False,False,expiration,expiration
190,0.07295397273649756,25,up,up,0.4808161000255495,0.9690440957126878,,experiment,cRDM,0.0,,,,712.9759615000221,118,22,female,True,7129,7134,False,False,expiration,expiration
191,0.07295397273649756,25,up,up,0.4233559000422247,0.3160078429094681,,experiment,cRDM,0.0,,,,714.0423831000226,118,22,female,True,7140,7144,False,False,expiration,inspiration
192,0.07295397273649756,25,down,up,0.7530106999911368,0.3025484518546172,,experiment,cRDM,0.0,,,,715.025862200011,118,22,female,True,7149,7157,False,False,inspiration,expiration
193,0.07295397273649756,25,up,up,0.485704499995336,0.5697854754295857,,experiment,cRDM,0.0,,,,716.6091394000106,118,22,female,True,7165,7170,False,False,inspiration,inspiration
194,0.07295397273649756,25,up,down,0.5031141999643296,1.8679427123717829,,experiment,cRDM,0.0,,,,719.2257140000003,118,22,female,True,7191,7196,False,False,inspiration,inspiration
195,0.07295397273649756,25,up,up,0.5582113999989815,1.4484344562456632,,experiment,cRDM,0.0,,,,721.4256790000363,118,22,female,True,7213,7219,False,False,inspiration,inspiration
196,0.07295397273649756,25,down,down,0.8135520999785513,0.3548985951657095,,experiment,cRDM,0.0,,,,722.5922643000376,118,22,female,True,7225,7233,False,False,expiration,expiration
197,0.07295397273649756,25,down,down,0.5062966999830678,1.6589085003923054,,experiment,cRDM,0.0,,,,725.325469900039,118,22,female,True,7252,7257,False,False,expiration,expiration
198,0.07295397273649756,25,up,up,0.5136681000003591,0.5911451432017127,,experiment,cRDM,0.0,,,,726.692114000034,118,22,female,True,7266,7271,False,False,inspiration,peak
199,0.07295397273649756,25,up,down,0.5410255999886431,1.6030196870878115,,experiment,cRDM,0.0,,,,729.0587045000284,118,22,female,True,7290,7295,False,False,inspiration,expiration
200,0.07295397273649756,25,down,up,0.6787509000278078,0.5379776205897528,,experiment,cRDM,0.0,,,,730.3919802000163,118,22,female,True,7303,7310,False,False,trough,inspiration
201,0.07295397273649756,25,down,down,0.4595395000069402,1.347474518052581,,experiment,cRDM,0.0,,,,732.6752276000334,118,22,female,True,7326,7331,False,False,expiration,inspiration
202,0.07295397273649756,25,up,up,0.638339500001166,1.6125180767089398,,experiment,cRDM,0.0,,,,735.0084744000342,118,22,female,True,7349,7355,False,False,expiration,inspiration
203,0.07295397273649756,25,down,up,0.6184822999639437,1.3003523438710474,,experiment,cRDM,0.0,,,,737.2083621000056,118,22,female,True,7371,7377,False,False,expiration,expiration
204,0.07295397273649756,25,up,down,0.5037399000138976,1.3840980852112483,,experiment,cRDM,0.0,,,,739.4750169000473,118,22,female,True,7394,7399,False,False,expiration,expiration
205,0.07295397273649756,25,down,up,0.6506607999908738,1.2204247096604934,,experiment,cRDM,0.0,,,,741.4581010999973,118,22,female,True,7414,7421,False,False,expiration,expiration
206,0.07295397273649756,25,down,down,0.4173307999735698,1.1254222112988523,,experiment,cRDM,0.0,,,,743.4915130000445,118,22,female,True,7434,7438,False,False,inspiration,inspiration
207,0.07295397273649756,25,up,up,0.555048500013072,0.5464392916773639,,experiment,cRDM,0.0,,,,744.7247855000314,118,22,female,True,7446,7452,False,False,expiration,expiration
208,0.07295397273649756,25,up,up,0.515475400025025,1.5114756560594875,,experiment,cRDM,0.0,,,,747.0413367000293,118,22,female,True,7469,7474,False,False,expiration,expiration
209,0.07295397273649756,25,down,up,0.5048643000191078,1.5958723085301254,,experiment,cRDM,0.0,,,,749.4079383999924,118,22,female,True,7493,7498,False,False,inspiration,expiration
210,0.07295397273649756,25,up,down,0.4779257000191137,1.3449334397588504,,experiment,cRDM,0.0,,,,751.5078539000243,118,22,female,True,7514,7519,False,False,inspiration,inspiration
211,0.07295397273649756,25,down,down,0.367169700039085,1.7789707021235548,,experiment,cRDM,0.0,,,,754.0244268000242,118,22,female,True,7539,7543,False,False,expiration,inspiration
212,0.07295397273649756,25,up,up,0.5492153000086546,0.653979012590063,,experiment,cRDM,0.0,,,,755.3575827000312,118,22,female,True,7553,7558,False,False,expiration,expiration
213,0.07295397273649756,25,down,up,0.5669037000043318,1.9724582292340171,,experiment,cRDM,0.0,,,,758.1409310000017,118,22,female,True,7580,7586,False,False,peak,expiration
214,0.07295397273649756,25,up,up,0.5358858000254259,0.3272956259691244,,experiment,cRDM,0.0,,,,759.2909100000398,118,22,female,True,7592,7597,False,False,expiration,inspiration
215,0.07295397273649756,25,down,down,0.5254240999929607,1.8696061027594224,,experiment,cRDM,0.0,,,,761.9573885000427,118,22,female,True,7619,7624,False,False,expiration,expiration
216,0.07295397273649756,25,up,up,0.5670005999854766,0.5916076067213634,,experiment,cRDM,0.0,,,,763.3407507000376,118,22,female,True,7632,7638,False,False,inspiration,expiration
217,0.07295397273649756,25,down,down,0.5831609999877401,0.712003282215625,,experiment,cRDM,0.0,,,,764.8906956000137,118,22,female,True,7648,7654,False,False,expiration,inspiration
218,0.07295397273649756,25,up,up,0.6941319999750704,0.5649749800777752,,experiment,cRDM,0.0,,,,766.2906445999979,118,22,female,True,7662,7669,False,False,expiration,expiration
219,0.07295397273649756,25,down,down,0.5678908999543637,0.7696362821420049,,experiment,cRDM,0.0,,,,768.0239386000322,118,22,female,True,7679,7685,False,False,inspiration,inspiration
220,0.07295397273649756,25,up,up,0.6272405000054277,0.8366062259939273,,experiment,cRDM,0.0,,,,769.6905370000168,118,22,female,True,7696,7702,False,False,expiration,expiration
221,0.07295397273649756,25,down,down,0.5970522999996319,0.7321562662760641,,experiment,cRDM,0.0,,,,771.3237793000299,118,22,female,True,7712,7718,False,False,inspiration,expiration
222,0.07295397273649756,25,down,up,0.4700355000095442,1.2791065968749284,,experiment,cRDM,0.0,,,,773.473736600019,118,22,female,True,7734,7739,False,False,inspiration,inspiration
223,0.07295397273649756,25,up,down,0.5196204999811016,1.134542225777553,,experiment,cRDM,0.0,,,,775.3401501000044,118,22,female,True,7753,7758,False,False,expiration,expiration
224,0.07295397273649756,25,down,up,0.6853205999941565,1.5147386731120194,,experiment,cRDM,0.0,,,,777.6404893000145,118,22,female,True,7776,7783,False,False,expiration,expiration
225,0.07295397273649756,25,up,down,0.5560754000325687,1.4590836635322153,,experiment,cRDM,0.0,,,,780.056695700041,118,22,female,True,7800,7806,False,False,expiration,expiration
226,0.07295397273649756,25,up,up,0.5578987000044435,1.261756770736487,,experiment,cRDM,0.0,,,,782.1399009000162,118,22,female,True,7821,7827,False,False,inspiration,expiration
227,0.07295397273649756,25,down,up,0.587422400014475,0.5701862308258836,,experiment,cRDM,0.0,,,,783.5233373999945,118,22,female,True,7834,7840,False,False,expiration,inspiration
228,0.07295397273649756,25,down,down,0.659809899982065,0.4266670911641929,,experiment,cRDM,0.0,,,,784.7899689000333,118,22,female,True,7847,7854,False,False,inspiration,expiration
229,0.07295397273649756,25,up,down,0.5738809999893419,0.8797624064584455,,experiment,cRDM,0.0,,,,786.5899034999893,118,22,female,True,7865,7871,False,False,inspiration,inspiration
230,0.07295397273649756,25,down,down,0.7999745999695733,1.5580803390258595,,experiment,cRDM,0.0,,,,788.9898269000114,118,22,female,True,7889,7897,False,False,inspiration,expiration
231,0.07295397273649756,25,up,up,0.4797281999490224,0.4699807342116251,,experiment,cRDM,0.0,,,,790.5230499000172,118,22,female,True,7904,7909,False,False,expiration,expiration
232,0.07295397273649756,25,up,up,0.5861278999946079,1.0210511594373437,,experiment,cRDM,0.0,,,,792.2896827000078,118,22,female,True,7922,7928,False,False,expiration,expiration
233,0.07295397273649756,25,up,up,1.1721304999664426,0.5525142520780622,,experiment,cRDM,0.0,,,,793.6896400999975,118,22,female,True,7936,7948,False,False,trough,expiration
234,0.07295397273649756,25,up,down,0.4368641000473872,1.145104449689946,,experiment,cRDM,0.0,,,,796.2728664000169,118,22,female,True,7962,7966,False,False,expiration,inspiration
235,0.07295397273649756,25,up,up,0.5930690999957733,1.5393485662458717,,experiment,cRDM,0.0,,,,798.5227740000119,118,22,female,True,7984,7990,False,False,expiration,inspiration
236,0.07295397273649756,25,down,down,0.6321272999630311,1.834827555028561,,experiment,cRDM,0.0,,,,801.2226877000065,118,22,female,True,8011,8017,False,False,trough,inspiration
237,0.07295397273649756,25,down,up,0.4485073999967426,1.4260667066395682,,experiment,cRDM,0.0,,,,803.5392437000411,118,22,female,True,8035,8039,False,False,expiration,inspiration
238,0.07295397273649756,25,down,down,0.7238964000134729,1.167188107149312,,experiment,cRDM,0.0,,,,805.4058751999984,118,22,female,True,8053,8060,False,False,expiration,expiration
239,0.07295397273649756,25,up,up,0.3836656999774277,0.759927649886736,,experiment,cRDM,0.0,,,,807.1558298000017,118,22,female,True,8071,8075,False,False,inspiration,expiration
240,0.07295397273649756,25,down,up,0.4378304000128992,0.6163378017985678,,experiment,cRDM,0.0,,,,808.4389410000294,118,22,female,True,8084,8088,False,False,expiration,trough
241,0.07295397273649756,25,down,down,0.5220550000085495,0.8566231659113923,,experiment,cRDM,0.0,,,,810.0057068000315,118,22,female,True,8099,8104,False,False,expiration,expiration
242,0.07295397273649756,25,down,up,0.5484561000484973,0.9370141550915144,,experiment,cRDM,0.0,,,,811.7223228000221,118,22,female,True,8116,8121,False,False,inspiration,inspiration
243,0.07295397273649756,25,up,down,0.4167888999800198,1.7367818613218704,,experiment,cRDM,0.0,,,,814.2722284999909,118,22,female,True,8142,8146,False,False,inspiration,peak
244,0.07295397273649756,25,down,up,0.5848948999773711,0.4440904448868067,,experiment,cRDM,0.0,,,,815.3888582999934,118,22,female,True,8153,8159,False,False,expiration,trough
245,0.07295397273649756,25,up,up,0.40023770002881065,1.9290406427980449,,experiment,cRDM,0.0,,,,818.1720847000252,118,22,female,True,8181,8185,False,False,expiration,inspiration
246,0.07295397273649756,25,up,up,0.4491511000087485,1.5342880234798606,,experiment,cRDM,0.0,,,,820.3886473000166,118,22,female,True,8203,8207,False,False,expiration,expiration
247,0.07295397273649756,25,down,up,0.5406209999928251,0.9513655971096572,,experiment,cRDM,0.0,,,,822.0552857000148,118,22,female,True,8220,8225,False,False,inspiration,expiration
248,0.07295397273649756,25,up,up,0.5429445000481792,1.2203740952099629,,experiment,cRDM,0.0,,,,824.0718520000228,118,22,female,True,8240,8245,False,False,inspiration,inspiration
249,0.07295397273649756,25,down,down,0.4182716999785043,1.0024241571640018,,experiment,cRDM,0.0,,,,825.8884990999941,118,22,female,True,8258,8262,False,False,expiration,expiration
250,0.07295397273649756,25,up,up,0.4861095999949612,1.555895278616863,,experiment,cRDM,0.0,,,,828.1216962999898,118,22,female,True,8280,8285,False,False,expiration,expiration
251,0.07295397273649756,25,down,down,0.8998932999675162,1.089789185482433,,experiment,cRDM,0.0,,,,829.9548673999961,118,22,female,True,8299,8308,False,False,inspiration,expiration
252,0.07295397273649756,25,up,up,0.5825540999649093,1.6618556294321272,,experiment,cRDM,0.0,,,,832.7882138999994,118,22,female,True,8327,8333,False,False,peak,expiration
253,0.07295397273649756,25,down,up,0.4805560000240803,0.5588637627756696,,experiment,cRDM,0.0,,,,834.1881555000436,118,22,female,True,8341,8346,False,False,expiration,inspiration
254,0.07295397273649756,25,down,down,0.9008070999989286,1.4619266721696995,,experiment,cRDM,0.0,,,,836.3880067000282,118,22,female,True,8363,8372,False,False,expiration,inspiration
255,0.07295397273649756,25,down,up,0.4967573000467382,0.8470401281297311,,experiment,cRDM,0.0,,,,838.3880126000148,118,22,female,True,8383,8388,False,False,expiration,expiration
256,0.07295397273649756,25,down,up,0.8269096000003628,0.8895049703020492,,experiment,cRDM,0.0,,,,840.0378055000328,118,22,female,True,8400,8408,False,False,inspiration,expiration
257,0.07295397273649756,25,down,up,0.7095921000000089,1.594474502943679,,experiment,cRDM,0.0,,,,842.7211722999926,118,22,female,True,8426,8433,False,False,inspiration,expiration
258,0.07295397273649756,25,up,down,0.4529891000129282,0.490976842216265,,experiment,cRDM,0.0,,,,844.1877735000453,118,22,female,True,8441,8446,False,False,expiration,inspiration
259,0.07295397273649756,25,up,up,0.6984717000159435,1.1588619242251696,,experiment,cRDM,0.0,,,,846.0542846000171,118,22,female,True,8460,8467,False,False,expiration,expiration
260,0.07295397273649756,25,up,up,0.5838533000205643,1.5023113737077376,,experiment,cRDM,0.0,,,,848.5209655000364,118,22,female,True,8484,8490,False,False,expiration,expiration
261,0.07295397273649756,25,up,up,0.8392055000294931,0.9070992397360084,,experiment,cRDM,0.0,,,,850.2875516000205,118,22,female,True,8502,8510,False,False,inspiration,expiration
262,122.0,25,M,down,0.644740300020203,1.4827087290997176,,experiment,emotion,0.0,,,,874.4199844000395,118,22,female,True,8743,8749,False,False,expiration,expiration
263,114.0,25,M,down,0.6302532000117935,1.650569815507032,,experiment,emotion,0.0,,,,876.9865545000066,118,22,female,True,8769,8775,False,False,expiration,expiration
264,119.0,25,F,down,0.4169446000014432,1.7280205039310204,,experiment,emotion,0.0,,,,879.6363303000106,118,22,female,True,8796,8800,False,False,peak,expiration
265,122.0,25,F,down,0.7393154999590479,0.361283517823828,,experiment,emotion,0.0,,,,880.6864255000255,118,22,female,True,8806,8813,False,False,expiration,inspiration
266,119.0,25,M,down,0.6957668000250123,1.486255830639455,,experiment,emotion,0.0,,,,883.2029930000426,118,22,female,True,8831,8838,False,False,expiration,expiration
267,117.0,25,F,down,0.7474814999732189,1.1006131501278085,,experiment,emotion,0.0,,,,885.2862667000154,118,22,female,True,8852,8859,False,False,inspiration,expiration
268,114.0,25,M,down,0.6184032000019215,1.9164973654381283,,experiment,emotion,0.0,,,,888.2364148999912,118,22,female,True,8882,8888,False,False,expiration,expiration
269,117.0,25,M,down,0.7353533999994397,0.4474701492395663,,experiment,emotion,0.0,,,,889.5694376000321,118,22,female,True,8895,8902,False,False,expiration,inspiration
270,122.0,25,F,up,0.8004150000051595,0.4414981919250739,,experiment,emotion,0.0,,,,891.0193664000252,118,22,female,True,8909,8917,False,False,expiration,expiration
271,117.0,25,F,down,0.5615023999707773,1.9756436408980136,,experiment,emotion,0.0,,,,894.0692722999955,118,22,female,True,8940,8946,False,False,expiration,expiration
272,119.0,25,F,down,1.1491977999685332,0.7606075325503243,,experiment,emotion,0.0,,,,895.6525574999977,118,22,female,True,8956,8967,False,False,expiration,expiration
273,122.0,25,F,up,0.3835391000029631,1.5732879077834792,,experiment,emotion,0.0,,,,898.6524337000445,118,22,female,True,8986,8990,False,False,expiration,expiration
274,119.0,25,F,up,0.8951667000073941,1.8804884838123963,,experiment,emotion,0.0,,,,901.235620099993,118,22,female,True,9012,9021,False,False,expiration,inspiration
275,114.0,25,F,up,0.7431711000390351,1.272217642167694,,experiment,emotion,0.0,,,,903.6856005000301,118,22,female,True,9036,9043,False,False,expiration,inspiration
276,117.0,25,M,down,0.894896499987226,1.1539612581520673,,experiment,emotion,0.0,,,,905.8688533999956,118,22,female,True,9058,9067,False,False,expiration,inspiration
277,114.0,25,M,up,0.6803185000317171,0.7571840418791791,,experiment,emotion,0.0,,,,907.785444100038,118,22,female,True,9077,9084,False,False,expiration,expiration
278,122.0,25,M,up,1.3077751999953762,1.4085472861962378,,experiment,emotion,0.0,,,,910.1520236000067,118,22,female,True,9101,9114,False,False,expiration,inspiration
279,114.0,25,M,down,0.7371657000039704,0.7270193227222335,,experiment,emotion,0.0,,,,912.4685864000348,118,22,female,True,9124,9131,False,False,expiration,expiration
280,119.0,25,F,down,0.7175808000029065,1.7934615967983665,,experiment,emotion,0.0,,,,915.2851520000257,118,22,female,True,9152,9159,False,False,expiration,expiration
281,119.0,25,M,up,0.8169796000001952,1.2716007466938857,,experiment,emotion,0.0,,,,917.5517638000309,118,22,female,True,9175,9183,False,False,peak,expiration
282,117.0,25,M,down,0.6171094000455923,0.6606300152627476,,experiment,emotion,0.0,,,,919.301655600022,118,22,female,True,9192,9198,False,False,trough,inspiration
283,117.0,25,F,down,0.6080784000223503,0.4798240745272422,,experiment,emotion,0.0,,,,920.6516539000439,118,22,female,True,9206,9212,False,False,expiration,expiration
284,114.0,25,M,down,0.5912093999795616,1.1085092598187218,,experiment,emotion,0.0,,,,922.6515727000078,118,22,female,True,9226,9232,False,False,inspiration,expiration
285,122.0,25,F,up,0.5696715000085533,1.3674537505483475,,experiment,emotion,0.0,,,,924.9181318000192,118,22,female,True,9248,9254,False,False,inspiration,expiration
286,119.0,25,F,up,0.7747029000311159,0.951630909948614,,experiment,emotion,0.0,,,,926.718066200032,118,22,female,True,9266,9274,False,False,expiration,inspiration
287,114.0,25,M,down,0.6477029999950901,1.0108634401932175,,experiment,emotion,0.0,,,,928.7679918000357,118,22,female,True,9287,9293,False,False,expiration,trough
288,122.0,25,M,up,0.6738568999571726,1.7794456528870808,,experiment,emotion,0.0,,,,931.467895400012,118,22,female,True,9314,9321,False,False,expiration,inspiration
289,122.0,25,F,up,1.0256075999932364,1.5953074289056393,,experiment,emotion,0.0,,,,934.0011391000007,118,22,female,True,9339,9349,False,False,expiration,inspiration
290,117.0,25,M,down,1.0235421999823302,1.2183959251514958,,experiment,emotion,0.0,,,,936.534275300044,118,22,female,True,9365,9375,False,False,expiration,inspiration
291,114.0,25,F,up,0.7728154000360519,1.86637278782885,,experiment,emotion,0.0,,,,939.700927900034,118,22,female,True,9396,9404,False,False,inspiration,peak
292,117.0,25,F,down,1.1916368000092916,1.8919825780128787,,experiment,emotion,0.0,,,,942.6341318000341,118,22,female,True,9426,9438,False,False,inspiration,expiration
293,119.0,25,F,down,0.8817233999725431,0.9289117081608584,,experiment,emotion,0.0,,,,945.0340638000052,118,22,female,True,9450,9459,False,False,inspiration,expiration
294,114.0,25,M,down,0.7691038000048138,0.3653869792107729,,experiment,emotion,0.0,,,,946.5506667000008,118,22,female,True,9465,9473,False,False,expiration,inspiration
295,122.0,25,M,up,0.8645224000210874,1.6649776362745086,,experiment,emotion,0.0,,,,949.2672406000203,118,22,female,True,9492,9501,False,False,expiration,inspiration
296,119.0,25,M,down,1.3289323000353759,0.5833732302807617,,experiment,emotion,0.0,,,,950.9838436000282,118,22,female,True,9509,9522,False,False,expiration,expiration
297,122.0,25,F,up,1.3567310000071302,1.8302168619976193,,experiment,emotion,0.0,,,,954.417042999994,118,22,female,True,9543,9557,False,False,expiration,peak
298,114.0,25,F,down,1.1971650999621488,1.7474107238265448,,experiment,emotion,0.0,,,,957.7835900000064,118,22,female,True,9577,9589,False,False,inspiration,expiration
299,119.0,25,M,down,0.7769146999926306,1.1080573295797078,,experiment,emotion,0.0,,,,960.3668262000427,118,22,female,True,9603,9611,False,False,inspiration,expiration
300,117.0,25,F,down,0.8283107999595813,1.6106625289455156,,experiment,emotion,0.0,,,,963.0334388000192,118,22,female,True,9630,9638,False,False,expiration,expiration
301,117.0,25,M,down,0.9438214999972844,1.7053818794591349,,experiment,emotion,0.0,,,,965.8499525000225,118,22,female,True,9658,9667,False,False,expiration,expiration
302,119.0,25,M,down,0.8385209999978542,1.019187276488443,,experiment,emotion,0.0,,,,968.0832199000287,118,22,female,True,9680,9688,False,False,peak,expiration
303,122.0,25,M,down,0.6706003000144847,1.1757928551233592,,experiment,emotion,0.0,,,,970.3831401999923,118,22,female,True,9703,9710,False,False,inspiration,expiration
304,117.0,25,F,up,0.6477043000049889,1.0594236849010332,,experiment,emotion,0.0,,,,972.3830406999913,118,22,female,True,9723,9729,False,False,inspiration,inspiration
305,114.0,25,F,down,0.8901283000013791,1.927647732368961,,experiment,emotion,0.0,,,,975.2496162000459,118,22,female,True,9752,9761,False,False,inspiration,expiration
306,114.0,25,M,up,1.1455963000189513,1.9142438501791543,,experiment,emotion,0.0,,,,978.3161431000335,118,22,female,True,9782,9793,False,False,inspiration,expiration
307,117.0,25,F,up,0.6833574000047521,1.5847133199862402,,experiment,emotion,0.0,,,,981.2993880000432,118,22,female,True,9812,9819,False,False,expiration,expiration
308,122.0,25,F,up,0.6553886000183411,0.8782444124855517,,experiment,emotion,0.0,,,,983.1493501000224,118,22,female,True,9831,9838,False,False,inspiration,expiration
309,119.0,25,M,up,0.6964597000041977,0.9463957852760988,,experiment,emotion,0.0,,,,985.0492643000324,118,22,female,True,9850,9857,False,False,inspiration,inspiration
310,114.0,25,M,up,0.6621965999947861,0.82002997442826,,experiment,emotion,0.0,,,,986.8325280999996,118,22,female,True,9868,9875,False,False,expiration,expiration
311,122.0,25,F,down,0.9656681999913416,1.83788241765834,,experiment,emotion,0.0,,,,989.5990846999921,118,22,female,True,9895,9905,False,False,expiration,inspiration
312,119.0,25,M,up,0.9790721000172198,0.8155196177453845,,experiment,emotion,0.0,,,,991.665672000032,118,22,female,True,9916,9926,False,False,expiration,expiration
313,119.0,25,F,down,0.8421750999987125,1.9975867434125436,,experiment,emotion,0.0,,,,994.9155639000237,118,22,female,True,9948,9956,False,False,expiration,inspiration
314,114.0,25,F,down,0.8243221000302583,0.8319765717088776,,experiment,emotion,0.0,,,,996.865479900036,118,22,female,True,9968,9976,False,False,expiration,expiration
315,117.0,25,F,down,0.6503696000436321,0.4493733286990648,,experiment,emotion,0.0,,,,998.4154041000293,118,22,female,True,9983,9990,False,False,inspiration,expiration
316,122.0,25,M,down,0.7136789999785833,0.8976900822472436,,experiment,emotion,0.0,,,,1000.2320214000064,118,22,female,True,10002,10009,False,False,expiration,inspiration
317,117.0,25,M,down,0.8871479000081308,1.4352181458151672,,experiment,emotion,0.0,,,,1002.6486109000398,118,22,female,True,10026,10035,False,False,expiration,inspiration
318,117.0,25,F,down,0.8415550999925472,0.5048770800723327,,experiment,emotion,0.0,,,,1004.3151902999962,118,22,female,True,10042,10050,False,False,expiration,expiration
319,117.0,25,F,down,1.2995852999738418,0.3559340160979852,,experiment,emotion,0.0,,,,1005.7651725999896,118,22,female,True,10057,10070,False,False,expiration,expiration
320,122.0,25,M,down,0.8680359999998473,0.8490314625230739,,experiment,emotion,0.0,,,,1008.1817486000364,118,22,female,True,10081,10090,False,False,expiration,inspiration
321,119.0,25,M,up,1.2783333000261337,1.0169983520019483,,experiment,emotion,0.0,,,,1010.3483355999924,118,22,female,True,10103,10116,False,False,expiration,inspiration
322,114.0,25,M,down,0.7114559999899939,1.1016510297581432,,experiment,emotion,0.0,,,,1012.99825840001,118,22,female,True,10129,10136,False,False,expiration,expiration
323,114.0,25,M,down,0.8262470000190659,0.6106595808306604,,experiment,emotion,0.0,,,,1014.5814842000253,118,22,female,True,10145,10153,False,False,inspiration,expiration
324,119.0,25,M,up,0.8093303000205196,1.402918566549803,,experiment,emotion,0.0,,,,1017.0814038999961,118,22,female,True,10170,10178,False,False,inspiration,expiration
325,122.0,25,F,up,0.6997766999993473,1.5620276187555089,,experiment,emotion,0.0,,,,1019.7479891999974,118,22,female,True,10197,10204,False,False,inspiration,expiration
326,122.0,25,F,up,0.7072100999648683,1.0333322122194244,,experiment,emotion,0.0,,,,1021.7645557000067,118,22,female,True,10217,10224,False,False,inspiration,inspiration
327,114.0,25,M,down,0.7412726000184193,0.8615707590797097,,experiment,emotion,0.0,,,,1023.6144807999955,118,22,female,True,10235,10242,False,False,expiration,trough
328,122.0,25,F,up,1.082362800021656,0.4972549671375792,,experiment,emotion,0.0,,,,1025.1144422999932,118,22,female,True,10250,10261,False,False,inspiration,expiration
329,117.0,25,F,down,0.4636888999957591,1.7065169871612582,,experiment,emotion,0.0,,,,1028.180993200047,118,22,female,True,10281,10286,False,False,expiration,expiration
330,119.0,25,F,up,0.7395209000096656,1.291329142310596,,experiment,emotion,0.0,,,,1030.214243000024,118,22,female,True,10301,10308,False,False,inspiration,expiration
331,117.0,25,M,down,0.8740372000029311,1.419118077521114,,experiment,emotion,0.0,,,,1032.6307334000012,118,22,female,True,10326,10335,False,False,inspiration,expiration
332,114.0,25,F,up,0.8026417000219226,0.4953071620008578,,experiment,emotion,0.0,,,,1034.2640998000281,118,22,female,True,10342,10350,False,False,expiration,inspiration
333,119.0,25,F,up,0.7357324999757111,1.5801078677460494,,experiment,emotion,0.0,,,,1036.914027300023,118,22,female,True,10368,10375,False,False,expiration,inspiration
334,117.0,25,F,down,0.8295404000091366,1.5702008719864824,,experiment,emotion,0.0,,,,1039.497232499998,118,22,female,True,10394,10402,False,False,expiration,inspiration
335,119.0,25,M,down,0.8135641000117175,1.9032644165725157,,experiment,emotion,0.0,,,,1042.4971363000222,118,22,female,True,10424,10432,False,False,inspiration,inspiration
336,114.0,25,M,down,0.6370320999994874,1.4861048468724791,,experiment,emotion,0.0,,,,1045.0637079000007,118,22,female,True,10450,10456,False,False,inspiration,inspiration
337,122.0,25,F,up,0.7541982000111602,1.0162654898166366,,experiment,emotion,0.0,,,,1047.013496300031,118,22,female,True,10470,10478,False,False,expiration,inspiration
338,119.0,25,M,down,1.2404784000245854,1.2892935996952817,,experiment,emotion,0.0,,,,1049.3302345999982,118,22,female,True,10493,10505,False,False,expiration,inspiration
339,122.0,25,F,up,1.446661700028926,0.79059074248512,,experiment,emotion,0.0,,,,1051.6300643000286,118,22,female,True,10516,10530,False,False,expiration,inspiration
340,114.0,25,M,down,1.3540434999740685,1.4046547607160649,,experiment,emotion,0.0,,,,1054.7466918000137,118,22,female,True,10547,10561,False,False,expiration,expiration
341,117.0,25,M,up,1.317520999989938,1.8729291665318117,,experiment,emotion,0.0,,,,1058.2632415000116,118,22,female,True,10582,10595,False,False,inspiration,trough
342,0.07295397273649756,25,up,up,0.4776386999874376,0.7367279822253442,,experiment,cRDM,1.0,,,,1089.6620862000273,118,22,female,True,10896,10901,False,False,expiration,expiration
343,0.07295397273649756,25,up,up,0.4643646000185981,0.4848994825669849,,experiment,cRDM,1.0,,,,1090.8953610000317,118,22,female,True,10908,10913,False,False,inspiration,inspiration
344,0.07295397273649756,25,down,down,0.6693147000041789,1.184201088488677,,experiment,cRDM,1.0,,,,1092.8284107000218,118,22,female,True,10928,10935,False,False,expiration,expiration
345,0.07295397273649756,25,down,down,0.8298535000067204,1.4005201858541194,,experiment,cRDM,1.0,,,,1095.1618760999988,118,22,female,True,10951,10959,False,False,expiration,expiration
346,0.07295397273649756,25,up,up,0.4924345000181347,0.7774803813766324,,experiment,cRDM,1.0,,,,1097.028286100016,118,22,female,True,10970,10975,False,False,inspiration,inspiration
347,0.07295397273649756,25,down,down,0.4949943999527022,0.8756409839361619,,experiment,cRDM,1.0,,,,1098.6617317000057,118,22,female,True,10986,10991,False,False,expiration,expiration
348,0.07295397273649756,25,up,up,0.468101900012698,1.8992226060928137,,experiment,cRDM,1.0,,,,1101.3116273999913,118,22,female,True,11012,11017,False,False,expiration,expiration
349,0.07295397273649756,25,up,up,0.7511738999746741,1.4683050965615905,,experiment,cRDM,1.0,,,,1103.5115409000427,118,22,female,True,11034,11042,False,False,peak,expiration
350,0.07295397273649756,25,down,down,0.5122731999726966,1.678619380453554,,experiment,cRDM,1.0,,,,1106.2114480000457,118,22,female,True,11061,11066,False,False,peak,expiration
351,0.07295397273649756,25,down,up,0.5253464000415988,1.3300140109085012,,experiment,cRDM,1.0,,,,1108.311387100024,118,22,female,True,11082,11087,False,False,inspiration,inspiration
352,0.07295397273649756,25,down,up,0.6177397000137717,1.3754368956602725,,experiment,cRDM,1.0,,,,1110.477980900032,118,22,female,True,11104,11110,False,False,inspiration,inspiration
353,0.07295397273649756,25,down,down,0.6271689999848604,0.5339995270140131,,experiment,cRDM,1.0,,,,1111.8945692999987,118,22,female,True,11118,11124,False,False,expiration,expiration
354,0.07295397273649756,25,down,up,0.5032350000110455,1.7633579246739817,,experiment,cRDM,1.0,,,,1114.5445006000227,118,22,female,True,11145,11150,False,False,expiration,expiration
355,0.07295397273649756,25,down,up,0.6129864999675192,1.2744244283046775,,experiment,cRDM,1.0,,,,1116.5777418999933,118,22,female,True,11165,11171,False,False,expiration,expiration
356,0.07295397273649756,25,up,down,0.4167651000316255,0.5449892901703832,,experiment,cRDM,1.0,,,,1118.0110357000376,118,22,female,True,11179,11183,False,False,trough,inspiration
357,0.07295397273649756,25,up,up,0.4571519999881275,1.8911496444473512,,experiment,cRDM,1.0,,,,1120.5775813999935,118,22,female,True,11205,11210,False,False,trough,inspiration
358,0.07295397273649756,25,up,up,0.40025090001290653,0.8489852866103189,,experiment,cRDM,1.0,,,,1122.1442180000013,118,22,female,True,11221,11225,False,False,expiration,expiration
359,0.07295397273649756,25,up,up,0.4445746000274085,1.127114419966921,,experiment,cRDM,1.0,,,,1123.9441762000206,118,22,female,True,11239,11243,False,False,inspiration,expiration
360,0.07295397273649756,25,down,up,0.4680119999684394,0.5727531137053342,,experiment,cRDM,1.0,,,,1125.2107396000065,118,22,female,True,11251,11256,False,False,expiration,expiration
361,0.07295397273649756,25,up,up,0.5154373999685049,1.7412309896195408,,experiment,cRDM,1.0,,,,1127.6773352000164,118,22,female,True,11276,11281,False,False,expiration,expiration
362,0.07295397273649756,25,up,up,0.5781563000055029,0.957669376653987,,experiment,cRDM,1.0,,,,1129.410586700018,118,22,female,True,11293,11299,False,False,inspiration,expiration
363,0.07295397273649756,25,down,down,0.5041573999915272,0.5077835536337966,,experiment,cRDM,1.0,,,,1130.7605787999926,118,22,female,True,11307,11312,False,False,expiration,inspiration
364,0.07295397273649756,25,up,up,0.4519282000255771,0.9754152068946856,,experiment,cRDM,1.0,,,,1132.493838399998,118,22,female,True,11324,11329,False,False,expiration,expiration
365,0.07295397273649756,25,down,up,0.457684499968309,1.135556594289124,,experiment,cRDM,1.0,,,,1134.3270169000025,118,22,female,True,11343,11348,False,False,inspiration,expiration
366,0.07295397273649756,25,down,down,0.4167941000196152,0.6116252954558348,,experiment,cRDM,1.0,,,,1135.660380700021,118,22,female,True,11356,11360,False,False,expiration,expiration
367,0.07295397273649756,25,up,up,0.5184057999867946,1.8593407301875764,,experiment,cRDM,1.0,,,,1138.210286799993,118,22,female,True,11381,11386,False,False,expiration,expiration
368,0.07295397273649756,25,up,up,0.5578445999999531,1.6837212723408057,,experiment,cRDM,1.0,,,,1140.6768579999914,118,22,female,True,11406,11412,False,False,expiration,expiration
369,0.07295397273649756,25,down,down,0.6449785000295378,1.1253477085701362,,experiment,cRDM,1.0,,,,1142.6267237000286,118,22,female,True,11426,11432,False,False,inspiration,expiration
370,0.07295397273649756,25,up,up,0.62574659998063,1.087831391887826,,experiment,cRDM,1.0,,,,1144.6100307000454,118,22,female,True,11445,11451,False,False,expiration,inspiration
371,0.07295397273649756,25,down,down,0.4002821000176482,0.932373471046758,,experiment,cRDM,1.0,,,,1146.4099550000392,118,22,female,True,11463,11467,False,False,expiration,expiration
372,0.07295397273649756,25,down,down,0.6151199000305496,0.7780906075622112,,experiment,cRDM,1.0,,,,1147.8765774000206,118,22,female,True,11478,11484,False,False,inspiration,peak
373,0.07295397273649756,25,down,up,0.5489761000499129,1.7438859875738142,,experiment,cRDM,1.0,,,,1150.5097947000174,118,22,female,True,11504,11509,False,False,inspiration,peak
374,0.07295397273649756,25,up,down,0.6289888999890536,1.3822758132993676,,experiment,cRDM,1.0,,,,1152.7097328000234,118,22,female,True,11526,11532,False,False,trough,inspiration
375,0.07295397273649756,25,up,down,0.9173789999913424,1.27815281579151,,experiment,cRDM,1.0,,,,1154.876331700012,118,22,female,True,11548,11557,False,False,expiration,inspiration
376,0.07295397273649756,25,up,up,0.5311670000082813,1.101240439547828,,experiment,cRDM,1.0,,,,1157.1595886000432,118,22,female,True,11571,11576,False,False,expiration,expiration
377,0.07295397273649756,25,down,down,0.7045724999625236,1.9203473785893683,,experiment,cRDM,1.0,,,,1159.8761406000121,118,22,female,True,11598,11605,False,False,expiration,expiration
378,0.07295397273649756,25,down,up,0.4729546000016853,0.8505193444104666,,experiment,cRDM,1.0,,,,1161.6927574000438,118,22,female,True,11616,11621,False,False,peak,expiration
379,0.07295397273649756,25,up,up,0.2838230000343174,1.765302425652229,,experiment,cRDM,1.0,,,,1164.1926398000214,118,22,female,True,11641,11644,False,False,inspiration,expiration
380,0.07295397273649756,25,down,down,0.6257482999935746,0.5383814986401119,,experiment,cRDM,1.0,,,,1165.4090065000346,118,22,female,True,11654,11660,False,False,expiration,trough
381,0.07295397273649756,25,up,up,0.3005723000387661,1.3454957072036329,,experiment,cRDM,1.0,,,,1167.6591885000234,118,22,female,True,11676,11679,False,False,expiration,expiration
382,0.07295397273649756,25,up,up,0.3507060999982059,1.8637226714272843,,experiment,cRDM,1.0,,,,1170.208901600039,118,22,female,True,11702,11706,False,False,expiration,expiration
383,0.07295397273649756,25,up,up,0.4690491000073962,1.186077522156223,,experiment,cRDM,1.0,,,,1172.075701499998,118,22,female,True,11720,11725,False,False,inspiration,expiration
384,0.07295397273649756,25,down,down,0.5891835999791509,0.3168276948686401,,experiment,cRDM,1.0,,,,1173.1255347999975,118,22,female,True,11731,11737,False,False,expiration,expiration
385,0.07295397273649756,25,down,up,0.3671893000137061,1.5512935887664931,,experiment,cRDM,1.0,,,,1175.5255451000412,118,22,female,True,11755,11759,False,False,expiration,expiration
386,0.07295397273649756,25,up,up,0.7685467000119388,1.3958986068391084,,experiment,cRDM,1.0,,,,1177.5921664999914,118,22,female,True,11775,11783,False,False,expiration,expiration
387,0.07295397273649756,25,down,down,0.4649432000005618,0.42218009156006003,,experiment,cRDM,1.0,,,,1179.0587721000193,118,22,female,True,11790,11795,False,False,expiration,inspiration
388,0.07295397273649756,25,down,down,0.3339253999874927,1.6288003269420823,,experiment,cRDM,1.0,,,,1181.4085857000318,118,22,female,True,11814,11817,False,False,expiration,expiration
389,0.07295397273649756,25,up,down,0.8297469000099227,1.2006923702913437,,experiment,cRDM,1.0,,,,1183.2919338000356,118,22,female,True,11832,11840,False,False,expiration,expiration
390,0.07295397273649756,25,up,up,0.5763307000161149,1.0297337447439434,,experiment,cRDM,1.0,,,,1185.4083752000004,118,22,female,True,11854,11860,False,False,peak,expiration
391,0.07295397273649756,25,down,down,0.8165312000201084,0.7806961976009397,,experiment,cRDM,1.0,,,,1187.0251779000391,118,22,female,True,11870,11878,False,False,inspiration,peak
392,0.07295397273649756,25,up,up,0.4566931999870576,0.7250196290350089,,experiment,cRDM,1.0,,,,1188.8250965999905,118,22,female,True,11888,11893,False,False,expiration,expiration
393,0.07295397273649756,25,down,up,0.6086486999993213,0.6803213553557187,,experiment,cRDM,1.0,,,,1190.2250484999968,118,22,female,True,11902,11908,False,False,inspiration,expiration
394,0.07295397273649756,25,down,up,1.1480587999685667,0.6439262156848341,,experiment,cRDM,1.0,,,,1191.741638300009,118,22,female,True,11917,11928,False,False,expiration,inspiration
395,0.07295397273649756,25,down,down,0.4167435999843292,0.487436492396378,,experiment,cRDM,1.0,,,,1193.6249327000114,118,22,female,True,11936,11940,False,False,expiration,expiration
396,0.07295397273649756,25,up,up,0.4685830000089482,1.6383206893456657,,experiment,cRDM,1.0,,,,1195.9581541999942,118,22,female,True,11959,11964,False,False,expiration,expiration
397,0.07295397273649756,25,up,up,0.7257659999886528,1.4240634950123945,,experiment,cRDM,1.0,,,,1198.107916600013,118,22,female,True,11981,11988,False,False,expiration,expiration
398,0.07295397273649756,25,down,down,0.5763670000014827,0.8502709276719291,,experiment,cRDM,1.0,,,,1199.9413436000466,118,22,female,True,11999,12005,False,False,inspiration,inspiration
399,0.07295397273649756,25,down,down,0.6958785000024363,1.810797099256126,,experiment,cRDM,1.0,,,,1202.6078294999895,118,22,female,True,12026,12033,False,False,inspiration,expiration
400,0.07295397273649756,25,up,up,0.7161955999908969,0.4143736155346883,,experiment,cRDM,1.0,,,,1203.974513299996,118,22,female,True,12039,12046,False,False,expiration,inspiration
401,0.07295397273649756,25,up,down,0.5042904000147246,1.8324082450816228,,experiment,cRDM,1.0,,,,1206.7744143000455,118,22,female,True,12067,12072,False,False,expiration,expiration
402,0.07295397273649756,25,up,down,0.6813594999839552,1.9448345072783888,,experiment,cRDM,1.0,,,,1209.4743453999981,118,22,female,True,12094,12101,False,False,expiration,expiration
403,0.07295397273649756,25,up,up,0.36719770001946017,1.951030070730454,,experiment,cRDM,1.0,,,,1212.3741874000407,118,22,female,True,12123,12127,False,False,expiration,expiration
404,0.07295397273649756,25,up,down,0.7118999999947846,1.2914586247022983,,experiment,cRDM,1.0,,,,1214.340807600005,118,22,female,True,12143,12150,False,False,expiration,expiration
405,0.07295397273649756,25,down,up,0.5234181999694556,1.808431299551072,,experiment,cRDM,1.0,,,,1217.1072899000135,118,22,female,True,12171,12176,False,False,expiration,expiration
406,0.07295397273649756,25,down,up,0.5240652999491431,1.2038881154568986,,experiment,cRDM,1.0,,,,1219.0906248000101,118,22,female,True,12190,12195,False,False,inspiration,expiration
407,0.07295397273649756,25,up,up,0.35050880000926554,1.9863998739007984,,experiment,cRDM,1.0,,,,1221.8738632000168,118,22,female,True,12218,12222,False,False,inspiration,expiration
408,0.07295397273649756,25,down,down,0.5850316999712959,1.7632224858190786,,experiment,cRDM,1.0,,,,1224.3236830999958,118,22,female,True,12243,12249,False,False,inspiration,expiration
409,0.07295397273649756,25,down,down,0.6890152999549173,1.403773117359414,,experiment,cRDM,1.0,,,,1226.5736861000187,118,22,female,True,12265,12272,False,False,inspiration,peak
410,0.07295397273649756,25,down,up,0.4897825000225566,1.3782341922197,,experiment,cRDM,1.0,,,,1228.90691770002,118,22,female,True,12289,12294,False,False,inspiration,inspiration
411,0.07295397273649756,25,up,down,0.6311794000212103,1.9620493881811316,,experiment,cRDM,1.0,,,,1231.6235296000375,118,22,female,True,12316,12322,False,False,inspiration,inspiration
412,0.07295397273649756,25,down,up,0.4482840000418946,1.4582260118541286,,experiment,cRDM,1.0,,,,1233.9734077000176,118,22,female,True,12339,12343,False,False,expiration,inspiration
413,0.07295397273649756,25,down,down,0.8416854999959469,0.8152929632434058,,experiment,cRDM,1.0,,,,1235.4900063000387,118,22,female,True,12354,12362,False,False,expiration,expiration
414,0.07295397273649756,25,down,up,0.4002528000273742,1.9205533885696493,,experiment,cRDM,1.0,,,,1238.523273000028,118,22,female,True,12385,12389,False,False,expiration,expiration
415,0.07295397273649756,25,up,down,0.5148322999593802,0.34306624394168866,,experiment,cRDM,1.0,,,,1239.5398738000074,118,22,female,True,12395,12400,False,False,expiration,trough
416,0.07295397273649756,25,up,up,0.4489095999742858,0.9883440903283368,,experiment,cRDM,1.0,,,,1241.2897959999973,118,22,female,True,12412,12416,False,False,expiration,expiration
417,0.07295397273649756,25,down,up,0.5493997000157833,0.5039309220389309,,experiment,cRDM,1.0,,,,1242.506304300041,118,22,female,True,12425,12430,False,False,expiration,inspiration
418,0.07295397273649756,25,up,down,0.4002477999893017,1.8664105040881944,,experiment,cRDM,1.0,,,,1245.1729968000434,118,22,female,True,12451,12455,False,False,expiration,trough
419,0.07295397273649756,25,down,up,0.6758147000218742,1.5785870985936814,,experiment,cRDM,1.0,,,,1247.4229132000473,118,22,female,True,12474,12481,False,False,expiration,expiration
420,0.07295397273649756,25,up,down,0.5741942999884486,0.4623982338459372,,experiment,cRDM,1.0,,,,1248.8395453999985,118,22,female,True,12488,12494,False,False,inspiration,expiration
421,0.07295397273649756,25,up,down,0.4302446999936365,1.869558990514884,,experiment,cRDM,1.0,,,,1251.5394648000365,118,22,female,True,12515,12519,False,False,inspiration,inspiration
422,122.0,25,M,up,0.9897492000018246,0.7589159014028071,,experiment,emotion,1.0,,,,1291.6879521000085,118,22,female,True,12916,12926,False,False,expiration,expiration
423,114.0,25,M,down,0.4361835999879986,1.4993985517369746,,experiment,emotion,1.0,,,,1294.454515599995,118,22,female,True,12944,12948,False,False,peak,expiration
424,119.0,25,F,up,0.6408899000380188,1.5169909245209874,,experiment,emotion,1.0,,,,1296.6877797000345,118,22,female,True,12966,12972,False,False,inspiration,inspiration
425,122.0,25,F,up,0.5694069000310265,1.8517765979636367,,experiment,emotion,1.0,,,,1299.4543300000369,118,22,female,True,12994,13000,False,False,inspiration,inspiration
426,119.0,25,M,up,0.4978889999911189,0.8382824728651401,,experiment,emotion,1.0,,,,1301.1209490000035,118,22,female,True,13011,13016,False,False,expiration,expiration
427,117.0,25,F,up,0.4809101999853738,1.7725369356759064,,experiment,emotion,1.0,,,,1303.6708436000044,118,22,female,True,13036,13041,False,False,expiration,expiration
428,114.0,25,M,down,0.6411994000081904,0.4493597662995297,,experiment,emotion,1.0,,,,1304.8874614000088,118,22,female,True,13048,13054,False,False,expiration,inspiration
429,117.0,25,M,down,0.5751292000059038,1.4079675503060862,,experiment,emotion,1.0,,,,1307.2205831000465,118,22,female,True,13072,13078,False,False,expiration,inspiration
430,122.0,25,F,down,0.5834585999837145,1.3619856284830731,,experiment,emotion,1.0,,,,1309.4373092000023,118,22,female,True,13094,13100,False,False,expiration,trough
431,117.0,25,F,down,0.5887906000134535,0.9111373557905148,,experiment,emotion,1.0,,,,1311.2039007000274,118,22,female,True,13111,13117,False,False,expiration,expiration
432,119.0,25,F,up,0.5425131000229158,1.2627314814651491,,experiment,emotion,1.0,,,,1313.3371497000335,118,22,female,True,13133,13138,False,False,inspiration,expiration
433,122.0,25,F,down,0.6066414999659173,0.64752995388267,,experiment,emotion,1.0,,,,1314.7870923000155,118,22,female,True,13147,13153,False,False,expiration,inspiration
434,119.0,25,F,up,0.8629563000285998,1.107258702892502,,experiment,emotion,1.0,,,,1316.7536817000364,118,22,female,True,13167,13176,False,False,expiration,inspiration
435,114.0,25,F,up,0.6454574000090361,1.970404558626392,,experiment,emotion,1.0,,,,1319.8702579000385,118,22,female,True,13198,13204,False,False,trough,inspiration
436,117.0,25,M,up,0.6931762999738567,0.40861618804542826,,experiment,emotion,1.0,,,,1321.2035158000074,118,22,female,True,13211,13218,False,False,expiration,expiration
437,114.0,25,M,down,0.5675562000251375,0.903227496323126,,experiment,emotion,1.0,,,,1323.0701336000348,118,22,female,True,13230,13236,False,False,inspiration,expiration
438,122.0,25,M,up,0.6473605000064708,1.9518354169022096,,experiment,emotion,1.0,,,,1325.8533559000352,118,22,female,True,13258,13264,False,False,expiration,expiration
439,114.0,25,M,up,0.9279641000321136,1.5545344012602873,,experiment,emotion,1.0,,,,1328.3197364000368,118,22,female,True,13283,13292,False,False,expiration,expiration
440,119.0,25,F,down,0.7395157000282779,0.8745691258586001,,experiment,emotion,1.0,,,,1330.403175500047,118,22,female,True,13303,13310,False,False,inspiration,expiration
441,119.0,25,M,up,0.6479528999770992,1.5536043245403306,,experiment,emotion,1.0,,,,1332.969782500004,118,22,female,True,13329,13335,False,False,inspiration,expiration
442,117.0,25,M,down,0.6410321000148542,1.619398482473098,,experiment,emotion,1.0,,,,1335.5196570000262,118,22,female,True,13355,13361,False,False,inspiration,expiration
443,117.0,25,F,up,0.6402366000111215,1.0871726232170342,,experiment,emotion,1.0,,,,1337.5194711000074,118,22,female,True,13375,13381,False,False,trough,inspiration
444,114.0,25,M,down,0.8984074000036344,0.5069971386356761,,experiment,emotion,1.0,,,,1338.9362303999949,118,22,female,True,13389,13398,False,False,expiration,expiration
445,122.0,25,F,down,0.6383573999628425,0.8906621376863231,,experiment,emotion,1.0,,,,1341.0193351000196,118,22,female,True,13410,13416,False,False,expiration,expiration
446,119.0,25,F,up,0.5706445000250824,1.3510366002542151,,experiment,emotion,1.0,,,,1343.2860473000328,118,22,female,True,13432,13438,False,False,inspiration,expiration
447,114.0,25,M,down,0.5837368999491446,1.815131337684404,,experiment,emotion,1.0,,,,1345.9359730000142,118,22,female,True,13459,13465,False,False,expiration,expiration
448,122.0,25,M,up,0.7211169999791309,0.3636363132998727,,experiment,emotion,1.0,,,,1347.1525744000098,118,22,female,True,13471,13478,False,False,expiration,inspiration
449,122.0,25,F,down,0.5535994000383653,1.619547700111061,,experiment,emotion,1.0,,,,1349.7691234000376,118,22,female,True,13497,13503,False,False,expiration,inspiration
450,117.0,25,M,down,0.8996000000042841,1.2506176039904475,,experiment,emotion,1.0,,,,1351.8690829999978,118,22,female,True,13518,13527,False,False,expiration,trough
451,114.0,25,F,up,0.383515499997884,1.2055542830565216,,experiment,emotion,1.0,,,,1354.235694300034,118,22,female,True,13542,13546,False,False,expiration,expiration
452,117.0,25,F,down,0.4854729000362568,1.7420978641696259,,experiment,emotion,1.0,,,,1356.6522166000211,118,22,female,True,13566,13571,False,False,expiration,expiration
453,119.0,25,F,down,0.681008399988059,0.9873953792896241,,experiment,emotion,1.0,,,,1358.4187427000145,118,22,female,True,13584,13591,False,False,inspiration,expiration
454,114.0,25,M,down,0.7942790999659337,0.3238707958166988,,experiment,emotion,1.0,,,,1359.6854454000134,118,22,female,True,13596,13604,False,False,expiration,inspiration
455,122.0,25,M,down,0.78159859997686,0.3760687427090374,,experiment,emotion,1.0,,,,1361.1520706000156,118,22,female,True,13611,13619,False,False,inspiration,expiration
456,119.0,25,M,up,0.6186838000430726,0.5429470418920747,,experiment,emotion,1.0,,,,1362.7520056000212,118,22,female,True,13627,13633,False,False,expiration,inspiration
457,122.0,25,F,up,0.961125699977856,1.932323647477766,,experiment,emotion,1.0,,,,1365.5685565000167,118,22,female,True,13655,13665,False,False,trough,peak
458,114.0,25,F,down,0.6258738999604248,1.2446618794933817,,experiment,emotion,1.0,,,,1368.0518070000107,118,22,female,True,13680,13686,False,False,trough,inspiration
459,119.0,25,M,up,0.7646452999906614,0.8511738649971721,,experiment,emotion,1.0,,,,1369.7850589000157,118,22,female,True,13697,13705,False,False,expiration,expiration
460,117.0,25,F,down,0.8387312999693677,1.2359389744278548,,experiment,emotion,1.0,,,,1372.0849683000124,118,22,female,True,13720,13728,False,False,expiration,expiration
461,117.0,25,M,down,0.7574368999921717,0.8193688386594775,,experiment,emotion,1.0,,,,1374.0182488000135,118,22,female,True,13740,13748,False,False,inspiration,expiration
462,119.0,25,M,up,1.1282262000022456,0.5048467894167606,,experiment,emotion,1.0,,,,1375.5515143999944,118,22,female,True,13755,13766,False,False,expiration,inspiration
463,122.0,25,M,down,0.8895923999953084,0.695419896230661,,experiment,emotion,1.0,,,,1377.6681217000007,118,22,female,True,13776,13785,False,False,expiration,expiration
464,117.0,25,F,up,0.7813461000332609,0.5790816636885332,,experiment,emotion,1.0,,,,1379.401307000022,118,22,female,True,13794,13802,False,False,inspiration,expiration
465,114.0,25,F,down,0.9286886000190862,0.4327350548180099,,experiment,emotion,1.0,,,,1380.8679898999978,118,22,female,True,13808,13817,False,False,expiration,inspiration
466,114.0,25,M,down,0.912459199957084,1.8552752418785656,,experiment,emotion,1.0,,,,1383.9181693000135,118,22,female,True,13839,13848,False,False,inspiration,expiration
467,117.0,25,F,down,0.7049166000215337,1.9630828415587032,,experiment,emotion,1.0,,,,1387.0677649000427,118,22,female,True,13870,13877,False,False,inspiration,expiration
468,122.0,25,F,up,0.8590290000429377,0.546219896159718,,experiment,emotion,1.0,,,,1388.6176967000354,118,22,female,True,13886,13895,False,False,expiration,inspiration
469,119.0,25,M,down,0.6654513999819756,1.5124466659145568,,experiment,emotion,1.0,,,,1391.2842610999942,118,22,female,True,13912,13919,False,False,expiration,inspiration
470,114.0,25,M,down,0.7036059999954887,1.6613126566366412,,experiment,emotion,1.0,,,,1393.8841645999926,118,22,female,True,13938,13945,False,False,expiration,inspiration
471,122.0,25,F,down,1.3300090999691747,1.937801122900995,,experiment,emotion,1.0,,,,1396.8006690000186,118,22,female,True,13968,13981,False,False,inspiration,expiration
472,119.0,25,M,down,0.8676938000135124,1.4381097948638533,,experiment,emotion,1.0,,,,1399.8339727999994,118,22,female,True,13998,14007,False,False,peak,expiration
473,119.0,25,F,up,1.3951400999794714,0.4818772446156775,,experiment,emotion,1.0,,,,1401.4506030000048,118,22,female,True,14014,14028,False,False,expiration,expiration
474,114.0,25,F,down,1.4339114000322295,0.452409374580993,,experiment,emotion,1.0,,,,1403.5838087000302,118,22,female,True,14035,14049,False,False,expiration,inspiration
475,117.0,25,F,up,0.8476692999829538,0.860058073628134,,experiment,emotion,1.0,,,,1406.1670585999966,118,22,female,True,14061,14069,False,False,expiration,expiration
476,122.0,25,M,down,0.7094357000314631,1.9972635277681308,,experiment,emotion,1.0,,,,1409.3002124000338,118,22,female,True,14093,14100,False,False,expiration,trough
477,117.0,25,M,down,0.6988079000147991,1.1897175942971543,,experiment,emotion,1.0,,,,1411.4668669000384,118,22,female,True,14114,14121,False,False,expiration,expiration
478,117.0,25,F,down,1.1055361000471748,0.6243517690452647,,experiment,emotion,1.0,,,,1413.0501426000264,118,22,female,True,14130,14141,False,False,inspiration,expiration
479,117.0,25,F,up,0.6666451999917626,1.0198362867421895,,experiment,emotion,1.0,,,,1415.4500364999985,118,22,female,True,14154,14161,False,False,inspiration,inspiration
480,122.0,25,M,up,0.9533775000018068,1.6480869116208428,,experiment,emotion,1.0,,,,1418.0332973999905,118,22,female,True,14180,14190,False,False,inspiration,expiration
481,119.0,25,M,up,0.8245881000184454,1.8069166045918488,,experiment,emotion,1.0,,,,1421.1001058000256,118,22,female,True,14211,14219,False,False,peak,expiration
482,114.0,25,M,up,0.6712607000372373,0.9047548686840959,,experiment,emotion,1.0,,,,1423.1164425000313,118,22,female,True,14231,14238,False,False,inspiration,expiration
483,114.0,25,M,down,0.7693406000034884,1.3883443685845205,,experiment,emotion,1.0,,,,1425.4663534000283,118,22,female,True,14254,14262,False,False,inspiration,inspiration
484,119.0,25,M,down,0.9674629000364804,1.8175423937695352,,experiment,emotion,1.0,,,,1428.3162561000208,118,22,female,True,14283,14293,False,False,inspiration,expiration
485,122.0,25,F,down,0.8736299000447616,1.2203190152524812,,experiment,emotion,1.0,,,,1430.766147800023,118,22,female,True,14307,14316,False,False,inspiration,expiration
486,122.0,25,F,down,0.7822844000183977,1.2430112976858014,,experiment,emotion,1.0,,,,1433.1494122000297,118,22,female,True,14331,14339,False,False,inspiration,expiration
487,114.0,25,M,up,0.9476957999868318,1.5014539538131333,,experiment,emotion,1.0,,,,1435.715975900006,118,22,female,True,14357,14366,False,False,inspiration,expiration
488,122.0,25,F,down,0.6911374000483193,1.6389444891982217,,experiment,emotion,1.0,,,,1438.5825241000275,118,22,female,True,14385,14392,False,False,inspiration,expiration
489,117.0,25,F,down,0.7745960999745876,0.3781442694302264,,experiment,emotion,1.0,,,,1439.9491429000045,118,22,female,True,14399,14407,False,False,expiration,inspiration
490,119.0,25,F,up,0.6417041000095196,0.6988340121640713,,experiment,emotion,1.0,,,,1441.6989634000347,118,22,female,True,14417,14423,False,False,expiration,expiration
491,117.0,25,M,up,0.5553658000426367,1.670459289788695,,experiment,emotion,1.0,,,,1444.2823092000324,118,22,female,True,14442,14448,False,False,expiration,expiration
492,114.0,25,F,up,0.5067736000055447,1.6361360206985112,,experiment,emotion,1.0,,,,1446.7488977000467,118,22,female,True,14467,14472,False,False,expiration,expiration
493,119.0,25,F,up,0.8042031999793835,1.0410114104081554,,experiment,emotion,1.0,,,,1448.5654973000055,118,22,female,True,14485,14493,False,False,inspiration,expiration
494,117.0,25,F,down,0.8429446999798529,0.8187924454211628,,experiment,emotion,1.0,,,,1450.448776300007,118,22,female,True,14504,14512,False,False,trough,inspiration
495,119.0,25,M,up,0.687135300016962,1.0395651213227977,,experiment,emotion,1.0,,,,1452.5985356000022,118,22,female,True,14526,14533,False,False,expiration,inspiration
496,114.0,25,M,down,0.4910233999835327,1.2838996432228365,,experiment,emotion,1.0,,,,1454.8486050000065,118,22,female,True,14548,14553,False,False,expiration,expiration
497,122.0,25,F,up,1.0164518000092355,0.8417480259233345,,experiment,emotion,1.0,,,,1456.4652225000318,118,22,female,True,14564,14574,False,False,inspiration,expiration
498,119.0,25,M,up,0.7995562000432983,0.8589236965784081,,experiment,emotion,1.0,,,,1458.6151427000295,118,22,female,True,14586,14594,False,False,inspiration,expiration
499,122.0,25,F,down,1.1946417000144718,0.4234143763580971,,experiment,emotion,1.0,,,,1460.1150745000339,118,22,female,True,14601,14613,False,False,expiration,inspiration
500,114.0,25,M,down,0.6940552999731153,0.5047487710636336,,experiment,emotion,1.0,,,,1462.0816486999975,118,22,female,True,14620,14627,False,False,expiration,expiration
501,117.0,25,M,down,0.7271264999872074,1.9337506297789957,,experiment,emotion,1.0,,,,1464.9815455999924,118,22,female,True,14649,14656,False,False,expiration,expiration
502,0.07295397273649756,25,up,up,0.5976166999898851,1.2962235962901012,,experiment,cRDM,2.0,,,,1505.7800557000446,118,22,female,True,15057,15063,False,False,expiration,expiration
503,0.07295397273649756,25,up,up,0.6976895999978296,0.3073851802861486,,experiment,cRDM,2.0,,,,1506.9300155999954,118,22,female,True,15069,15076,False,False,inspiration,inspiration
504,0.07295397273649756,25,down,down,0.6556975000421517,0.3907383685493572,,experiment,cRDM,2.0,,,,1508.2799468000305,118,22,female,True,15082,15089,False,False,expiration,expiration
505,0.07295397273649756,25,down,up,0.6124340000096709,1.6638591184990177,,experiment,cRDM,2.0,,,,1510.8632254000406,118,22,female,True,15108,15114,False,False,expiration,expiration
506,0.07295397273649756,25,up,up,0.7485546999960206,0.9619483821156718,,experiment,cRDM,2.0,,,,1512.7131695999994,118,22,female,True,15127,15134,False,False,inspiration,peak
507,0.07295397273649756,25,down,down,0.43861730000935495,1.8384323046772144,,experiment,cRDM,2.0,,,,1515.5630456000213,118,22,female,True,15155,15159,False,False,inspiration,inspiration
508,0.07295397273649756,25,up,up,0.5203854000428692,1.3847207134209212,,experiment,cRDM,2.0,,,,1517.646292200021,118,22,female,True,15176,15181,False,False,expiration,inspiration
509,0.07295397273649756,25,up,up,0.42417779995594174,1.6010053330430023,,experiment,cRDM,2.0,,,,1520.0295479000195,118,22,female,True,15200,15204,False,False,expiration,expiration
510,0.07295397273649756,25,down,down,0.6049054000177421,1.7504299937857786,,experiment,cRDM,2.0,,,,1522.4627781000454,118,22,female,True,15224,15230,False,False,expiration,expiration
511,0.07295397273649756,25,down,up,0.6620505999890156,0.4934773627524761,,experiment,cRDM,2.0,,,,1523.8126955000337,118,22,female,True,15238,15245,False,False,inspiration,inspiration
512,0.07295397273649756,25,down,down,0.5079773999750614,0.820794629877158,,experiment,cRDM,2.0,,,,1525.5626874000302,118,22,female,True,15255,15260,False,False,expiration,expiration
513,0.07295397273649756,25,down,up,0.5567554000299424,1.9642882259880952,,experiment,cRDM,2.0,,,,1528.2958922000253,118,22,female,True,15283,15289,False,False,expiration,expiration
514,0.07295397273649756,25,down,up,0.625533800048288,1.4554995010185074,,experiment,cRDM,2.0,,,,1530.5791365000186,118,22,female,True,15305,15311,False,False,expiration,expiration
515,0.07295397273649756,25,down,down,0.4176196999615058,0.5157583408018271,,experiment,cRDM,2.0,,,,1531.9790785000075,118,22,female,True,15319,15323,False,False,inspiration,inspiration
516,0.07295397273649756,25,up,up,0.4956493000499904,1.9496096799770024,,experiment,cRDM,2.0,,,,1534.6290162000225,118,22,female,True,15346,15351,False,False,inspiration,inspiration
517,0.07295397273649756,25,up,up,0.4347581000183709,1.3919882941012405,,experiment,cRDM,2.0,,,,1536.7789014000446,118,22,female,True,15367,15371,False,False,expiration,inspiration
518,0.07295397273649756,25,up,up,0.3837975999922492,1.289141924408719,,experiment,cRDM,2.0,,,,1538.762181000027,118,22,female,True,15387,15391,False,False,expiration,expiration
519,0.07295397273649756,25,up,up,0.4715858999988996,1.0706087782282403,,experiment,cRDM,2.0,,,,1540.5121307999946,118,22,female,True,15405,15410,False,False,peak,expiration
520,0.07295397273649756,25,down,down,0.6375993000110611,0.9802640670026476,,experiment,cRDM,2.0,,,,1542.2120607999966,118,22,female,True,15422,15428,False,False,inspiration,inspiration
521,0.07295397273649756,25,up,down,0.3671720999991521,1.1070691365952563,,experiment,cRDM,2.0,,,,1544.2120133000424,118,22,female,True,15442,15446,False,False,expiration,inspiration
522,0.07295397273649756,25,up,up,0.5378517999779433,0.32091153679544754,,experiment,cRDM,2.0,,,,1545.2117938000008,118,22,female,True,15452,15457,False,False,inspiration,expiration
523,0.07295397273649756,25,down,up,0.5621065999730489,1.5099825421702835,,experiment,cRDM,2.0,,,,1547.5285507999945,118,22,female,True,15475,15481,False,False,inspiration,expiration
524,0.07295397273649756,25,up,up,0.6288773000123911,0.8987974316989888,,experiment,cRDM,2.0,,,,1549.2617823000182,118,22,female,True,15492,15498,False,False,expiration,inspiration
525,0.07295397273649756,25,down,down,0.7490452000056393,0.8635438249317244,,experiment,cRDM,2.0,,,,1551.0116121000028,118,22,female,True,15510,15517,False,False,expiration,expiration
526,0.07295397273649756,25,down,up,0.9803191000246444,1.2116874545589529,,experiment,cRDM,2.0,,,,1553.2283323000302,118,22,female,True,15532,15542,False,False,peak,expiration
527,0.07295397273649756,25,up,down,0.9041411000071092,0.9364413384202452,,experiment,cRDM,2.0,,,,1555.4114941000007,118,22,female,True,15554,15563,False,False,inspiration,expiration
528,0.07295397273649756,25,up,up,0.5684764999896288,1.0506688602152596,,experiment,cRDM,2.0,,,,1557.6281815000114,118,22,female,True,15576,15582,False,False,inspiration,peak
529,0.07295397273649756,25,down,up,0.5345820999937132,1.2720351270233814,,experiment,cRDM,2.0,,,,1559.7281002000088,118,22,female,True,15597,15602,False,False,inspiration,inspiration
530,0.07295397273649756,25,up,up,0.7593583999550901,0.9395597998685644,,experiment,cRDM,2.0,,,,1561.4613446000146,118,22,female,True,15614,15622,False,False,expiration,inspiration
531,0.07295397273649756,25,down,down,0.6650379000348039,1.2607038006919482,,experiment,cRDM,2.0,,,,1563.7445829000208,118,22,female,True,15637,15644,False,False,expiration,expiration
532,0.07295397273649756,25,down,up,0.6048128999536857,1.0678568514487792,,experiment,cRDM,2.0,,,,1565.727832900011,118,22,female,True,15657,15663,False,False,inspiration,expiration
