,stimLvl,stimTime,rand,response,rt,precedingITI,trialNumber,trialType,stimuli,block,estIntens,estThres,estSlope,trialStart,subject,age,gender,headRest,onset,responsI,manBadOnset,manBadRespons,onset_phase,respons_phase
0,150.0,100,F,,,1.3363721457403963,,introTrial,emotion,,,,,278.7741966000176,123,28,female,True,2787,0,False,False,inspiration,0
1,0.9,100,down,,,1.7961196053972444,,introTrial,cRDM,,,,,284.50748420000315,123,28,female,True,2844,0,False,False,peak,0
2,0.9,25,up,up,1.1718229000107383,1.128835603372627,,tutorial,cRDM,,,,,313.18972910000593,123,28,female,True,3131,3143,False,False,expiration,inspiration
3,0.9,25,up,up,1.1849166000029072,0.3987785669299832,,tutorial,cRDM,,,,,315.0396566000127,123,28,female,True,3149,3161,False,False,inspiration,expiration
4,0.9,25,down,down,0.731669900007546,0.9921570379894846,,tutorial,cRDM,,,,,317.5229094999959,123,28,female,True,3174,3181,False,False,expiration,expiration
5,0.9,25,up,up,0.8833656000206247,0.5728768233552769,,tutorial,cRDM,,,,,319.106205899996,123,28,female,True,3190,3199,False,False,inspiration,expiration
6,0.9,25,up,up,0.6756915999867488,0.8958981553101866,,tutorial,cRDM,,,,,321.1558854000177,123,28,female,True,3211,3218,False,False,expiration,inspiration
7,0.9,25,down,down,0.7466228000121191,0.3637942333890332,,tutorial,cRDM,,,,,322.4559535000008,123,28,female,True,3224,3231,False,False,inspiration,expiration
8,0.9,25,down,down,0.8269253000034951,0.7480683219736095,,tutorial,cRDM,,,,,324.2226495000068,123,28,female,True,3241,3249,False,False,expiration,trough
9,0.9,25,up,up,0.7159838000079617,1.5183565748483767,,tutorial,cRDM,,,,,326.8225711999985,123,28,female,True,3267,3274,False,False,expiration,expiration
10,0.9,25,down,down,0.7690724999993108,1.7501704727208518,,tutorial,cRDM,,,,,329.57249390002113,123,28,female,True,3295,3303,False,False,expiration,expiration
11,0.9,25,down,down,0.7491902000037953,1.5572366893055964,,tutorial,cRDM,,,,,332.1724032000056,123,28,female,True,3321,3328,False,False,expiration,expiration
12,200.0,25,M,up,0.7958402000076603,1.2008960442331829,,tutorial,emotion,,,,,340.7387066000083,123,28,female,True,3406,3414,False,False,expiration,expiration
13,200.0,25,M,up,0.9162243999890052,0.3459388854612004,,tutorial,emotion,,,,,342.15531510001165,123,28,female,True,3421,3430,False,False,expiration,inspiration
14,200.0,25,F,up,0.7763966999773402,1.8901014183381035,,tutorial,emotion,,,,,345.2551508000179,123,28,female,True,3452,3460,False,False,expiration,trough
15,0.0,25,F,down,0.6928910000133328,1.9451993190797063,,tutorial,emotion,,,,,348.2717140000022,123,28,female,True,3482,3489,False,False,expiration,expiration
16,0.0,25,M,down,0.5115189999924041,1.1978579738214268,,tutorial,emotion,,,,,350.43834600000986,123,28,female,True,3503,3508,False,False,inspiration,expiration
17,200.0,25,F,up,0.7329270000045653,1.0477906998284714,,tutorial,emotion,,,,,352.2716270000092,123,28,female,True,3522,3529,False,False,expiration,inspiration
18,0.0,25,M,down,0.6017432000080589,0.34126734854899554,,tutorial,emotion,,,,,353.65479790000245,123,28,female,True,3536,3542,False,False,inspiration,expiration
19,200.0,25,M,up,0.7550495000032242,1.4758111505045304,,tutorial,emotion,,,,,356.02148700002,123,28,female,True,3559,3567,False,False,inspiration,inspiration
20,0.0,25,F,down,0.6505029999825638,0.8765317816824336,,tutorial,emotion,,,,,357.9380678000161,123,28,female,True,3578,3585,False,False,expiration,expiration
21,0.0,25,F,down,0.6871622999897227,1.0347705661500612,,tutorial,emotion,,,,,359.92137270001695,123,28,female,True,3598,3605,False,False,peak,expiration
22,0.29,25,up,up,0.8883200999989641,0.8833648286788405,,psi_staircase_training,cRDM,,0.25,0.25693124029946324,0.10500000000000002,368.45417599999934,123,28,female,True,3684,3693,False,False,inspiration,expiration
23,0.25,25,up,up,0.6918935000139754,1.2153309143480402,,psi_staircase_training,cRDM,,0.21910266653183127,0.2260132002683493,0.10468632033873933,370.83762999999453,123,28,female,True,3707,3714,False,False,trough,inspiration
24,0.21,25,down,down,0.7207947999995667,1.6678827549854136,,psi_staircase_training,cRDM,,0.1900540959403307,0.19684979615540016,0.10294672984249993,373.45473990001483,123,28,female,True,3734,3741,False,False,expiration,expiration
25,0.18,25,down,down,0.9273115000105464,0.4147857669616784,,psi_staircase_training,cRDM,,0.1635257589279754,0.1701521334256793,0.100381647756865,374.85417629999563,123,28,female,True,3748,3757,False,False,inspiration,inspiration
26,0.15,25,up,up,0.6901744999922812,1.4805426472958918,,psi_staircase_training,cRDM,,0.14018955742449365,0.14660133511875031,0.0971307628663642,377.5373718000192,123,28,female,True,3774,3781,False,False,expiration,expiration
27,0.13,25,down,down,0.7858978000003844,0.8534699121123344,,psi_staircase_training,cRDM,,0.11987606021454796,0.12605547676183335,0.09361076941961036,379.3705931000004,123,28,female,True,3793,3801,False,False,inspiration,expiration
28,0.11,25,up,up,0.7696181999926921,0.8847707460435337,,psi_staircase_training,cRDM,,0.10257735236965487,0.10849103445698656,0.08958521019937955,381.3039003000012,123,28,female,True,3812,3820,False,False,expiration,inspiration
29,0.09,25,down,down,0.7090237000084016,0.8795658827060797,,psi_staircase_training,cRDM,,0.08784432595859408,0.09348182153209693,0.08540131486476357,383.22052360000083,123,28,female,True,3831,3838,False,False,expiration,expiration
30,0.08,25,down,up,0.8108936999924481,1.25501338116737,,psi_staircase_training,cRDM,,0.07518520921180863,0.0805556301471181,0.08135545354720439,385.4536406999978,123,28,female,True,3854,3862,False,False,inspiration,expiration
31,0.13,25,up,up,0.6981913999770768,1.041472913736983,,psi_staircase_training,cRDM,,0.1145374077699418,0.12103712105675656,0.09846288191283688,387.5703416000178,123,28,female,True,3875,3882,False,False,expiration,inspiration
32,0.13,25,down,down,0.7772410000034142,1.2113939574078934,,psi_staircase_training,cRDM,,0.1023941484636294,0.10857748278643099,0.09367011903258447,389.770291199995,123,28,female,True,3897,3905,False,False,expiration,expiration
33,0.12,25,down,down,0.8023893999925349,0.9563052797871784,,psi_staircase_training,cRDM,,0.093157405715179,0.09896538803474302,0.08798398514641666,391.7701562000148,123,28,female,True,3917,3925,False,False,inspiration,expiration
34,0.11,25,down,down,0.6641089000040665,0.8496339967772335,,psi_staircase_training,cRDM,,0.0859226620933624,0.09137013233424036,0.0825226583669993,393.703462400008,123,28,female,True,3936,3943,False,False,expiration,inspiration
35,0.1,25,up,up,0.6657099000003655,1.8160983014867271,,psi_staircase_training,cRDM,,0.07993993986706525,0.08508630373561188,0.07796125698300181,396.4698623000004,123,28,female,True,3964,3971,False,False,expiration,expiration
36,0.07,25,up,down,0.7059245999844279,1.5668977045805947,,psi_staircase_training,cRDM,,0.07451104613556002,0.07946231361901372,0.0750057801058921,398.9866133000178,123,28,female,True,3989,3996,False,False,expiration,expiration
37,0.11,25,down,down,0.6720767999941017,1.92130005022549,,psi_staircase_training,cRDM,,0.08964288342260639,0.09375657727217196,0.06231754138401916,401.8865064000129,123,28,female,True,4018,4025,False,False,peak,expiration
38,0.11,25,down,down,0.6908100000000559,1.698656230745539,,psi_staircase_training,cRDM,,0.08591199278641959,0.08967523699779757,0.057008648542352026,404.51973260001984,123,28,female,True,4044,4051,False,False,inspiration,expiration
39,0.1,25,up,up,0.9049875999917276,1.487490684130931,,psi_staircase_training,cRDM,,0.08333523038764748,0.08675992128066247,0.05187997071670148,406.9695103999984,123,28,female,True,4069,4078,False,False,inspiration,expiration
40,0.1,25,up,down,0.9229733000101988,0.3663746650541445,,psi_staircase_training,cRDM,,0.08078524248240826,0.08400524915635804,0.04877924962303056,408.5195859000087,123,28,female,True,4084,4093,False,False,expiration,expiration
41,0.13,25,up,up,0.8142966000013985,1.5430059169122965,,psi_staircase_training,cRDM,,0.09175711756980616,0.09621522291787582,0.06753496363177057,411.2692486000015,123,28,female,True,4112,4120,False,False,expiration,expiration
42,0.12,25,up,up,0.6704407999932299,0.671019944856734,,psi_staircase_training,cRDM,,0.08947517724058597,0.0935041363531938,0.0610339114713106,413.0360746000079,123,28,female,True,4129,4136,False,False,inspiration,expiration
43,0.12,25,down,down,0.6355635999934748,1.949518925028148,,psi_staircase_training,cRDM,,0.08783241139335113,0.09148162379782114,0.05528120306246236,415.9359732000157,123,28,female,True,4158,4164,False,False,inspiration,inspiration
44,0.1,25,down,up,0.8969539999961853,0.3995286894062559,,psi_staircase_training,cRDM,,0.08685510420086275,0.0901573182671901,0.050024593288335736,417.2525722999998,123,28,female,True,4171,4180,False,False,expiration,expiration
45,0.13,25,down,down,0.7406951000157278,1.3001317091177549,,psi_staircase_training,cRDM,,0.09614173127956564,0.09959250931125103,0.05227515966442931,419.73583900000085,123,28,female,True,4196,4203,False,False,peak,expiration
46,0.13,25,up,up,0.5808216999867,1.4803664634678575,,psi_staircase_training,cRDM,,0.09510187235300094,0.09818573142930312,0.046716776366389316,422.2357418000174,123,28,female,True,4221,4227,False,False,inspiration,peak
47,0.11,25,up,up,0.6506139999837615,0.8595264243194709,,psi_staircase_training,cRDM,,0.0945723363337756,0.0973341024260172,0.04183745291702325,423.9689197000116,123,28,female,True,4239,4246,False,False,expiration,inspiration
48,0.11,25,down,down,0.6483231000020169,1.8020859949805241,,psi_staircase_training,cRDM,,0.09321925216178133,0.09583817410396513,0.039673534901191056,426.7022326000151,123,28,female,True,4266,4272,False,False,expiration,expiration
49,0.1,25,down,down,0.6650786999962293,0.5067841524567462,,psi_staircase_training,cRDM,,0.09218549009259837,0.09465995759122267,0.03748522286489965,428.135515300004,123,28,female,True,4280,4287,False,False,inspiration,inspiration
50,0.1,25,up,up,0.5697459999937564,0.8379096422535928,,psi_staircase_training,cRDM,,0.09008695612360287,0.09263449187541016,0.03859211950283674,429.91878870001534,123,28,female,True,4298,4304,False,False,expiration,expiration
51,0.1,25,up,down,0.589174799999455,1.2297642080069413,,psi_staircase_training,cRDM,,0.08815108353275079,0.09074905030166903,0.03935608909094365,431.9853755999938,123,28,female,True,4319,4325,False,False,inspiration,expiration
52,100.0,25,M,up,1.2007021000026723,0.5769822375655129,,psi_staircase_training,emotion,,100.0,100.0,25.00050000000001,437.40185379999457,123,28,female,True,4373,4385,False,False,inspiration,expiration
53,55.0,25,M,down,1.318083900026977,0.7149612185165786,,psi_staircase_training,emotion,,54.742809467541896,54.742809467541896,25.00050000000011,439.6684189999942,123,28,female,True,4396,4409,False,False,expiration,inspiration
54,79.0,25,F,up,0.9955584999988788,1.5514538568430882,,psi_staircase_training,emotion,,79.636070985635,79.636070985635,25.71326925488641,442.88497380001365,123,28,female,True,4428,4438,False,False,expiration,inspiration
55,63.0,25,F,down,0.9110532000195236,1.7711657611582532,,psi_staircase_training,emotion,,62.164016703383474,62.164016703383474,25.29232598628389,446.00154480000487,123,28,female,True,4459,4468,False,False,expiration,expiration
56,73.0,25,M,down,0.9264374000194948,1.4981959210666371,,psi_staircase_training,emotion,,73.5393094419089,73.5393094419089,23.64975108561003,448.76809019999934,123,28,female,True,4487,4496,False,False,expiration,expiration
57,87.0,25,F,down,1.0175249000021722,0.4054339863703231,,psi_staircase_training,emotion,,82.48355301883353,82.48355301883353,24.57617413513036,450.4680355000018,123,28,female,True,4504,4514,False,False,expiration,inspiration
58,106.0,25,M,down,0.8445721000025515,1.0399809298788842,,psi_staircase_training,emotion,,93.47321971198342,93.47321971198342,30.115701177202173,452.8679584000202,123,28,female,True,4528,4536,False,False,expiration,expiration
59,122.0,25,F,up,1.1786682000092696,1.2541914406296355,,psi_staircase_training,emotion,,106.38438652375149,106.38438652375149,35.11755585279654,455.3178558000072,123,28,female,True,4552,4564,False,False,inspiration,expiration
60,117.0,25,F,up,0.6790610999742057,0.737520745036529,,psi_staircase_training,emotion,,99.83666875700578,99.83666875700578,33.62495126514585,457.58442709999514,123,28,female,True,4575,4582,False,False,inspiration,inspiration
61,113.0,25,M,up,1.257832800009055,0.6516520874135827,,psi_staircase_training,emotion,,95.38058249628055,95.38058249628055,32.2167824305347,459.2677105000184,123,28,female,True,4592,4605,False,False,expiration,expiration
62,74.0,25,F,up,0.7868965000088792,0.8226883672516154,,psi_staircase_training,emotion,,91.93529307222583,91.93529307222583,30.97015401731504,461.71762260000105,123,28,female,True,4616,4624,False,False,inspiration,expiration
63,63.0,25,F,down,0.8023490000050515,0.7334704557451321,,psi_staircase_training,emotion,,84.72792118176237,84.72792118176237,33.951579817635796,463.58420390001277,123,28,female,True,4635,4643,False,False,expiration,inspiration
64,108.0,25,F,up,1.0367174000130035,0.6583828425176741,,psi_staircase_training,emotion,,87.35604541180885,87.35604541180885,32.92174047397776,465.40081640001154,123,28,female,True,4653,4663,False,False,expiration,expiration
65,62.0,25,M,down,0.8072976999974344,0.4763202707922342,,psi_staircase_training,emotion,,85.00557424497924,85.00557424497924,31.92506492630164,467.26721079999703,123,28,female,True,4672,4680,False,False,inspiration,inspiration
66,109.0,25,M,up,0.8689358999836259,1.3836768118160936,,psi_staircase_training,emotion,,86.9912321228733,86.9912321228733,30.816951675928284,469.8006259000104,123,28,female,True,4697,4706,False,False,expiration,inspiration
67,62.0,25,F,down,1.200880699994741,0.3939479677350871,,psi_staircase_training,emotion,,85.19874283484329,85.19874283484329,29.736973162416483,471.4005979000067,123,28,female,True,4713,4725,False,False,inspiration,expiration
68,109.0,25,F,up,0.9624127999995836,1.473868786126863,,psi_staircase_training,emotion,,86.75508720893711,86.75508720893711,28.59221451798745,474.4171386999951,123,28,female,True,4743,4753,False,False,inspiration,expiration
69,62.0,25,M,down,0.8090730999829248,0.5866916111889481,,psi_staircase_training,emotion,,85.32943759939607,85.32943759939607,27.48045295347791,476.300476400007,123,28,female,True,4762,4770,False,False,expiration,expiration
70,107.0,25,M,up,0.9516227999993134,1.2003184028261242,,psi_staircase_training,emotion,,86.55107073832191,86.55107073832191,26.34907931626513,478.6669289999992,123,28,female,True,4786,4796,False,False,expiration,expiration
71,63.0,25,M,down,0.8283364000089932,1.7279933798866443,,psi_staircase_training,emotion,,85.31236645244864,85.31236645244864,25.244346814607812,481.7002153999929,123,28,female,True,4816,4824,False,False,inspiration,expiration
72,105.0,25,M,up,1.6194223999918904,1.060328262342377,,psi_staircase_training,emotion,,86.3137219432268,86.3137219432268,24.160773088325968,483.9501056000008,123,28,female,True,4838,4854,False,False,inspiration,expiration
73,64.0,25,F,down,0.6017156000016257,1.2843703671584403,,psi_staircase_training,emotion,,85.21562658999291,85.21562658999291,23.10031629871592,487.2000029000047,123,28,female,True,4871,4877,False,False,inspiration,expiration
74,102.0,25,F,up,0.9835798999993132,0.6943006921914945,,psi_staircase_training,emotion,,86.0426523806583,86.0426523806583,22.098179058584066,488.8499249000161,123,28,female,True,4887,4897,False,False,expiration,inspiration
75,98.0,25,F,up,1.0204054000205358,1.3721623649628572,,psi_staircase_training,emotion,,84.99355555358349,84.99355555358349,21.1061025060413,491.58318590000266,123,28,female,True,4915,4925,False,False,expiration,expiration
76,94.0,25,M,up,1.0534177999943497,1.0254004458502093,,psi_staircase_training,emotion,,83.90488859988706,83.90488859988706,20.209311338502797,493.9831107000064,123,28,female,True,4939,4950,False,False,inspiration,expiration
77,65.0,25,M,down,0.6279121999978088,1.760734638458942,,psi_staircase_training,emotion,,82.73831567194294,82.73831567194294,19.41103142932564,497.1496379000018,123,28,female,True,4970,4976,False,False,inspiration,expiration
78,91.0,25,F,up,0.8336772000184283,1.3265026895108605,,psi_staircase_training,emotion,,83.41712713581454,83.41712713581454,18.47431066672255,499.44982700000395,123,28,female,True,4994,5002,False,False,inspiration,expiration
79,89.0,25,F,up,0.601770100009162,1.8967732243746545,,psi_staircase_training,emotion,,82.20639078659752,82.20639078659752,17.701781900857533,502.5327830000024,123,28,female,True,5024,5030,False,False,inspiration,expiration
80,88.0,25,M,up,0.7738455999933649,0.8412917234496717,,psi_staircase_training,emotion,,81.01296518286553,81.01296518286553,16.92007709983338,504.33271000001696,123,28,female,True,5042,5050,False,False,expiration,inspiration
81,86.0,25,M,up,1.0252685000014026,1.7319950053066684,,psi_staircase_training,emotion,,79.90237214101279,79.90237214101279,16.079389436664425,507.19927400001325,123,28,female,True,5071,5081,False,False,expiration,trough
82,0.29,25,up,up,0.8154090000025462,0.5653254962619084,,psi_staircase,cRDM,,0.25,0.25693124029946324,0.10500000000000002,530.7651163999981,123,28,female,True,5307,5315,False,False,inspiration,expiration
83,0.25,25,up,up,0.7465216000273358,1.3863441919784818,,psi_staircase,cRDM,,0.21910266653183127,0.2260132002683493,0.10468632033873933,533.2149914000183,123,28,female,True,5331,5338,False,False,inspiration,expiration
84,0.21,25,down,down,0.7703181999968365,1.5785505028914355,,psi_staircase,cRDM,,0.1900540959403307,0.19684979615540016,0.10294672984249993,535.7982295000112,123,28,female,True,5357,5365,False,False,inspiration,peak
85,0.18,25,down,down,0.7927534000191372,1.6764227610949936,,psi_staircase,cRDM,,0.1635257589279754,0.1701521334256793,0.100381647756865,538.5147876999981,123,28,female,True,5384,5392,False,False,trough,inspiration
86,0.15,25,up,up,0.7345799000177067,1.3693186073596109,,psi_staircase,cRDM,,0.14018955742449365,0.14660133511875031,0.0971307628663642,540.9479601000203,123,28,female,True,5409,5416,False,False,expiration,expiration
87,0.13,25,down,down,0.8739194000081625,1.3677373118047538,,psi_staircase,cRDM,,0.11987606021454796,0.12605547676183335,0.09361076941961036,543.3146164000209,123,28,female,True,5432,5441,False,False,inspiration,expiration
88,0.11,25,up,up,0.8273093000170775,0.9740353100567718,,psi_staircase,cRDM,,0.10257735236965487,0.10849103445698656,0.08958521019937955,545.4312040999939,123,28,female,True,5453,5461,False,False,expiration,inspiration
89,0.09,25,down,down,0.6944485999993049,1.2236698523870528,,psi_staircase,cRDM,,0.08784432595859408,0.09348182153209693,0.08540131486476357,547.7480899000075,123,28,female,True,5477,5484,False,False,expiration,expiration
90,0.08,25,down,down,0.8421782999939751,1.55956106184773,,psi_staircase,cRDM,,0.07518520921180863,0.0805556301471181,0.08135545354720439,550.2643682000054,123,28,female,True,5502,5510,False,False,expiration,expiration
91,0.06,25,up,up,0.9695461000083014,0.8648372787190584,,psi_staircase,cRDM,,0.06447903911685147,0.06954222446062751,0.0767012018235253,552.2309720000194,123,28,female,True,5521,5531,False,False,trough,inspiration
92,0.06,25,down,down,0.7306241999904158,0.5648992182314593,,psi_staircase,cRDM,,0.05512527674218701,0.059944365972074615,0.07300343766430684,554.0308961000119,123,28,female,True,5539,5546,False,False,expiration,expiration
93,0.05,25,down,up,0.9191616999742108,0.52626292653339,,psi_staircase,cRDM,,0.04725350084921385,0.051726898301245584,0.06776662071573335,555.5473511000164,123,28,female,True,5555,5564,False,False,expiration,expiration
94,0.09,25,down,down,0.7382316000002902,1.4037624993984112,,psi_staircase,cRDM,,0.07349133277820137,0.0792442671536033,0.0871500746358451,558.1473221000051,123,28,female,True,5581,5588,False,False,inspiration,expiration
95,0.09,25,up,up,0.7653541999752633,1.7909564850261517,,psi_staircase,cRDM,,0.06612476125635121,0.07148100636511052,0.08114070673084002,560.9472417000216,123,28,female,True,5609,5617,False,False,expiration,expiration
96,0.08,25,up,down,0.7982515000039712,1.1106532246879588,,psi_staircase,cRDM,,0.060596508126087974,0.06551999861927868,0.07458499192778748,563.0972575000196,123,28,female,True,5630,5638,False,False,inspiration,expiration
97,0.11,25,down,down,0.7036478999943938,0.5957560958300774,,psi_staircase,cRDM,,0.08375655788765272,0.09074164271442202,0.10581568018462316,564.7638644000108,123,28,female,True,5647,5654,False,False,expiration,inspiration
98,0.11,25,down,down,0.7127381000027526,0.6335126326781741,,psi_staircase,cRDM,,0.07668213630854816,0.08332258780557653,0.10059489745896866,566.3637835000118,123,28,female,True,5663,5670,False,False,expiration,expiration
99,0.11,25,up,up,0.7647892000095453,0.923668445978142,,psi_staircase,cRDM,,0.0713552074388595,0.0776098671835797,0.09475061386148707,568.2637225000071,123,28,female,True,5682,5690,False,False,inspiration,inspiration
100,0.11,25,up,up,0.9762133999902288,1.2896907632305117,,psi_staircase,cRDM,,0.0674563525951911,0.07330466616299001,0.08859495531650204,570.5802985000191,123,28,female,True,5705,5715,False,False,expiration,expiration
101,0.07,25,up,down,0.9403521000058391,0.8180383687105,,psi_staircase,cRDM,,0.06468953543512718,0.07012659529885854,0.0823649536052013,572.6301999000134,123,28,female,True,5725,5734,False,False,inspiration,inspiration
102,0.11,25,up,up,0.9540804999996908,1.8734275259177475,,psi_staircase,cRDM,,0.07783316244164103,0.08276286797521157,0.07467914235566038,575.713427700015,123,28,female,True,5756,5766,False,False,expiration,inspiration
103,0.11,25,down,down,0.8731861000123899,1.8780892584511517,,psi_staircase,cRDM,,0.07536437107430727,0.07986141966263477,0.06812490714121608,578.8133052000194,123,28,female,True,5787,5796,False,False,expiration,expiration
104,0.11,25,down,down,0.7673331999976654,0.9249396156549294,,psi_staircase,cRDM,,0.07377002209996955,0.07785711403347535,0.06191455417457406,580.863167500007,123,28,female,True,5808,5816,False,False,inspiration,expiration
105,0.09,25,down,down,0.5844090000027791,1.7693778986594086,,psi_staircase,cRDM,,0.07282139147625652,0.07652780249558748,0.05614769366167943,583.6631191000051,123,28,female,True,5836,5842,False,False,inspiration,inspiration
106,0.09,25,up,down,0.6921132999996189,1.1392563284068704,,psi_staircase,cRDM,,0.07081583910109762,0.07437674081789453,0.053943401773652006,585.6463915000204,123,28,female,True,5855,5862,False,False,expiration,inspiration
107,0.12,25,up,down,0.9682155000045896,1.2415676447715012,,psi_staircase,cRDM,,0.07865651483902861,0.08306435572529111,0.06677351715729761,587.8463111000019,123,28,female,True,5877,5887,False,False,expiration,expiration
108,0.13,25,down,down,0.7406525000114925,1.8875417195153807,,psi_staircase,cRDM,,0.08655227613657833,0.09468057135881808,0.12313395026879485,590.9628986000025,123,28,female,True,5909,5916,False,False,expiration,expiration
109,0.12,25,down,down,0.6774055000278167,0.5888394020433889,,psi_staircase,cRDM,,0.0819232436339471,0.08973700514595699,0.1183691407762292,592.546079599997,123,28,female,True,5925,5932,False,False,inspiration,expiration
110,0.12,25,up,down,1.127036300022155,0.6891856443622422,,psi_staircase,cRDM,,0.07813665154369312,0.08561589241388183,0.11330155317665533,594.1794549000043,123,28,female,True,5941,5952,False,False,expiration,inspiration
111,0.15,25,up,up,0.8278559999889694,1.6476764425001953,,psi_staircase,cRDM,,0.0932218377327832,0.10254059097997452,0.14116796542616747,597.212640200014,123,28,female,True,5971,5979,False,False,expiration,trough
112,0.15,25,down,down,0.7103248000203166,1.3633704035154055,,psi_staircase,cRDM,,0.08799228904967987,0.09714286436534443,0.1386202709231105,599.6791794000019,123,28,female,True,5996,6003,False,False,expiration,expiration
113,0.14,25,up,up,0.7943422000098508,1.0356122694760357,,psi_staircase,cRDM,,0.08359943605914394,0.09256450374330616,0.13581005219367828,601.6791520999977,123,28,female,True,6016,6024,False,False,inspiration,peak
114,0.14,25,down,down,0.5731292999989819,1.5733499781544005,,psi_staircase,cRDM,,0.07974105137287757,0.08851334445921925,0.13288974761662856,604.3123947000131,123,28,female,True,6042,6048,False,False,expiration,inspiration
115,0.14,25,up,down,1.0024741000088395,0.6682291310695756,,psi_staircase,cRDM,,0.07648533919931483,0.08504958823144862,0.12973812903928375,605.8289884999976,123,28,female,True,6057,6067,False,False,peak,expiration
116,0.19,25,down,down,0.6574849000026006,1.9614501689249493,,psi_staircase,cRDM,,0.09082493062961083,0.10055043889002507,0.14732981735210812,609.0620213999938,123,28,female,True,6090,6097,False,False,expiration,expiration
117,0.18,25,up,down,0.9611703999980818,0.8533019335296161,,psi_staircase,cRDM,,0.08714122649315223,0.09672869845462792,0.14523873253000674,610.8453367000037,123,28,female,True,6108,6118,False,False,inspiration,peak
118,0.23,25,down,down,0.5901486999937333,1.9322783350087664,,psi_staircase,cRDM,,0.10676534489506267,0.1171609772673516,0.15748139610379175,613.9953545000171,123,28,female,True,6139,6145,False,False,inspiration,inspiration
119,0.23,25,up,up,0.696847399987746,0.3271360485209122,,psi_staircase,cRDM,,0.10261394065297476,0.11289294946927468,0.15571468872534527,615.1786546999938,123,28,female,True,6151,6158,False,False,expiration,expiration
120,0.22,25,up,up,0.8515647999884095,0.5674922708220345,,psi_staircase,cRDM,,0.09904719529006717,0.10920782351329712,0.15392136433673528,616.7119180000154,123,28,female,True,6166,6175,False,False,inspiration,expiration
121,0.21,25,down,down,0.6583737999899313,1.3357786709342785,,psi_staircase,cRDM,,0.09577132015510048,0.10581532923414784,0.15215472379187914,619.1451294000143,123,28,female,True,6191,6198,False,False,expiration,inspiration
122,0.21,25,down,down,0.6947723999910522,1.5400265326357054,,psi_staircase,cRDM,,0.09271006754944268,0.10264091270263312,0.1504404256718304,621.6117524000001,123,28,female,True,6215,6222,False,False,expiration,expiration
123,0.17,25,down,down,0.6792120000172872,1.5594788894705545,,psi_staircase,cRDM,,0.08998396997029492,0.09980176216918343,0.1487278086381049,624.1283209999965,123,28,female,True,6240,6247,False,False,expiration,expiration
124,0.18,25,up,up,2.137302300019656,1.5966111282476645,,psi_staircase,cRDM,,0.08679937023242712,0.09653408503213692,0.14746928541038765,626.6782307999965,123,28,female,True,6266,6287,False,False,inspiration,expiration
125,0.17,25,up,up,0.6944387000112329,1.5566311201068042,,psi_staircase,cRDM,,0.08408938455423089,0.09372760807445436,0.14600755794050765,630.6280848000024,123,28,female,True,6305,6312,False,False,expiration,expiration
126,0.17,25,down,down,0.5722221000178251,1.908590662081924,,psi_staircase,cRDM,,0.08145727566814294,0.09100424535598732,0.14462517152973126,633.5113046000188,123,28,female,True,6334,6340,False,False,inspiration,expiration
127,0.17,25,down,down,0.5049987000238616,1.5583636690209652,,psi_staircase,cRDM,,0.0790530633591203,0.08850565792469578,0.14319550131053496,635.8945452000188,123,28,female,True,6358,6363,False,False,inspiration,inspiration
128,0.17,25,down,down,0.6586944000155199,1.9118361308614489,,psi_staircase,cRDM,,0.07685006880956949,0.08620582160444255,0.14172846431795794,638.5777880999957,123,28,female,True,6385,6392,False,False,expiration,inspiration
129,0.17,25,up,up,0.6894674000213854,0.9534053876083556,,psi_staircase,cRDM,,0.07482676110806159,0.08408363837451191,0.14023061832851907,640.4610673999996,123,28,female,True,6404,6411,False,False,expiration,expiration
130,0.12,25,up,up,0.6922085999976844,1.4996905871580577,,psi_staircase,cRDM,,0.07296551977641738,0.08212178026079274,0.13870639442898286,642.8942911000049,123,28,female,True,6428,6435,False,False,inspiration,expiration
131,0.13,25,up,up,1.0570159000053536,1.8966546664828847,,psi_staircase,cRDM,,0.07032146349653158,0.07944787128882261,0.13825416185105652,645.7444622000039,123,28,female,True,6457,6468,False,False,inspiration,expiration
132,100.0,25,M,down,1.5463929999968968,1.0012717634661932,,psi_staircase,emotion,,100.0,100.0,25.00050000000001,665.6601401999943,123,28,female,True,6656,6671,False,False,expiration,trough
133,145.0,25,M,up,0.8048229000123683,0.5232843703782475,,psi_staircase,emotion,,145.25719053245996,145.25719053245996,25.000500000000283,668.0766994000005,123,28,female,True,6680,6688,False,False,inspiration,expiration
134,121.0,25,F,up,0.8986252000031527,0.8776075625701194,,psi_staircase,emotion,,120.36392901436103,120.36392901436103,25.71326925488699,670.1099493000074,123,28,female,True,6700,6709,False,False,expiration,trough
135,97.0,25,F,down,0.9195627000008244,0.4081751204227235,,psi_staircase,emotion,,102.38876106084959,102.38876106084959,26.14633372628729,671.7599049000128,123,28,female,True,6717,6726,False,False,inspiration,expiration
136,113.0,25,M,up,0.8434067999769468,0.8290213100782824,,psi_staircase,emotion,,114.01123255420406,114.01123255420406,23.003056417783352,673.8430727999947,123,28,female,True,6738,6746,False,False,expiration,inspiration
137,105.0,25,F,up,0.7770759999984875,0.34241982284375355,,psi_staircase,emotion,,104.94359593877377,104.94359593877377,22.15060322358215,675.3764211999951,123,28,female,True,6753,6761,False,False,inspiration,expiration
138,92.0,25,M,up,0.7261519999883603,0.7091881328870743,,psi_staircase,emotion,,97.32104229908207,97.32104229908207,23.933073614490553,677.2263418000075,123,28,female,True,6771,6778,False,False,expiration,inspiration
139,74.0,25,F,down,0.6829378000111319,1.8536952565651756,,psi_staircase,emotion,,86.47781129474322,86.47781129474322,31.61110671766409,680.1595876000065,123,28,female,True,6801,6808,False,False,expiration,expiration
140,78.0,25,F,up,0.8663633000105619,0.9333030672861736,,psi_staircase,emotion,,92.62262149239127,92.62262149239127,29.238995941631327,682.1261774000012,123,28,female,True,6820,6829,False,False,inspiration,expiration
141,65.0,25,M,down,0.6831031999900006,1.6527731319624002,,psi_staircase,emotion,,83.10936065474064,83.10936065474064,34.34822523845509,685.0094092000218,123,28,female,True,6849,6856,False,False,inspiration,expiration
142,67.0,25,F,down,0.6701763000164647,0.3210672811366885,,psi_staircase,emotion,,87.25267932269846,87.25267932269846,32.86571990059022,686.3593487000035,123,28,female,True,6863,6870,False,False,expiration,expiration
143,69.0,25,F,down,0.8115528999769595,0.954642579682098,,psi_staircase,emotion,,90.33036431892236,90.33036431892236,31.512600117184448,688.3259341999948,123,28,female,True,6882,6890,False,False,inspiration,expiration
144,114.0,25,F,up,0.7750752000138164,1.1530731857205396,,psi_staircase,emotion,,92.73585259542101,92.73585259542101,30.27359059468841,690.6424412000052,123,28,female,True,6906,6914,False,False,inspiration,expiration
145,69.0,25,M,down,1.219726699986495,1.9749437367100209,,psi_staircase,emotion,,90.66320510653208,90.66320510653208,29.02776937637876,693.725754700019,123,28,female,True,6936,6948,False,False,inspiration,inspiration
146,114.0,25,M,down,0.9852114999957848,1.5033660730588512,,psi_staircase,emotion,,92.47733684558484,92.47733684558484,27.73227538975469,696.7923139000195,123,28,female,True,6967,6977,False,False,expiration,expiration
147,123.0,25,F,up,0.8345221999916248,0.5809037255285112,,psi_staircase,emotion,,98.1030532334718,98.1030532334718,32.3188259570226,698.7089167000087,123,28,female,True,6986,6994,False,False,expiration,expiration
148,122.0,25,F,up,0.6170753999904264,0.6476670203410538,,psi_staircase,emotion,,96.42353966397344,96.42353966397344,31.270327803644538,700.5254839000117,123,28,female,True,7004,7010,False,False,inspiration,inspiration
149,71.0,25,M,down,0.76969950000057,1.016296610753467,,psi_staircase,emotion,,95.02554549762795,95.02554549762795,30.28400102687193,702.5087612000061,123,28,female,True,7024,7032,False,False,expiration,inspiration
150,122.0,25,M,up,0.7808375000022352,1.5051899395666593,,psi_staircase,emotion,,96.43063536057458,96.43063536057458,29.210028416589083,705.1086681000015,123,28,female,True,7050,7058,False,False,expiration,expiration
151,72.0,25,M,down,0.5888453000225127,0.6600780476993999,,psi_staircase,emotion,,95.3032694539066,95.3032694539066,28.209333995953603,706.9086127000046,123,28,female,True,7068,7074,False,False,inspiration,inspiration
152,73.0,25,M,down,1.8232891999941785,0.7828943763965157,,psi_staircase,emotion,,96.48273711599856,96.48273711599856,27.139492304130826,708.6251965000121,123,28,female,True,7085,7103,False,False,expiration,inspiration
153,121.0,25,F,up,0.7943852999887895,0.5407833730266444,,psi_staircase,emotion,,97.47965744704834,97.47965744704834,26.148955207133092,711.3250854999933,123,28,female,True,7112,7120,False,False,expiration,expiration
154,74.0,25,F,down,0.9081421000009868,1.1947193758431305,,psi_staircase,emotion,,96.5319659160112,96.5319659160112,25.125883278697977,713.6583728000114,123,28,female,True,7136,7145,False,False,inspiration,expiration
155,120.0,25,F,up,0.6475906999839935,1.4656506312532536,,psi_staircase,emotion,,97.38300388590905,97.38300388590905,24.182908111382204,716.3748957000207,123,28,female,True,7163,7169,False,False,inspiration,inspiration
156,76.0,25,M,down,0.8189658999908715,0.819709221136955,,psi_staircase,emotion,,96.58054248448632,96.58054248448632,23.2335358255003,718.1915228000144,123,28,female,True,7181,7189,False,False,expiration,expiration
157,118.0,25,M,up,0.6087332000024617,1.1610888354017972,,psi_staircase,emotion,,97.35502581215485,97.35502581215485,22.356637801980693,720.524767199997,123,28,female,True,7204,7210,False,False,inspiration,expiration
158,78.0,25,F,down,0.7498543999972753,0.7528797902766302,,psi_staircase,emotion,,96.63282064198714,96.63282064198714,21.48939633901706,722.2247056000052,123,28,female,True,7221,7228,False,False,expiration,trough
159,117.0,25,F,up,0.7112387999950442,1.3655473709209731,,psi_staircase,emotion,,97.35358741079253,97.35358741079253,20.691467626078893,724.6912829000212,123,28,female,True,7246,7253,False,False,expiration,expiration
160,80.0,25,M,down,0.7063489999854937,1.5766128316011028,,psi_staircase,emotion,,96.72555039598153,96.72555039598153,19.922529230252298,727.3411651000206,123,28,female,True,7273,7280,False,False,peak,expiration
161,115.0,25,M,up,0.582752900023479,1.2109325029541835,,psi_staircase,emotion,,97.4115056843753,97.4115056843753,19.20629810340715,729.6077622000013,123,28,female,True,7295,7301,False,False,inspiration,inspiration
162,83.0,25,F,down,0.7344653000182007,0.6443617603908938,,psi_staircase,emotion,,96.82018185230137,96.82018185230137,18.5271926279777,731.1910545999998,123,28,female,True,7311,7318,False,False,expiration,expiration
163,85.0,25,M,down,0.7645745000045281,1.0698074102891773,,psi_staircase,emotion,,97.53260705713602,97.53260705713602,17.888685503158094,733.3409495000087,123,28,female,True,7332,7340,False,False,inspiration,expiration
164,113.0,25,F,up,0.6833516000187956,1.5794047537199127,,psi_staircase,emotion,,98.23976217791711,98.23976217791711,17.30636873017974,736.0241333000013,123,28,female,True,7360,7367,False,False,inspiration,expiration
165,87.0,25,M,down,0.8007876999909058,1.4936341372411088,,psi_staircase,emotion,,97.66967977417471,97.66967977417471,16.719642733060297,738.540693100018,123,28,female,True,7385,7393,False,False,inspiration,expiration
166,89.0,25,F,down,0.7521304999827407,1.2074783557710589,,psi_staircase,emotion,,98.38558193039437,98.38558193039437,16.191324656108502,740.9073530000169,123,28,female,True,7408,7416,False,False,inspiration,inspiration
167,90.0,25,M,down,0.7459019999951124,1.2796503804962407,,psi_staircase,emotion,,99.11730525242123,99.11730525242123,15.69911637046199,743.2905916000017,123,28,female,True,7432,7439,False,False,expiration,trough
168,92.0,25,F,up,0.9679793000104836,1.4278392088419378,,psi_staircase,emotion,,99.81853466440977,99.81853466440977,15.219174457562294,745.7904936000122,123,28,female,True,7457,7467,False,False,expiration,expiration
169,113.0,25,M,up,0.6717743999906816,1.8349991983652767,,psi_staircase,emotion,,98.1209277540371,98.1209277540371,16.286677218321508,748.9237278999934,123,28,female,True,7488,7495,False,False,expiration,expiration
170,112.0,25,M,up,1.195822899986524,1.0220947361697954,,psi_staircase,emotion,,97.6694756231782,97.6694756231782,15.76159410159958,750.973667400016,123,28,female,True,7509,7521,False,False,inspiration,expiration
171,111.0,25,F,up,0.9838189000147396,0.7087570752472898,,psi_staircase,emotion,,97.2491811213944,97.2491811213944,15.28847926467339,753.2236672000145,123,28,female,True,7532,7542,False,False,expiration,inspiration
172,84.0,25,F,down,0.7640006000001449,1.0165592913303632,,psi_staircase,emotion,,96.85162692377607,96.85162692377607,14.858720079291992,755.5734793000156,123,28,female,True,7555,7563,False,False,expiration,expiration
173,109.0,25,F,up,0.8101269000035245,1.9781974857322664,,psi_staircase,emotion,,97.2499057384567,97.2499057384567,14.455639785322964,758.6733490000188,123,28,female,True,7586,7594,False,False,expiration,expiration
174,85.0,25,M,down,1.0078352999989877,0.3264195418031416,,psi_staircase,emotion,,96.83527313424929,96.83527313424929,14.069324677628279,760.1566687000159,123,28,female,True,7601,7611,False,False,trough,inspiration
175,108.0,25,M,up,0.7092751000018325,1.3148348192204065,,psi_staircase,emotion,,97.22210099802052,97.22210099802052,13.701189299612453,762.8232184000079,123,28,female,True,7627,7634,False,False,expiration,inspiration
176,86.0,25,F,down,0.7217178999853786,0.7772435872159106,,psi_staircase,emotion,,96.81905365783892,96.81905365783892,13.348586998297053,764.639763300016,123,28,female,True,7646,7653,False,False,expiration,expiration
177,107.0,25,F,down,0.8087286000081804,0.7623622564997432,,psi_staircase,emotion,,97.19814296513785,97.19814296513785,13.006920543122964,766.4897621000129,123,28,female,True,7664,7672,False,False,inspiration,inspiration
178,86.0,25,F,down,0.6185426999873016,0.8590760306700167,,psi_staircase,emotion,,98.54430965672584,98.54430965672584,14.121658864911964,768.5063248999941,123,28,female,True,7684,7690,False,False,expiration,expiration
179,87.0,25,M,down,0.6469496000208892,1.7638180404740151,,psi_staircase,emotion,,98.8706861567134,98.8706861567134,13.781095597451234,771.2395688999968,123,28,female,True,7712,7718,False,False,expiration,expiration
180,88.0,25,M,down,0.5710083000012673,1.1459645621654009,,psi_staircase,emotion,,99.19455424442036,99.19455424442036,13.458278873876411,773.3894828000048,123,28,female,True,7733,7739,False,False,inspiration,expiration
181,89.0,25,M,down,0.707040200009942,0.4793377156867863,,psi_staircase,emotion,,99.5181528540761,99.5181528540761,13.150650679598286,774.7894442999968,123,28,female,True,7747,7754,False,False,expiration,inspiration
182,0.06807378055375259,25,down,down,0.8106413999921642,0.6865473475591173,,experiment,cRDM,0.0,,,,782.5058336000075,123,28,female,True,7824,7832,False,False,expiration,expiration
183,0.06807378055375259,25,up,up,1.2324184000026437,1.3158280277837615,,experiment,cRDM,0.0,,,,784.8890607000212,123,28,female,True,7848,7860,False,False,inspiration,expiration
184,0.06807378055375259,25,down,down,0.9942058000015096,1.7807191567035807,,experiment,cRDM,0.0,,,,788.1723069,123,28,female,True,7881,7891,False,False,inspiration,expiration
185,0.06807378055375259,25,up,down,1.070631400012644,0.4547886859711346,,experiment,cRDM,0.0,,,,789.8888781999996,123,28,female,True,7898,7909,False,False,expiration,inspiration
186,0.06807378055375259,25,down,down,0.8657032999908552,1.3627166137053954,,experiment,cRDM,0.0,,,,792.5888088000065,123,28,female,True,7925,7934,False,False,expiration,expiration
187,0.06807378055375259,25,down,down,0.8990809999813791,1.6284391846659352,,experiment,cRDM,0.0,,,,795.3553794000181,123,28,female,True,7953,7962,False,False,expiration,expiration
188,0.06807378055375259,25,up,up,0.9279346000112128,0.9153240708163248,,experiment,cRDM,0.0,,,,797.4385586999997,123,28,female,True,7974,7983,False,False,inspiration,expiration
189,0.06807378055375259,25,down,up,0.924589600006584,0.3888029004783828,,experiment,cRDM,0.0,,,,799.021906000009,123,28,female,True,7989,7998,False,False,expiration,trough
190,0.06807378055375259,25,up,down,1.480364399991231,1.850358185592744,,experiment,cRDM,0.0,,,,802.0551102000172,123,28,female,True,8020,8035,False,False,expiration,inspiration
191,0.06807378055375259,25,up,up,0.7833419000089634,0.7369594654852885,,experiment,cRDM,0.0,,,,804.5383759000107,123,28,female,True,8045,8053,False,False,peak,expiration
192,0.06807378055375259,25,down,down,0.8511913999973331,0.7998520096336044,,experiment,cRDM,0.0,,,,806.3882786000031,123,28,female,True,8063,8072,False,False,inspiration,inspiration
193,0.06807378055375259,25,up,up,0.961573300010059,0.455408782905332,,experiment,cRDM,0.0,,,,807.9548979999962,123,28,female,True,8079,8089,False,False,expiration,expiration
194,0.06807378055375259,25,up,up,0.9552716000180226,0.525400917319703,,experiment,cRDM,0.0,,,,809.6881558000168,123,28,female,True,8096,8106,False,False,inspiration,expiration
195,0.06807378055375259,25,up,up,0.8560732999758329,0.9100935784373504,,experiment,cRDM,0.0,,,,811.8213998000138,123,28,female,True,8117,8126,False,False,expiration,inspiration
196,0.06807378055375259,25,down,down,0.8941128999867942,0.4295653859958397,,experiment,cRDM,0.0,,,,813.3713592000131,123,28,female,True,8133,8142,False,False,inspiration,expiration
197,0.06807378055375259,25,down,up,0.7778612999827601,1.1275361190267357,,experiment,cRDM,0.0,,,,815.6546436000208,123,28,female,True,8156,8164,False,False,expiration,inspiration
198,0.06807378055375259,25,up,down,0.9353170999966096,1.2810342359967457,,experiment,cRDM,0.0,,,,817.9711801999948,123,28,female,True,8179,8188,False,False,expiration,expiration
199,0.06807378055375259,25,up,down,0.9047117000154684,1.5363920638241453,,experiment,cRDM,0.0,,,,820.6877595999977,123,28,female,True,8206,8215,False,False,expiration,expiration
200,0.06807378055375259,25,down,down,1.3691071000066586,1.077943839233681,,experiment,cRDM,0.0,,,,822.9543678000044,123,28,female,True,8229,8243,False,False,inspiration,expiration
201,0.06807378055375259,25,down,down,0.7678963999787811,1.5351283360072463,,experiment,cRDM,0.0,,,,826.1376035000139,123,28,female,True,8261,8269,False,False,inspiration,expiration
202,0.06807378055375259,25,up,down,0.7286905999935698,1.8117559766070783,,experiment,cRDM,0.0,,,,828.9708078000112,123,28,female,True,8289,8296,False,False,inspiration,expiration
203,0.06807378055375259,25,down,down,0.7250590000185184,0.5309086439160259,,experiment,cRDM,0.0,,,,830.4873903999977,123,28,female,True,8304,8311,False,False,expiration,expiration
204,0.06807378055375259,25,up,down,0.8983805000025313,0.3821197794619525,,experiment,cRDM,0.0,,,,831.8540319000023,123,28,female,True,8318,8327,False,False,inspiration,peak
205,0.06807378055375259,25,down,up,1.1864592999918386,1.0251034664308123,,experiment,cRDM,0.0,,,,834.0539578000024,123,28,female,True,8340,8352,False,False,expiration,expiration
206,0.06807378055375259,25,down,down,0.7560001999954693,1.9635602122432576,,experiment,cRDM,0.0,,,,837.4704720000154,123,28,female,True,8374,8382,False,False,expiration,expiration
207,0.06807378055375259,25,up,down,0.7755321999720763,0.5487608579910046,,experiment,cRDM,0.0,,,,839.0369326000218,123,28,female,True,8390,8398,False,False,inspiration,inspiration
208,0.06807378055375259,25,up,down,0.6826381999999285,1.6481675818818633,,experiment,cRDM,0.0,,,,841.7367813000163,123,28,female,True,8417,8424,False,False,expiration,inspiration
209,0.06807378055375259,25,down,down,0.6996703000040725,0.5646628994486604,,experiment,cRDM,0.0,,,,843.2367784999951,123,28,female,True,8432,8439,False,False,inspiration,expiration
210,0.06807378055375259,25,up,down,0.6919211999920662,1.7563563725819284,,experiment,cRDM,0.0,,,,845.9535396000138,123,28,female,True,8459,8466,False,False,inspiration,inspiration
211,0.06807378055375259,25,down,down,0.7161123999976553,1.8944061675144261,,experiment,cRDM,0.0,,,,848.8033626000107,123,28,female,True,8487,8494,False,False,expiration,inspiration
212,0.06807378055375259,25,up,down,0.6634859000041615,0.6851107346884361,,experiment,cRDM,0.0,,,,850.4700078000022,123,28,female,True,8504,8511,False,False,expiration,expiration
213,0.06807378055375259,25,down,down,0.5278812000178732,1.3028134227569137,,experiment,cRDM,0.0,,,,852.6865982000016,123,28,female,True,8526,8531,False,False,inspiration,peak
214,0.06807378055375259,25,up,down,0.6557352999807335,1.6008439169039226,,experiment,cRDM,0.0,,,,855.0698324000115,123,28,female,True,8550,8557,False,False,inspiration,inspiration
215,0.06807378055375259,25,down,down,0.672730699996464,1.3760979779860605,,experiment,cRDM,0.0,,,,857.3697324999957,123,28,female,True,8573,8580,False,False,expiration,inspiration
216,0.06807378055375259,25,up,down,0.7837896000128239,1.5473795086574202,,experiment,cRDM,0.0,,,,859.8696679999994,123,28,female,True,8598,8606,False,False,expiration,expiration
217,0.06807378055375259,25,down,down,0.9755592999863438,0.7928006799911016,,experiment,cRDM,0.0,,,,861.7029083000089,123,28,female,True,8616,8626,False,False,inspiration,expiration
218,0.06807378055375259,25,up,up,0.8676026999892201,1.3659748872740445,,experiment,cRDM,0.0,,,,864.3028391000116,123,28,female,True,8642,8651,False,False,inspiration,inspiration
219,0.06807378055375259,25,down,down,0.8617382999800611,1.715445045248022,,experiment,cRDM,0.0,,,,867.1527318000152,123,28,female,True,8671,8680,False,False,expiration,inspiration
220,0.06807378055375259,25,up,up,1.3305043999862392,1.2061135656361015,,experiment,cRDM,0.0,,,,869.4859589000116,123,28,female,True,8694,8707,False,False,expiration,expiration
221,0.06807378055375259,25,down,down,1.039893100009067,0.4707446172141103,,experiment,cRDM,0.0,,,,871.5525774999987,123,28,female,True,8715,8725,False,False,inspiration,expiration
222,0.06807378055375259,25,down,down,0.9327004000078888,1.240239111530556,,experiment,cRDM,0.0,,,,874.0857804999977,123,28,female,True,8740,8749,False,False,expiration,expiration
223,0.06807378055375259,25,up,down,0.8388328999863006,0.9625154715669187,,experiment,cRDM,0.0,,,,876.2356674000038,123,28,female,True,8762,8770,False,False,inspiration,expiration
224,0.06807378055375259,25,down,down,0.8591568999981973,1.2252030463405583,,experiment,cRDM,0.0,,,,878.5523015999935,123,28,female,True,8785,8794,False,False,expiration,inspiration
225,0.06807378055375259,25,up,down,1.1799992999876852,1.9536747051547017,,experiment,cRDM,0.0,,,,881.6354216000183,123,28,female,True,8816,8828,False,False,expiration,trough
226,0.06807378055375259,25,up,up,1.2691954000038097,1.5594978232887144,,experiment,cRDM,0.0,,,,884.6352686000173,123,28,female,True,8846,8859,False,False,expiration,expiration
227,0.06807378055375259,25,down,down,1.155144799995469,0.4312154742736688,,experiment,cRDM,0.0,,,,886.5853177999962,123,28,female,True,8865,8877,False,False,inspiration,peak
228,0.06807378055375259,25,down,down,0.8469242999854032,1.4248109367194444,,experiment,cRDM,0.0,,,,889.418539300008,123,28,female,True,8893,8901,False,False,expiration,inspiration
229,0.06807378055375259,25,up,up,1.091972700000042,0.7415401756142868,,experiment,cRDM,0.0,,,,891.2684884000046,123,28,female,True,8912,8923,False,False,expiration,expiration
230,0.06807378055375259,25,down,down,0.9410741000028792,0.9952793729930052,,experiment,cRDM,0.0,,,,893.6183887000079,123,28,female,True,8935,8944,False,False,inspiration,expiration
231,0.06807378055375259,25,up,down,0.7827107000048272,0.7204409740910259,,experiment,cRDM,0.0,,,,895.5516926000129,123,28,female,True,8955,8963,False,False,expiration,inspiration
232,0.06807378055375259,25,up,up,0.8662371000100393,1.6198607430514051,,experiment,cRDM,0.0,,,,898.2182269000041,123,28,female,True,8981,8990,False,False,expiration,expiration
233,0.06807378055375259,25,up,down,0.8263652000168804,0.8625000382416339,,experiment,cRDM,0.0,,,,900.2181434000087,123,28,female,True,9001,9009,False,False,inspiration,inspiration
234,0.06807378055375259,25,up,down,0.8590389000019059,0.9967530173127914,,experiment,cRDM,0.0,,,,902.3014685999952,123,28,female,True,9022,9031,False,False,expiration,trough
235,0.06807378055375259,25,up,down,0.7470547999837436,1.4165902423917756,,experiment,cRDM,0.0,,,,904.8344308999948,123,28,female,True,9048,9055,False,False,expiration,expiration
236,0.06807378055375259,25,down,down,0.7326442000048701,1.4758482817160627,,experiment,cRDM,0.0,,,,907.3178782000032,123,28,female,True,9072,9079,False,False,inspiration,expiration
237,0.06807378055375259,25,down,down,0.8000116999901365,1.6060551891383197,,experiment,cRDM,0.0,,,,909.9344392000056,123,28,female,True,9099,9107,False,False,expiration,inspiration
238,0.06807378055375259,25,down,down,0.8343801999872085,1.6676636285890618,,experiment,cRDM,0.0,,,,912.651063600002,123,28,female,True,9126,9134,False,False,expiration,inspiration
239,0.06807378055375259,25,up,down,0.6641665000061039,1.5418515115725375,,experiment,cRDM,0.0,,,,915.2842635000123,123,28,female,True,9152,9159,False,False,expiration,expiration
240,0.06807378055375259,25,down,down,0.7445046000066213,1.0211870384413275,,experiment,cRDM,0.0,,,,917.2340209000104,123,28,female,True,9172,9179,False,False,inspiration,peak
241,0.06807378055375259,25,down,up,0.7023781999887433,1.7300615206896393,,experiment,cRDM,0.0,,,,919.9840815000059,123,28,female,True,9199,9206,False,False,inspiration,inspiration
242,0.06807378055375259,25,down,down,0.7367203999892808,1.7067228892594344,,experiment,cRDM,0.0,,,,922.650713800016,123,28,female,True,9226,9233,False,False,expiration,inspiration
243,0.06807378055375259,25,up,down,0.8138414999993984,1.2016667271507693,,experiment,cRDM,0.0,,,,924.8505925000064,123,28,female,True,9248,9256,False,False,expiration,expiration
244,0.06807378055375259,25,down,up,0.952979099994991,1.8122073945931207,,experiment,cRDM,0.0,,,,927.750494900014,123,28,female,True,9277,9287,False,False,inspiration,expiration
245,0.06807378055375259,25,up,down,0.947022799984552,0.5859823165487115,,experiment,cRDM,0.0,,,,929.5504314000136,123,28,female,True,9295,9304,False,False,trough,inspiration
246,0.06807378055375259,25,up,up,0.9847435000119732,0.5286957646171465,,experiment,cRDM,0.0,,,,931.283700400003,123,28,female,True,9312,9322,False,False,expiration,expiration
247,0.06807378055375259,25,down,up,1.7881187000020873,0.6242890016991139,,experiment,cRDM,0.0,,,,933.1502980999941,123,28,female,True,9331,9349,False,False,inspiration,expiration
248,0.06807378055375259,25,up,up,1.5389327000011688,0.8751055374832903,,experiment,cRDM,0.0,,,,936.0835119000113,123,28,female,True,9360,9375,False,False,trough,expiration
249,0.06807378055375259,25,down,down,0.7857548999891151,1.4310910910992432,,experiment,cRDM,0.0,,,,939.3167298000191,123,28,female,True,9392,9400,False,False,inspiration,inspiration
250,0.06807378055375259,25,up,down,1.227757100015879,1.1179697013813792,,experiment,cRDM,0.0,,,,941.4666484000044,123,28,female,True,9414,9426,False,False,expiration,inspiration
251,0.06807378055375259,25,down,up,1.4079551000031645,1.3536838269328921,,experiment,cRDM,0.0,,,,944.3165222000098,123,28,female,True,9442,9456,False,False,expiration,expiration
252,0.06807378055375259,25,up,down,1.2956521000014618,1.1080183114213369,,experiment,cRDM,0.0,,,,947.0998024000146,123,28,female,True,9470,9483,False,False,inspiration,expiration
253,0.06807378055375259,25,down,up,1.0077487000089604,0.8014656940379807,,experiment,cRDM,0.0,,,,949.4497002999997,123,28,female,True,9494,9504,False,False,expiration,inspiration
254,0.06807378055375259,25,down,down,1.0618608000222594,0.5841826896884141,,experiment,cRDM,0.0,,,,951.299633799994,123,28,female,True,9512,9523,False,False,expiration,expiration
255,0.06807378055375259,25,down,down,0.6948016999813262,1.2193023875794435,,experiment,cRDM,0.0,,,,953.8326485000143,123,28,female,True,9538,9545,False,False,inspiration,expiration
256,0.06807378055375259,25,down,down,0.7270087999932002,1.5199681831788392,,experiment,cRDM,0.0,,,,956.29944480001,123,28,female,True,9562,9569,False,False,inspiration,inspiration
257,0.06807378055375259,25,down,down,0.7189115999790374,1.9570106959107327,,experiment,cRDM,0.0,,,,959.232561700017,123,28,female,True,9592,9599,False,False,inspiration,inspiration
258,0.06807378055375259,25,up,up,1.0248500000161584,0.5638141376594936,,experiment,cRDM,0.0,,,,960.7826018000197,123,28,female,True,9607,9617,False,False,expiration,expiration
259,0.06807378055375259,25,up,down,0.7212775999796577,1.8695627598665852,,experiment,cRDM,0.0,,,,963.9491710000148,123,28,female,True,9639,9646,False,False,expiration,expiration
260,0.06807378055375259,25,up,up,0.9220468999992589,1.0464143100403651,,experiment,cRDM,0.0,,,,965.982399600005,123,28,female,True,9659,9668,False,False,inspiration,inspiration
261,0.06807378055375259,25,up,down,0.7118096000049263,1.7928593824380807,,experiment,cRDM,0.0,,,,968.9656541000003,123,28,female,True,9689,9696,False,False,expiration,expiration
262,104.0,25,M,down,0.8460060999786947,0.9701300340720732,,experiment,emotion,0.0,,,,1002.1644064999999,123,28,female,True,10021,10029,False,False,inspiration,expiration
263,94.0,25,M,down,0.6361475999874528,1.8758581125632188,,experiment,emotion,0.0,,,,1005.1643006000087,123,28,female,True,10051,10057,False,False,inspiration,expiration
264,101.0,25,F,down,0.6750914000149351,1.5978350311957847,,experiment,emotion,0.0,,,,1007.697512100014,123,28,female,True,10076,10083,False,False,expiration,inspiration
265,104.0,25,F,down,0.8599975999968592,1.852354170609392,,experiment,emotion,0.0,,,,1010.4974453000177,123,28,female,True,10104,10113,False,False,expiration,expiration
266,101.0,25,M,up,0.7211210000095889,1.961772431073215,,experiment,emotion,0.0,,,,1013.5973211000093,123,28,female,True,10135,10142,False,False,expiration,expiration
267,98.0,25,F,down,0.9898560000001452,0.675711728925495,,experiment,emotion,0.0,,,,1015.2805837000196,123,28,female,True,10152,10162,False,False,inspiration,expiration
268,94.0,25,M,down,1.3719433000078425,0.942799581105738,,experiment,emotion,0.0,,,,1017.4804997000027,123,28,female,True,10174,10188,False,False,expiration,expiration
269,98.0,25,M,down,0.8956854999996722,0.3291167829603745,,experiment,emotion,0.0,,,,1019.4637596000102,123,28,female,True,10194,10203,False,False,expiration,expiration
270,104.0,25,F,down,0.6391098000167403,1.046054437566568,,experiment,emotion,0.0,,,,1021.68033860001,123,28,female,True,10216,10222,False,False,inspiration,expiration
271,98.0,25,F,down,1.0415704000042751,1.2917101918444602,,experiment,emotion,0.0,,,,1023.896914300014,123,28,female,True,10238,10248,False,False,inspiration,inspiration
272,101.0,25,F,up,0.9065760000084992,0.7398547062529135,,experiment,emotion,0.0,,,,1025.946864700003,123,28,female,True,10259,10268,False,False,expiration,inspiration
273,104.0,25,F,up,0.6773656999866944,1.2100715259545989,,experiment,emotion,0.0,,,,1028.3300772999935,123,28,female,True,10283,10290,False,False,expiration,expiration
274,101.0,25,F,up,0.8797833000135142,1.5647158301151731,,experiment,emotion,0.0,,,,1030.8466774999981,123,28,female,True,10308,10317,False,False,expiration,expiration
275,94.0,25,F,up,0.7048135999939404,0.5344992624648166,,experiment,emotion,0.0,,,,1032.5466298999963,123,28,female,True,10325,10332,False,False,expiration,inspiration
276,98.0,25,M,down,1.406581000017468,1.1432241500190927,,experiment,emotion,0.0,,,,1034.6798605000076,123,28,female,True,10346,10360,False,False,expiration,expiration
277,94.0,25,M,down,0.7016830999928061,1.6315448002239266,,experiment,emotion,0.0,,,,1037.9797492000216,123,28,female,True,10379,10386,False,False,inspiration,expiration
278,104.0,25,M,up,0.9581776999984868,1.068329926155397,,experiment,emotion,0.0,,,,1040.0462321999948,123,28,female,True,10400,10410,False,False,trough,inspiration
279,94.0,25,M,down,0.8061850999947637,0.8326448599448377,,experiment,emotion,0.0,,,,1042.0962555000149,123,28,female,True,10420,10428,False,False,expiration,expiration
280,101.0,25,F,up,1.3292498999799136,0.919035692960584,,experiment,emotion,0.0,,,,1044.0961912000205,123,28,female,True,10440,10453,False,False,inspiration,expiration
281,101.0,25,M,up,0.6596695999905933,0.40708174673160336,,experiment,emotion,0.0,,,,1046.1127643999937,123,28,female,True,10460,10467,False,False,expiration,inspiration
282,98.0,25,M,up,0.6663789000012912,0.5522226030055482,,experiment,emotion,0.0,,,,1047.5960592000047,123,28,female,True,10475,10482,False,False,peak,expiration
283,98.0,25,F,up,0.8696082000096794,1.010804832056857,,experiment,emotion,0.0,,,,1049.5460124000092,123,28,female,True,10495,10504,False,False,inspiration,expiration
284,94.0,25,M,up,0.6395244999730494,0.4629613836433614,,experiment,emotion,0.0,,,,1051.1459527999978,123,28,female,True,10511,10517,False,False,expiration,expiration
285,104.0,25,F,up,0.6772271999798251,0.4079266685123536,,experiment,emotion,0.0,,,,1052.4792329000193,123,28,female,True,10524,10531,False,False,inspiration,expiration
286,101.0,25,F,up,0.7259639000112657,0.8369228674860016,,experiment,emotion,0.0,,,,1054.2624732000113,123,28,female,True,10542,10549,False,False,expiration,inspiration
287,94.0,25,M,down,0.8376802999991924,1.1835238620186377,,experiment,emotion,0.0,,,,1056.4457340000079,123,28,female,True,10564,10572,False,False,expiration,expiration
288,104.0,25,M,up,1.0914542000100482,1.5282494110993952,,experiment,emotion,0.0,,,,1059.078981700004,123,28,female,True,10590,10601,False,False,expiration,expiration
289,104.0,25,F,up,0.8247323999821674,0.4883519734515711,,experiment,emotion,0.0,,,,1060.9287616999936,123,28,female,True,10609,10617,False,False,trough,inspiration
290,98.0,25,M,down,0.7029628999880515,1.8622590030531039,,experiment,emotion,0.0,,,,1063.8954428000143,123,28,female,True,10638,10645,False,False,expiration,trough
291,94.0,25,F,down,0.6990711000107694,1.954434660473532,,experiment,emotion,0.0,,,,1066.8453688000154,123,28,female,True,10668,10675,False,False,expiration,expiration
292,98.0,25,F,down,0.9104997999966143,1.349877741259588,,experiment,emotion,0.0,,,,1069.1619340000034,123,28,female,True,10691,10700,False,False,inspiration,expiration
293,101.0,25,F,down,0.6980288000195287,0.37773282892215504,,experiment,emotion,0.0,,,,1070.7284048,123,28,female,True,10707,10714,False,False,expiration,inspiration
294,94.0,25,M,down,0.7533129999937955,1.9943371192338828,,experiment,emotion,0.0,,,,1073.6951038000116,123,28,female,True,10736,10744,False,False,expiration,trough
295,104.0,25,M,down,0.6544096000143327,0.8103709692173826,,experiment,emotion,0.0,,,,1075.5450467000192,123,28,female,True,10755,10762,False,False,inspiration,expiration
296,101.0,25,M,down,0.7198180999839678,1.3980571204018264,,experiment,emotion,0.0,,,,1077.8616142999963,123,28,female,True,10778,10785,False,False,inspiration,inspiration
297,104.0,25,F,down,0.6890693999885116,1.5664784217159826,,experiment,emotion,0.0,,,,1080.411358900019,123,28,female,True,10804,10811,False,False,expiration,inspiration
298,94.0,25,F,down,0.5116960000013933,0.6838842665067237,,experiment,emotion,0.0,,,,1082.0447940000158,123,28,female,True,10820,10825,False,False,inspiration,expiration
299,101.0,25,M,down,0.5033438999962527,0.7571311156379699,,experiment,emotion,0.0,,,,1083.5780774000161,123,28,female,True,10835,10840,False,False,expiration,inspiration
300,98.0,25,F,down,0.7367594999959692,0.5263341085887987,,experiment,emotion,0.0,,,,1084.894664899999,123,28,female,True,10848,10855,False,False,inspiration,expiration
301,98.0,25,M,down,1.1453387000074144,1.998591753942491,,experiment,emotion,0.0,,,,1087.9111083000025,123,28,female,True,10879,10890,False,False,inspiration,expiration
302,101.0,25,M,down,0.7596287999767809,1.591655467894386,,experiment,emotion,0.0,,,,1090.927798699995,123,28,female,True,10909,10917,False,False,inspiration,expiration
303,104.0,25,M,down,1.0089980000047944,0.4907121602467745,,experiment,emotion,0.0,,,,1092.4444232000096,123,28,female,True,10924,10934,False,False,expiration,expiration
304,98.0,25,F,up,0.7437513000040781,0.41559261513647855,,experiment,emotion,0.0,,,,1094.127649300004,123,28,female,True,10941,10948,False,False,inspiration,inspiration
305,94.0,25,F,down,1.1011106999940241,0.34761135868240484,,experiment,emotion,0.0,,,,1095.4943053000025,123,28,female,True,10954,10965,False,False,expiration,expiration
306,94.0,25,M,down,0.7635654000041541,1.3030535043747693,,experiment,emotion,0.0,,,,1098.1608543000184,123,28,female,True,10981,10989,False,False,inspiration,expiration
307,98.0,25,F,down,1.0459591000108048,0.7717319442248949,,experiment,emotion,0.0,,,,1099.9774689000042,123,28,female,True,10999,11009,False,False,expiration,inspiration
308,104.0,25,F,down,0.9917815000226256,1.4268612745562168,,experiment,emotion,0.0,,,,1102.7106809999968,123,28,female,True,11027,11037,False,False,expiration,expiration
309,101.0,25,M,down,0.6484225999738555,0.6185229889274233,,experiment,emotion,0.0,,,,1104.593959699996,123,28,female,True,11045,11051,False,False,inspiration,inspiration
310,94.0,25,M,down,0.7598256999917794,1.1034260583553548,,experiment,emotion,0.0,,,,1106.6105742999937,123,28,female,True,11066,11074,False,False,expiration,expiration
311,104.0,25,F,down,0.7535947000142187,0.7056062082466923,,experiment,emotion,0.0,,,,1108.3438305000018,123,28,female,True,11083,11091,False,False,inspiration,expiration
312,101.0,25,M,down,0.4846752000157721,1.2239371493078504,,experiment,emotion,0.0,,,,1110.5937357000075,123,28,female,True,11105,11110,False,False,expiration,inspiration
313,101.0,25,F,down,0.8765805000148248,0.5748327356525651,,experiment,emotion,0.0,,,,1111.9268815999967,123,28,female,True,11119,11128,False,False,inspiration,expiration
314,94.0,25,F,down,0.4603027999983169,1.6347628429738437,,experiment,emotion,0.0,,,,1114.7102293000207,123,28,female,True,11146,11151,False,False,inspiration,peak
315,98.0,25,F,down,0.6707416000135709,0.9887732557431148,,experiment,emotion,0.0,,,,1116.4266999000101,123,28,female,True,11164,11171,False,False,expiration,inspiration
316,104.0,25,M,down,0.5731080999830738,1.3747733145353576,,experiment,emotion,0.0,,,,1118.7434634999954,123,28,female,True,11187,11193,False,False,expiration,expiration
317,98.0,25,M,down,0.4454537999990862,1.2837723088321578,,experiment,emotion,0.0,,,,1120.8600200999936,123,28,female,True,11208,11212,False,False,inspiration,inspiration
318,98.0,25,F,down,0.7651065000100061,1.0825576149096647,,experiment,emotion,0.0,,,,1122.6432965999993,123,28,female,True,11226,11234,False,False,expiration,expiration
319,98.0,25,F,up,1.228206899977522,1.0063891554664652,,experiment,emotion,0.0,,,,1124.6932130000205,123,28,female,True,11246,11258,False,False,inspiration,expiration
320,104.0,25,M,up,0.7319219000055455,0.38359135988315024,,experiment,emotion,0.0,,,,1126.5764765000204,123,28,female,True,11265,11272,False,False,expiration,inspiration
321,101.0,25,M,down,0.706001800019294,0.5744454724123035,,experiment,emotion,0.0,,,,1128.1764119000002,123,28,female,True,11281,11288,False,False,peak,expiration
322,94.0,25,M,down,1.1797118000104092,0.3733418489778949,,experiment,emotion,0.0,,,,1129.5597286999982,123,28,female,True,11295,11307,False,False,expiration,inspiration
323,94.0,25,M,down,0.8014926000032574,1.5849057160998246,,experiment,emotion,0.0,,,,1132.59293470002,123,28,female,True,11325,11333,False,False,expiration,expiration
324,101.0,25,M,up,0.9453137000091374,0.5705573268276611,,experiment,emotion,0.0,,,,1134.2261210000142,123,28,female,True,11342,11351,False,False,inspiration,expiration
325,104.0,25,F,up,0.8709877000073902,1.3570159120244405,,experiment,emotion,0.0,,,,1136.8094343999985,123,28,female,True,11367,11376,False,False,expiration,inspiration
326,104.0,25,F,up,0.7440384000074118,0.9081044069916829,,experiment,emotion,0.0,,,,1138.8593658000173,123,28,female,True,11388,11395,False,False,expiration,expiration
327,94.0,25,M,down,0.8034769000078086,1.3047133451151147,,experiment,emotion,0.0,,,,1141.1759388000066,123,28,female,True,11411,11419,False,False,inspiration,expiration
328,104.0,25,F,down,2.2506240000075195,1.6151424069121267,,experiment,emotion,0.0,,,,1143.8758238000155,123,28,female,True,11438,11461,False,False,expiration,expiration
329,98.0,25,F,down,0.6660890000057407,1.1824005800319015,,experiment,emotion,0.0,,,,1147.5923629000024,123,28,female,True,11475,11482,False,False,inspiration,inspiration
330,101.0,25,F,down,0.7391708999930415,1.6368633563514483,,experiment,emotion,0.0,,,,1150.1922499000211,123,28,female,True,11501,11508,False,False,expiration,inspiration
331,98.0,25,M,down,0.8645458000246435,0.8631447298619321,,experiment,emotion,0.0,,,,1152.0588721999957,123,28,female,True,11520,11529,False,False,expiration,expiration
332,94.0,25,F,down,0.8509964999975637,0.37345520277490063,,experiment,emotion,0.0,,,,1153.5754826000193,123,28,female,True,11535,11544,False,False,expiration,inspiration
333,101.0,25,F,down,0.6736916999798268,1.6077004139904882,,experiment,emotion,0.0,,,,1156.308726999996,123,28,female,True,11563,11570,False,False,expiration,expiration
334,98.0,25,F,down,0.7391888999845833,1.7843097021032348,,experiment,emotion,0.0,,,,1159.0252104999965,123,28,female,True,11590,11597,False,False,expiration,expiration
335,101.0,25,M,down,0.7015156999987084,0.9132089658506136,,experiment,emotion,0.0,,,,1160.9418818000122,123,28,female,True,11609,11616,False,False,inspiration,inspiration
336,94.0,25,M,down,0.6805999999924097,0.6763184500180299,,experiment,emotion,0.0,,,,1162.5918105000164,123,28,female,True,11625,11632,False,False,expiration,expiration
337,104.0,25,F,down,0.5710369999869727,1.5967545701274792,,experiment,emotion,0.0,,,,1165.1584047999934,123,28,female,True,11651,11657,False,False,expiration,expiration
338,101.0,25,M,down,0.6301829000003636,1.5242819158234886,,experiment,emotion,0.0,,,,1167.5081809000112,123,28,female,True,11675,11681,False,False,inspiration,inspiration
339,104.0,25,F,down,0.6535857999988366,0.7109559964965938,,experiment,emotion,0.0,,,,1169.1248094000039,123,28,female,True,11691,11698,False,False,expiration,expiration
340,94.0,25,M,down,0.7558963999908883,0.545866685806948,,experiment,emotion,0.0,,,,1170.591519300011,123,28,female,True,11705,11713,False,False,inspiration,inspiration
341,98.0,25,M,down,0.6066171000129543,1.2495179583220113,,experiment,emotion,0.0,,,,1172.8747936,123,28,female,True,11728,11734,False,False,expiration,expiration
342,0.06807378055375259,25,up,up,0.7073131000215653,0.4202585309557812,,experiment,cRDM,1.0,,,,1199.507108699996,123,28,female,True,11994,12001,False,False,expiration,expiration
343,0.06807378055375259,25,up,up,0.6603579999937211,0.9732516002320629,,experiment,cRDM,1.0,,,,1201.4570553000085,123,28,female,True,12014,12021,False,False,inspiration,peak
344,0.06807378055375259,25,down,down,0.7290559000102803,0.6008939794320882,,experiment,cRDM,1.0,,,,1202.9903292999952,123,28,female,True,12029,12036,False,False,expiration,expiration
345,0.06807378055375259,25,down,down,0.6215270000102464,1.7646733577721396,,experiment,cRDM,1.0,,,,1205.7568984999962,123,28,female,True,12057,12063,False,False,expiration,expiration
346,0.06807378055375259,25,up,up,0.7902361000014935,0.6541509917641333,,experiment,cRDM,1.0,,,,1207.2901742999966,123,28,female,True,12072,12080,False,False,expiration,expiration
347,0.06807378055375259,25,down,up,1.3323669999954288,1.5977376866038102,,experiment,cRDM,1.0,,,,1209.9400714999938,123,28,female,True,12099,12112,False,False,inspiration,expiration
348,0.06807378055375259,25,up,down,0.7477943999983836,1.9339708503305089,,experiment,cRDM,1.0,,,,1213.4566191000051,123,28,female,True,12134,12141,False,False,peak,expiration
349,0.06807378055375259,25,up,up,0.6481542999972589,0.3700872410007089,,experiment,cRDM,1.0,,,,1214.823248700006,123,28,female,True,12148,12154,False,False,expiration,inspiration
350,0.06807378055375259,25,down,up,1.025259999994887,1.6320340287157418,,experiment,cRDM,1.0,,,,1217.3731463000004,123,28,female,True,12173,12183,False,False,expiration,expiration
351,0.06807378055375259,25,down,down,0.7292993000010028,0.6614676834722863,,experiment,cRDM,1.0,,,,1219.3231114000082,123,28,female,True,12193,12200,False,False,expiration,inspiration
352,0.06807378055375259,25,down,down,0.6102778999775182,0.988578830641609,,experiment,cRDM,1.0,,,,1221.3061233000192,123,28,female,True,12213,12219,False,False,expiration,expiration
353,0.06807378055375259,25,down,down,0.8448204000014812,1.6523662924575773,,experiment,cRDM,1.0,,,,1223.8395609000002,123,28,female,True,12238,12246,False,False,inspiration,expiration
354,0.06807378055375259,25,down,down,0.59841839998262,1.1664353783223718,,experiment,cRDM,1.0,,,,1226.1059826000128,123,28,female,True,12261,12267,False,False,inspiration,inspiration
355,0.06807378055375259,25,down,down,0.6945760000089649,0.35317554893298153,,experiment,cRDM,1.0,,,,1227.3227938000055,123,28,female,True,12273,12280,False,False,expiration,expiration
356,0.06807378055375259,25,up,down,0.6706619999895338,1.2334626410878808,,experiment,cRDM,1.0,,,,1229.5227273000055,123,28,female,True,12295,12302,False,False,inspiration,expiration
357,0.06807378055375259,25,up,down,0.6255816999764647,0.8698398758642985,,experiment,cRDM,1.0,,,,1231.3058212000176,123,28,female,True,12313,12319,False,False,expiration,inspiration
358,0.06807378055375259,25,up,down,0.6456880000187084,1.5098949809898718,,experiment,cRDM,1.0,,,,1233.705719999998,123,28,female,True,12337,12343,False,False,expiration,expiration
359,0.06807378055375259,25,up,down,0.8072681000048759,1.4749152245676354,,experiment,cRDM,1.0,,,,1236.0891305000114,123,28,female,True,12360,12368,False,False,inspiration,inspiration
360,0.06807378055375259,25,down,up,0.7052876000234392,0.3685758328344649,,experiment,cRDM,1.0,,,,1237.5221368000202,123,28,female,True,12375,12382,False,False,expiration,expiration
361,0.06807378055375259,25,up,up,1.5561689999885857,0.5422713345749023,,experiment,cRDM,1.0,,,,1239.0222150000045,123,28,female,True,12390,12406,False,False,inspiration,expiration
362,0.06807378055375259,25,up,down,0.7114756000228226,1.4911238700977243,,experiment,cRDM,1.0,,,,1242.338925499993,123,28,female,True,12423,12430,False,False,inspiration,inspiration
363,0.06807378055375259,25,down,up,0.7842865999846254,1.4109553570348419,,experiment,cRDM,1.0,,,,1244.7221449000062,123,28,female,True,12447,12455,False,False,expiration,expiration
364,0.06807378055375259,25,up,down,0.8247631999838632,1.6105678685653422,,experiment,cRDM,1.0,,,,1247.3886825999946,123,28,female,True,12473,12481,False,False,expiration,expiration
365,0.06807378055375259,25,down,down,0.6684787999838591,1.682690354783057,,experiment,cRDM,1.0,,,,1250.1719224000115,123,28,female,True,12501,12508,False,False,inspiration,expiration
366,0.06807378055375259,25,down,up,0.8007410999853164,1.9179766222053785,,experiment,cRDM,1.0,,,,1253.0216687000066,123,28,female,True,12530,12538,False,False,inspiration,expiration
367,0.06807378055375259,25,up,down,0.8566552000120282,0.3528959822367241,,experiment,cRDM,1.0,,,,1254.4217558999953,123,28,female,True,12544,12553,False,False,expiration,inspiration
368,0.06807378055375259,25,up,up,0.8720132000162266,0.3522641828762025,,experiment,cRDM,1.0,,,,1255.8883843999938,123,28,female,True,12558,12567,False,False,inspiration,expiration
369,0.06807378055375259,25,down,down,0.7074324999994133,0.44281930441127815,,experiment,cRDM,1.0,,,,1257.4549797000072,123,28,female,True,12574,12581,False,False,expiration,expiration
370,0.06807378055375259,25,up,down,1.3178675999806728,0.3431809209791365,,experiment,cRDM,1.0,,,,1258.7716205000181,123,28,female,True,12587,12600,False,False,inspiration,expiration
371,0.06807378055375259,25,down,up,0.8759546999935992,1.1601696132278307,,experiment,cRDM,1.0,,,,1261.5214078999998,123,28,female,True,12615,12624,False,False,expiration,inspiration
372,0.06807378055375259,25,down,down,0.657275599980494,0.5384140842688719,,experiment,cRDM,1.0,,,,1263.1881248000134,123,28,female,True,12631,12638,False,False,expiration,expiration
373,0.06807378055375259,25,down,down,0.8606819999986328,0.8050075717352956,,experiment,cRDM,1.0,,,,1264.90469950001,123,28,female,True,12648,12657,False,False,expiration,inspiration
374,0.06807378055375259,25,up,down,0.8953539000067394,1.4068569090681422,,experiment,cRDM,1.0,,,,1267.4380041999975,123,28,female,True,12674,12683,False,False,expiration,expiration
375,0.06807378055375259,25,up,down,0.6781937000050675,1.180116337556731,,experiment,cRDM,1.0,,,,1269.7712054000006,123,28,female,True,12697,12704,False,False,inspiration,expiration
376,0.06807378055375259,25,up,down,0.7186307999945711,1.6815389711706183,,experiment,cRDM,1.0,,,,1272.387763900013,123,28,female,True,12723,12730,False,False,inspiration,inspiration
377,0.06807378055375259,25,down,down,0.7227228000119794,1.4213525539382468,,experiment,cRDM,1.0,,,,1274.787682299997,123,28,female,True,12747,12754,False,False,expiration,inspiration
378,0.06807378055375259,25,down,down,0.809464099991601,0.5958437070850542,,experiment,cRDM,1.0,,,,1276.3709723000065,123,28,female,True,12763,12771,False,False,peak,expiration
379,0.06807378055375259,25,up,down,0.6472563999996055,1.6629390678298093,,experiment,cRDM,1.0,,,,1279.1041632000124,123,28,female,True,12791,12797,False,False,peak,expiration
380,0.06807378055375259,25,down,down,0.6112968999950681,1.542177052450183,,experiment,cRDM,1.0,,,,1281.5541121000133,123,28,female,True,12815,12821,False,False,inspiration,inspiration
381,0.06807378055375259,25,up,down,0.6634779000014532,1.5718706298933203,,experiment,cRDM,1.0,,,,1284.0039101000002,123,28,female,True,12840,12847,False,False,expiration,expiration
382,0.06807378055375259,25,up,down,1.8260850000078792,0.3678238503949697,,experiment,cRDM,1.0,,,,1285.287282300007,123,28,female,True,12852,12870,True,True,inspiration,expiration
383,0.06807378055375259,25,up,down,2.170185399998445,0.8529197468631895,,experiment,cRDM,1.0,,,,1288.2372101999933,123,28,female,True,12882,12904,True,True,expiration,inspiration
384,0.06807378055375259,25,down,down,1.6699934999924153,1.1463458918121678,,experiment,cRDM,1.0,,,,1291.8204234000004,123,28,female,True,12918,12935,True,True,inspiration,expiration
385,0.06807378055375259,25,down,down,1.036764199991012,0.4967318892069041,,experiment,cRDM,1.0,,,,1294.253640800016,123,28,female,True,12942,12952,True,True,expiration,expiration
386,0.06807378055375259,25,up,down,0.950167600007262,1.763187778494093,,experiment,cRDM,1.0,,,,1297.320223799994,123,28,female,True,12973,12983,False,False,expiration,expiration
387,0.06807378055375259,25,down,down,0.646311099990271,1.1285553053147144,,experiment,cRDM,1.0,,,,1299.6700824000002,123,28,female,True,12996,13002,False,False,inspiration,inspiration
388,0.06807378055375259,25,down,down,0.8583851000003051,1.8893934959425145,,experiment,cRDM,1.0,,,,1302.4700065999932,123,28,female,True,13024,13033,False,False,expiration,trough
389,0.06807378055375259,25,up,down,0.8391096999985166,0.4999805930345148,,experiment,cRDM,1.0,,,,1304.1032857999962,123,28,female,True,13041,13049,False,False,inspiration,expiration
390,0.06807378055375259,25,up,down,0.9624784999759868,0.921491112231015,,experiment,cRDM,1.0,,,,1306.1199113000184,123,28,female,True,13061,13071,False,False,expiration,expiration
391,0.06807378055375259,25,down,down,0.7073181000014301,1.8079470165294695,,experiment,cRDM,1.0,,,,1309.153085500002,123,28,female,True,13091,13098,False,False,expiration,expiration
392,0.06807378055375259,25,up,down,0.7790765000099782,0.8149965661172656,,experiment,cRDM,1.0,,,,1310.9363606999975,123,28,female,True,13109,13117,False,False,inspiration,inspiration
393,0.06807378055375259,25,down,down,0.6747977000195533,1.832166848981964,,experiment,cRDM,1.0,,,,1313.819616199995,123,28,female,True,13138,13145,False,False,expiration,inspiration
394,0.06807378055375259,25,down,down,0.9868874000094364,1.5506095108982436,,experiment,cRDM,1.0,,,,1316.3195022,123,28,female,True,13163,13173,False,False,expiration,expiration
395,0.06807378055375259,25,down,down,0.7986571000074036,1.0027774682958146,,experiment,cRDM,1.0,,,,1318.5527351000055,123,28,female,True,13185,13193,False,False,inspiration,expiration
396,0.06807378055375259,25,up,up,0.9143773000105284,0.7164170440157938,,experiment,cRDM,1.0,,,,1320.3360107000044,123,28,female,True,13203,13212,False,False,trough,inspiration
397,0.06807378055375259,25,up,up,1.0129128000116907,1.1917731828396696,,experiment,cRDM,1.0,,,,1322.7024781999935,123,28,female,True,13227,13237,False,False,expiration,inspiration
398,0.06807378055375259,25,down,down,0.8508478000003379,0.9626367165925804,,experiment,cRDM,1.0,,,,1324.9525035000115,123,28,female,True,13249,13258,False,False,expiration,expiration
399,0.06807378055375259,25,down,up,0.979553599987412,0.9619997561136546,,experiment,cRDM,1.0,,,,1327.0357847000125,123,28,female,True,13270,13280,False,False,inspiration,inspiration
400,0.06807378055375259,25,up,up,0.9677287000231444,0.3677818361774836,,experiment,cRDM,1.0,,,,1328.6357351000188,123,28,female,True,13286,13296,False,False,expiration,expiration
401,0.06807378055375259,25,up,down,0.81411360000493,0.6952116900759838,,experiment,cRDM,1.0,,,,1330.552306700003,123,28,female,True,13305,13313,False,False,inspiration,peak
402,0.06807378055375259,25,up,up,0.7761270000191871,0.5659483411706818,,experiment,cRDM,1.0,,,,1332.2022660000075,123,28,female,True,13321,13329,False,False,expiration,expiration
403,0.06807378055375259,25,up,down,1.177920100017218,1.6502178057906711,,experiment,cRDM,1.0,,,,1334.8854725999988,123,28,female,True,13348,13360,False,False,expiration,expiration
404,0.06807378055375259,25,up,down,0.94282560001011,0.6934731208478198,,experiment,cRDM,1.0,,,,1337.0185559999957,123,28,female,True,13370,13379,False,False,inspiration,expiration
405,0.06807378055375259,25,down,down,0.8610252999933437,0.5177295926571861,,experiment,cRDM,1.0,,,,1338.7353495999996,123,28,female,True,13387,13396,False,False,expiration,expiration
406,0.06807378055375259,25,down,down,0.7441386000136845,1.0289479584722678,,experiment,cRDM,1.0,,,,1340.885249600018,123,28,female,True,13408,13415,False,False,inspiration,expiration
407,0.06807378055375259,25,up,up,0.9151886999898124,1.6461250489144357,,experiment,cRDM,1.0,,,,1343.5351760000046,123,28,female,True,13435,13444,False,False,inspiration,expiration
408,0.06807378055375259,25,down,down,0.8040113000024576,0.5558486688862245,,experiment,cRDM,1.0,,,,1345.268431000004,123,28,female,True,13452,13460,False,False,expiration,trough
409,0.06807378055375259,25,down,down,0.8007357000024058,1.7147899196177925,,experiment,cRDM,1.0,,,,1348.051648599998,123,28,female,True,13480,13488,False,False,expiration,expiration
410,0.06807378055375259,25,down,down,0.6972546000033617,0.6081440848334089,,experiment,cRDM,1.0,,,,1349.7181323000113,123,28,female,True,13497,13504,False,False,inspiration,inspiration
411,0.06807378055375259,25,up,down,0.7245251999993343,1.8661456891244683,,experiment,cRDM,1.0,,,,1352.5348414000184,123,28,female,True,13525,13532,False,False,expiration,inspiration
412,0.06807378055375259,25,down,down,0.6764583000040147,0.6006436078193613,,experiment,cRDM,1.0,,,,1354.117965900019,123,28,female,True,13541,13548,False,False,peak,expiration
413,0.06807378055375259,25,down,down,0.6427011000050697,0.5648990672058638,,experiment,cRDM,1.0,,,,1355.634731099999,123,28,female,True,13556,13562,False,False,expiration,inspiration
414,0.06807378055375259,25,down,down,0.6731338000099639,1.4531467817144097,,experiment,cRDM,1.0,,,,1358.0012718999933,123,28,female,True,13579,13586,False,False,expiration,expiration
415,0.06807378055375259,25,up,down,1.029906100011431,1.9011947452904052,,experiment,cRDM,1.0,,,,1360.8345068000199,123,28,female,True,13608,13618,False,False,expiration,expiration
416,0.06807378055375259,25,up,down,0.7606278000166641,1.342074759536152,,experiment,cRDM,1.0,,,,1363.4677594999955,123,28,female,True,13634,13642,False,False,inspiration,expiration
417,0.06807378055375259,25,down,down,0.6950262999744155,1.1542733497803026,,experiment,cRDM,1.0,,,,1365.6343551000173,123,28,female,True,13656,13663,False,False,inspiration,inspiration
418,0.06807378055375259,25,up,up,1.4861333000008017,1.7624481370661569,,experiment,cRDM,1.0,,,,1368.3342487000045,123,28,female,True,13683,13698,False,False,expiration,peak
419,0.06807378055375259,25,down,down,0.6585672000073828,1.684514773027991,,experiment,cRDM,1.0,,,,1371.7507768000066,123,28,female,True,13717,13724,False,False,inspiration,inspiration
420,0.06807378055375259,25,up,up,0.91103300001123,1.24743837163037,,experiment,cRDM,1.0,,,,1373.917398999998,123,28,female,True,13739,13748,False,False,expiration,trough
421,0.06807378055375259,25,up,down,0.8511171000136528,1.5895205211258574,,experiment,cRDM,1.0,,,,1376.6672647999949,123,28,female,True,13766,13775,False,False,expiration,expiration
422,104.0,25,M,down,1.0673944000154734,1.7872051408215115,,experiment,emotion,1.0,,,,1384.1669873000064,123,28,female,True,13841,13852,False,False,expiration,inspiration
423,94.0,25,M,down,0.7472757000068668,1.7801174027400934,,experiment,emotion,1.0,,,,1387.3001466999995,123,28,female,True,13873,13880,False,False,expiration,inspiration
424,101.0,25,F,down,0.640569899987895,0.6018859519763983,,experiment,emotion,1.0,,,,1388.9168208000192,123,28,female,True,13889,13895,False,False,inspiration,expiration
425,104.0,25,F,down,0.7103490000008605,1.081525683885632,,experiment,emotion,1.0,,,,1391.750035200006,123,28,female,True,13917,13924,False,False,inspiration,expiration
426,101.0,25,M,up,1.0664464000146836,1.6063466030126192,,experiment,emotion,1.0,,,,1394.3499351000064,123,28,female,True,13943,13954,False,False,expiration,inspiration
427,98.0,25,F,down,0.8212051999871619,1.5366284189815456,,experiment,emotion,1.0,,,,1397.233174299996,123,28,female,True,13972,13980,False,False,expiration,inspiration
428,94.0,25,M,down,0.6976918999862392,1.3802882022336478,,experiment,emotion,1.0,,,,1399.6996986000158,123,28,female,True,13997,14004,False,False,expiration,expiration
429,98.0,25,M,down,0.5710110999934841,0.959183775950584,,experiment,emotion,1.0,,,,1401.6163508000027,123,28,female,True,14016,14022,False,False,inspiration,expiration
430,104.0,25,F,up,0.7244643000012729,1.11000426068984,,experiment,emotion,1.0,,,,1403.5829198000138,123,28,female,True,14035,14042,False,False,expiration,expiration
431,98.0,25,F,down,0.6542224000149872,1.6897461000488363,,experiment,emotion,1.0,,,,1406.2661792000001,123,28,female,True,14062,14069,False,False,expiration,expiration
432,101.0,25,F,up,0.7986489000031725,1.831467786456252,,experiment,emotion,1.0,,,,1409.0327275000166,123,28,female,True,14090,14098,False,False,inspiration,expiration
433,104.0,25,F,up,0.8747240000229795,0.5957527402279822,,experiment,emotion,1.0,,,,1410.682650300005,123,28,female,True,14106,14115,False,False,expiration,expiration
434,101.0,25,F,up,0.8291131999867503,0.8147843470200091,,experiment,emotion,1.0,,,,1412.6492617000185,123,28,female,True,14126,14134,False,False,inspiration,expiration
435,94.0,25,F,down,0.7438727999979164,1.9772830115684343,,experiment,emotion,1.0,,,,1415.7324937999947,123,28,female,True,14157,14164,False,False,inspiration,inspiration
436,98.0,25,M,up,0.9313298999913968,0.7760861128952953,,experiment,emotion,1.0,,,,1417.5490902000165,123,28,female,True,14175,14184,False,False,expiration,expiration
437,94.0,25,M,down,0.8113569999986794,0.340290330088286,,experiment,emotion,1.0,,,,1419.0990331000064,123,28,female,True,14191,14199,False,False,inspiration,inspiration
438,104.0,25,M,down,0.8074054999742657,0.6788898768644666,,experiment,emotion,1.0,,,,1420.8489551999953,123,28,female,True,14208,14216,False,False,expiration,expiration
439,94.0,25,M,down,0.6794666999776382,1.2243807921584662,,experiment,emotion,1.0,,,,1423.1488796000194,123,28,female,True,14231,14238,False,False,inspiration,expiration
440,101.0,25,F,down,0.9192216999945232,1.0357725703030165,,experiment,emotion,1.0,,,,1425.132137200009,123,28,female,True,14251,14260,False,False,expiration,inspiration
441,101.0,25,M,down,1.1933295000053477,1.3667417523703678,,experiment,emotion,1.0,,,,1427.6820511000117,123,28,female,True,14276,14288,False,False,expiration,expiration
442,98.0,25,M,down,0.8704810999915935,1.6386785276371527,,experiment,emotion,1.0,,,,1430.7819086000088,123,28,female,True,14307,14316,False,False,expiration,expiration
443,98.0,25,F,down,0.8361587999970652,0.34687206987831354,,experiment,emotion,1.0,,,,1432.2652062000125,123,28,female,True,14322,14330,False,False,expiration,inspiration
444,94.0,25,M,down,1.2729420000105165,1.4282661665898582,,experiment,emotion,1.0,,,,1434.798430099996,123,28,female,True,14348,14361,False,False,expiration,expiration
445,104.0,25,F,up,0.8319947000127286,0.7056600810606488,,experiment,emotion,1.0,,,,1437.0483815000046,123,28,female,True,14370,14378,False,False,inspiration,inspiration
446,101.0,25,F,up,0.7057411000132561,0.3577191106222547,,experiment,emotion,1.0,,,,1438.531659500004,123,28,female,True,14385,14392,False,False,expiration,expiration
447,94.0,25,M,down,0.9328172000241466,1.5713635330295006,,experiment,emotion,1.0,,,,1441.0815651000012,123,28,female,True,14410,14419,False,False,inspiration,expiration
448,104.0,25,M,down,0.6998991000000387,1.2862630092529037,,experiment,emotion,1.0,,,,1443.5814606000204,123,28,female,True,14435,14442,False,False,inspiration,inspiration
449,104.0,25,F,down,0.8620064000133425,1.3330322281704092,,experiment,emotion,1.0,,,,1445.881367599999,123,28,female,True,14458,14467,False,False,expiration,expiration
450,98.0,25,M,down,0.6711036000051536,1.387949857700724,,experiment,emotion,1.0,,,,1448.4312779000031,123,28,female,True,14484,14491,False,False,peak,expiration
451,94.0,25,F,down,0.696813500020653,0.7916044127984281,,experiment,emotion,1.0,,,,1450.1645559000024,123,28,female,True,14501,14508,False,False,trough,inspiration
452,98.0,25,F,down,0.6749316999921575,1.0414700470422036,,experiment,emotion,1.0,,,,1452.1644657000147,123,28,female,True,14521,14528,False,False,expiration,expiration
453,101.0,25,F,down,0.6582829999970272,0.3108406589987397,,experiment,emotion,1.0,,,,1453.4310925000175,123,28,female,True,14534,14541,False,False,inspiration,inspiration
454,94.0,25,M,down,0.6367649000021629,0.9227910710216696,,experiment,emotion,1.0,,,,1455.2976225000166,123,28,female,True,14553,14559,False,False,expiration,expiration
455,104.0,25,M,down,0.5858493999985512,1.0941515198354577,,experiment,emotion,1.0,,,,1457.297582500003,123,28,female,True,14573,14579,False,False,inspiration,expiration
456,101.0,25,M,up,0.7935183000226971,0.3226131288988068,,experiment,emotion,1.0,,,,1458.4809127000046,123,28,female,True,14584,14592,False,False,expiration,expiration
457,104.0,25,F,down,0.771566100011114,1.6899517874900156,,experiment,emotion,1.0,,,,1461.2308104000113,123,28,female,True,14612,14620,False,False,expiration,expiration
458,94.0,25,F,down,0.8413304999994581,1.6934287283170304,,experiment,emotion,1.0,,,,1463.9640437000198,123,28,female,True,14639,14647,False,False,inspiration,expiration
459,101.0,25,M,down,0.7964099000091664,1.135244013342201,,experiment,emotion,1.0,,,,1466.2139615000049,123,28,female,True,14662,14670,False,False,expiration,inspiration
460,98.0,25,F,down,0.7182900999905542,1.4932544333907805,,experiment,emotion,1.0,,,,1468.7970650000207,123,28,female,True,14688,14695,False,False,expiration,expiration
461,98.0,25,M,up,0.9935402999981306,0.9230390695877416,,experiment,emotion,1.0,,,,1470.7138030000203,123,28,female,True,14707,14717,False,False,inspiration,expiration
462,101.0,25,M,down,0.8330015999963507,1.342171914899871,,experiment,emotion,1.0,,,,1473.3303631000165,123,28,female,True,14733,14741,False,False,inspiration,inspiration
463,104.0,25,M,down,0.8101197999785654,1.422828331239353,,experiment,emotion,1.0,,,,1475.8802701999955,123,28,female,True,14758,14766,False,False,expiration,inspiration
464,98.0,25,F,down,0.6721630000101868,1.266241134433376,,experiment,emotion,1.0,,,,1478.2301678000076,123,28,female,True,14782,14789,False,False,expiration,expiration
465,94.0,25,F,down,0.7499239999742713,1.1727474296627969,,experiment,emotion,1.0,,,,1480.3634449999954,123,28,female,True,14803,14810,False,False,inspiration,inspiration
466,94.0,25,M,down,0.7540166999970097,1.8933563806936535,,experiment,emotion,1.0,,,,1483.2633364000067,123,28,female,True,14832,14840,False,False,expiration,inspiration
467,98.0,25,F,down,0.5644735000096262,1.2889976072107967,,experiment,emotion,1.0,,,,1485.579896500014,123,28,female,True,14855,14861,False,False,expiration,expiration
468,104.0,25,F,down,0.7079309999826364,1.7666732963983387,,experiment,emotion,1.0,,,,1488.1964078000165,123,28,female,True,14882,14889,False,False,expiration,expiration
469,101.0,25,M,down,0.6706620999902952,1.8187736358419766,,experiment,emotion,1.0,,,,1490.9796871000146,123,28,female,True,14909,14916,False,False,inspiration,expiration
470,94.0,25,M,down,0.4507735000224784,1.3709323829018687,,experiment,emotion,1.0,,,,1493.2795951000005,123,28,female,True,14932,14937,False,False,trough,inspiration
471,104.0,25,F,up,0.939826899993932,1.2677471482468872,,experiment,emotion,1.0,,,,1495.279535700014,123,28,female,True,14952,14961,False,False,expiration,expiration
472,101.0,25,M,up,0.799644700018689,1.9644894557427808,,experiment,emotion,1.0,,,,1498.462753300002,123,28,female,True,14984,14992,False,False,expiration,expiration
473,101.0,25,F,up,0.7456222000182606,1.7685369993355124,,experiment,emotion,1.0,,,,1501.2957213000045,123,28,female,True,15013,15020,False,False,inspiration,expiration
474,94.0,25,F,down,1.07918279999285,1.7557544547226205,,experiment,emotion,1.0,,,,1504.0792121000122,123,28,female,True,15040,15051,False,False,inspiration,inspiration
475,98.0,25,F,down,0.7588584999903105,0.4196951524768053,,experiment,emotion,1.0,,,,1505.8625006999937,123,28,female,True,15058,15066,False,False,expiration,expiration
476,104.0,25,M,down,0.8223348000028636,1.4300720053030902,,experiment,emotion,1.0,,,,1508.3290662000072,123,28,female,True,15083,15091,False,False,inspiration,expiration
477,98.0,25,M,down,0.8134156000160147,1.5503986305603363,,experiment,emotion,1.0,,,,1510.9789512999994,123,28,female,True,15109,15117,False,False,inspiration,inspiration
478,98.0,25,F,down,0.8481082000071183,0.5986279165501822,,experiment,emotion,1.0,,,,1512.6622589000033,123,28,female,True,15126,15134,False,False,expiration,expiration
479,98.0,25,F,down,0.8595462999946903,1.1051633047575078,,experiment,emotion,1.0,,,,1514.878817799996,123,28,female,True,15148,15157,False,False,inspiration,inspiration
480,104.0,25,M,up,1.1352649999898858,0.4012306739169912,,experiment,emotion,1.0,,,,1516.412120299996,123,28,female,True,15164,15175,False,False,expiration,expiration
481,101.0,25,M,down,0.962238800013438,0.4530963354150955,,experiment,emotion,1.0,,,,1518.295135399996,123,28,female,True,15183,15193,False,False,inspiration,inspiration
482,94.0,25,M,down,0.8327966000069864,1.6318586021045052,,experiment,emotion,1.0,,,,1521.1785731000127,123,28,female,True,15211,15219,False,False,expiration,inspiration
483,94.0,25,M,down,0.7245109000068624,0.7818884726099675,,experiment,emotion,1.0,,,,1523.0618825000129,123,28,female,True,15230,15237,False,False,inspiration,expiration
484,101.0,25,M,up,0.8319719999853987,1.2023589722384804,,experiment,emotion,1.0,,,,1525.2784313000157,123,28,female,True,15252,15260,False,False,inspiration,inspiration
485,104.0,25,F,up,0.8060058999981266,1.7032370992621708,,experiment,emotion,1.0,,,,1528.0783409000144,123,28,female,True,15280,15288,False,False,expiration,inspiration
486,104.0,25,F,up,0.8363881999976002,0.4388568533991699,,experiment,emotion,1.0,,,,1529.5949862000125,123,28,female,True,15296,15304,False,False,expiration,expiration
487,94.0,25,M,down,0.7768411000142805,0.5536546553439985,,experiment,emotion,1.0,,,,1531.2615631000078,123,28,female,True,15312,15320,False,False,expiration,inspiration
488,104.0,25,F,down,0.7355571999796666,0.6219531118044892,,experiment,emotion,1.0,,,,1532.9448259000199,123,28,female,True,15329,15336,False,False,expiration,expiration
489,98.0,25,F,down,0.6842642999836244,0.8442132372574498,,experiment,emotion,1.0,,,,1534.828093799995,123,28,female,True,15348,15355,False,False,inspiration,inspiration
490,101.0,25,F,down,0.6896803999843542,1.5167889156166006,,experiment,emotion,1.0,,,,1537.2946412000165,123,28,female,True,15373,15380,False,False,expiration,inspiration
491,98.0,25,M,down,0.7413862999819685,1.1335740681355364,,experiment,emotion,1.0,,,,1539.3779423999952,123,28,female,True,15393,15400,False,False,expiration,expiration
492,94.0,25,F,down,0.6132600999844726,1.518415170809872,,experiment,emotion,1.0,,,,1541.9111040999994,123,28,female,True,15419,15425,False,False,inspiration,expiration
493,101.0,25,F,down,0.632600300014019,1.4772347593071875,,experiment,emotion,1.0,,,,1544.2777624000155,123,28,female,True,15442,15448,False,False,inspiration,inspiration
494,98.0,25,F,down,0.6524027999839745,1.3497640976355356,,experiment,emotion,1.0,,,,1546.5109650999948,123,28,female,True,15465,15472,False,False,expiration,expiration
495,101.0,25,M,down,0.6421524999896064,1.6207065518938486,,experiment,emotion,1.0,,,,1549.0442179999955,123,28,female,True,15490,15496,False,False,peak,expiration
496,94.0,25,M,down,0.7679163000138942,1.9042379610756799,,experiment,emotion,1.0,,,,1551.8774698000052,123,28,female,True,15518,15526,False,False,inspiration,expiration
497,104.0,25,F,up,1.0002836999774445,0.5705108774216525,,experiment,emotion,1.0,,,,1553.4940474000175,123,28,female,True,15535,15545,False,False,expiration,expiration
498,101.0,25,M,down,1.2040329999872483,1.2001581627374074,,experiment,emotion,1.0,,,,1555.977325999993,123,28,female,True,15559,15571,False,False,inspiration,expiration
499,104.0,25,F,up,0.7318817000195849,1.0636176894739746,,experiment,emotion,1.0,,,,1558.510438600002,123,28,female,True,15585,15592,False,False,inspiration,inspiration
500,94.0,25,M,down,0.7685924000106752,1.8217896588523492,,experiment,emotion,1.0,,,,1561.3437705000104,123,28,female,True,15613,15621,False,False,expiration,inspiration
501,98.0,25,M,up,0.8001151000207756,0.9309426545846148,,experiment,emotion,1.0,,,,1563.3102375000014,123,28,female,True,15633,15641,False,False,expiration,expiration
502,0.06807378055375259,25,up,up,0.902617099985946,1.7823956799585663,,experiment,cRDM,2.0,,,,1598.8257341000135,123,28,female,True,15988,15997,False,False,expiration,expiration
503,0.06807378055375259,25,up,up,0.8104031000111718,1.757367693833661,,experiment,cRDM,2.0,,,,1601.7589505000215,123,28,female,True,16017,16025,False,False,inspiration,expiration
504,0.06807378055375259,25,down,down,0.7433627999853343,0.7734277887532375,,experiment,cRDM,2.0,,,,1603.5920517000195,123,28,female,True,16036,16043,False,False,expiration,inspiration
505,0.06807378055375259,25,down,down,0.6785304000077303,1.357595812094512,,experiment,cRDM,2.0,,,,1605.9588191999935,123,28,female,True,16059,16066,False,False,expiration,expiration
506,0.06807378055375259,25,up,up,0.8825696999847423,1.452680275849496,,experiment,cRDM,2.0,,,,1608.3587125000195,123,28,female,True,16083,16092,False,False,inspiration,expiration
507,0.06807378055375259,25,down,down,0.7084012000123039,0.8844061171177002,,experiment,cRDM,2.0,,,,1610.391944300005,123,28,female,True,16104,16111,False,False,inspiration,inspiration
508,0.06807378055375259,25,up,down,0.6974178000236861,0.5905082114233657,,experiment,cRDM,2.0,,,,1611.9419097000211,123,28,female,True,16119,16126,False,False,expiration,expiration
509,0.06807378055375259,25,up,,,0.7033084446678362,,experiment,cRDM,2.0,,,,1613.6085426000063,123,28,female,True,16136,0,False,False,inspiration,0
510,0.06807378055375259,25,down,down,0.7316838000260759,0.6014838394826825,,experiment,cRDM,2.0,,,,1616.8916598999929,123,28,female,True,16169,16176,False,False,expiration,expiration
511,0.06807378055375259,25,down,down,0.8473683999909554,1.9315231126584875,,experiment,cRDM,2.0,,,,1619.8249619000126,123,28,female,True,16198,16206,False,False,expiration,expiration
512,0.06807378055375259,25,down,down,0.6114710999827366,0.8459776043591056,,experiment,cRDM,2.0,,,,1621.774876200012,123,28,female,True,16217,16223,False,False,inspiration,inspiration
513,0.06807378055375259,25,down,down,0.7851844000106212,0.9134636249022808,,experiment,cRDM,2.0,,,,1623.5581548000046,123,28,female,True,16235,16243,False,False,expiration,inspiration
514,0.06807378055375259,25,down,down,0.7190466000174638,0.4877518105453002,,experiment,cRDM,2.0,,,,1625.0913225999975,123,28,female,True,16251,16258,False,False,inspiration,expiration
515,0.06807378055375259,25,down,down,1.116794800007483,1.7257807784047865,,experiment,cRDM,2.0,,,,1627.7915881999945,123,28,female,True,16278,16289,False,False,inspiration,expiration
516,0.06807378055375259,25,up,down,0.8801193999825045,0.42805636710826056,,experiment,cRDM,2.0,,,,1629.591175300011,123,28,female,True,16296,16305,False,False,expiration,inspiration
517,0.06807378055375259,25,up,down,0.9794820999959484,0.4194655047926081,,experiment,cRDM,2.0,,,,1631.1578635000042,123,28,female,True,16311,16321,False,False,expiration,expiration
518,0.06807378055375259,25,up,down,0.8675267999933567,1.0983079313823154,,experiment,cRDM,2.0,,,,1633.5078227000195,123,28,female,True,16335,16344,False,False,inspiration,expiration
519,0.06807378055375259,25,up,up,1.06764690001728,1.120713881055424,,experiment,cRDM,2.0,,,,1635.757693399995,123,28,female,True,16357,16368,False,False,inspiration,expiration
520,0.06807378055375259,25,down,down,1.6255791000148747,0.9165528571225472,,experiment,cRDM,2.0,,,,1637.9907836000202,123,28,female,True,16380,16396,False,False,expiration,inspiration
521,0.06807378055375259,25,up,down,2.305198799993377,1.7986293235157258,,experiment,cRDM,2.0,,,,1641.674127800012,123,28,female,True,16416,16439,False,False,inspiration,expiration
522,0.06807378055375259,25,up,up,1.470717699994566,1.9894256737366205,,experiment,cRDM,2.0,,,,1646.240655600006,123,28,female,True,16462,16477,False,False,expiration,expiration
523,0.06807378055375259,25,down,up,1.4347984000050928,0.4523925509471489,,experiment,cRDM,2.0,,,,1648.44055140001,123,28,female,True,16484,16498,False,False,inspiration,expiration
524,0.06807378055375259,25,up,down,1.0325116000021808,0.8853218887177521,,experiment,cRDM,2.0,,,,1651.023828800011,123,28,female,True,16510,16520,False,False,expiration,inspiration
525,0.06807378055375259,25,down,down,0.7562635999929626,0.6475708624685985,,experiment,cRDM,2.0,,,,1652.9570807999992,123,28,female,True,16529,16537,False,False,expiration,expiration
526,0.06807378055375259,25,down,down,0.8913209000020288,0.5718170855557161,,experiment,cRDM,2.0,,,,1654.5570448999933,123,28,female,True,16545,16554,False,False,expiration,inspiration
527,0.06807378055375259,25,up,up,0.9661617999954616,0.8825057314230864,,experiment,cRDM,2.0,,,,1656.5901823000167,123,28,female,True,16566,16576,False,False,expiration,expiration
528,0.06807378055375259,25,up,down,0.77689029998146,1.807905301663075,,experiment,cRDM,2.0,,,,1659.623473100015,123,28,female,True,16596,16604,False,False,expiration,expiration
529,0.06807378055375259,25,down,down,0.7019409000058658,0.9081209590401114,,experiment,cRDM,2.0,,,,1661.5734031000175,123,28,female,True,16615,16622,False,False,inspiration,expiration
530,0.06807378055375259,25,up,down,0.6700247999979183,1.7431380006679869,,experiment,cRDM,2.0,,,,1664.2733071999976,123,28,female,True,16642,16649,False,False,inspiration,expiration
531,0.06807378055375259,25,down,up,0.9595016000093892,1.3258508367061566,,experiment,cRDM,2.0,,,,1666.539903099998,123,28,female,True,16665,16675,False,False,expiration,inspiration
532,0.06807378055375259,25,down,down,0.749945999996271,0.9368210001319228,,experiment,cRDM,2.0,,,,1668.7063978000076,123,28,female,True,16687,16694,False,False,expiration,expiration
