,stimLvl,stimTime,rand,response,rt,precedingITI,trialNumber,trialType,stimuli,block,estIntens,estThres,estSlope,trialStart,subject,age,gender,headRest,onset,responsI,manBadOnset,manBadRespons,onset_phase,respons_phase
0,0.9,100,down,,,1.6747258240548182,,introTrial,cRDM,,,,,206.14125019998755,132,22,male,True,2060,0,False,False,expiration,0
1,150.0,100,F,,,1.872369832614293,,introTrial,emotion,,,,,211.9743630999001,132,22,male,True,2119,0,False,False,expiration,0
2,200.0,25,M,up,0.4638469000346959,0.343472792023359,,tutorial,emotion,,,,,282.9885467999848,132,22,male,True,2829,2834,False,False,inspiration,expiration
3,200.0,25,M,up,0.4001859000418335,0.9029920078567252,,tutorial,emotion,,,,,284.6384948999621,132,22,male,True,2845,2849,False,False,expiration,inspiration
4,200.0,25,F,up,0.4393745999550447,1.1884451628126558,,tutorial,emotion,,,,,286.5550903999247,132,22,male,True,2865,2869,False,False,peak,expiration
5,0.0,25,F,down,0.4660018000286073,0.7960046027302394,,tutorial,emotion,,,,,288.0883780999575,132,22,male,True,2880,2885,False,False,trough,inspiration
6,0.0,25,F,down,0.4588807000545785,1.8201935290671447,,tutorial,emotion,,,,,290.67156489996705,132,22,male,True,2906,2911,False,False,expiration,expiration
7,200.0,25,M,up,0.3834908000426367,1.340341192261705,,tutorial,emotion,,,,,292.73820349993184,132,22,male,True,2926,2930,False,False,inspiration,expiration
8,0.0,25,M,down,0.4779183999635279,1.1761373109998203,,tutorial,emotion,,,,,294.6214706999017,132,22,male,True,2945,2950,False,False,inspiration,inspiration
9,200.0,25,F,up,0.4287154999328777,1.4844504104730336,,tutorial,emotion,,,,,296.87165089999326,132,22,male,True,2968,2972,False,False,inspiration,inspiration
10,0.0,25,F,down,0.4638305999105796,1.4777639150224662,,tutorial,emotion,,,,,299.0545526999049,132,22,male,True,2990,2995,False,False,expiration,expiration
11,0.0,25,M,up,0.33368469995912164,1.0636635761160984,,tutorial,emotion,,,,,300.85441759997053,132,22,male,True,3008,3011,False,False,inspiration,inspiration
12,0.9,25,up,up,0.5003393999068066,1.7104981284187766,,tutorial,cRDM,,,,,310.35421029990533,132,22,male,True,3103,3108,False,False,expiration,expiration
13,0.9,25,up,up,0.4238492000149563,0.6426843566549193,,tutorial,cRDM,,,,,311.787531399983,132,22,male,True,3117,3121,False,False,inspiration,inspiration
14,0.9,25,down,down,0.30051800003275275,0.7606800811814247,,tutorial,cRDM,,,,,313.2374251999426,132,22,male,True,3131,3134,False,False,expiration,expiration
15,0.9,25,down,down,0.26715959992725397,0.8027917736983181,,tutorial,cRDM,,,,,314.72072559990914,132,22,male,True,3146,3149,False,False,inspiration,inspiration
16,0.9,25,up,up,0.3338132000062615,0.7861996075148383,,tutorial,cRDM,,,,,316.2040143999038,132,22,male,True,3161,3164,False,False,expiration,expiration
17,0.9,25,down,up,0.35062689997721463,0.4435642104369487,,tutorial,cRDM,,,,,317.3539521999192,132,22,male,True,3172,3176,False,False,expiration,inspiration
18,0.9,25,up,up,0.5055418000556529,1.0302043107632337,,tutorial,cRDM,,,,,319.07083819992835,132,22,male,True,3190,3195,False,False,expiration,expiration
19,0.9,25,up,down,0.23383419995661825,1.2359736241521715,,tutorial,cRDM,,,,,321.10382929991465,132,22,male,True,3210,3212,False,False,inspiration,inspiration
20,0.9,25,down,up,0.3837935000192374,0.9351826710082414,,tutorial,cRDM,,,,,322.7371194999432,132,22,male,True,3226,3230,False,False,expiration,inspiration
21,0.9,25,down,down,0.5446856999769807,0.790574918586864,,tutorial,cRDM,,,,,324.20371469995007,132,22,male,True,3241,3246,False,False,inspiration,expiration
22,100.0,25,M,up,0.4001299999654293,0.9962099253222508,,psi_staircase_training,emotion,,100.0,100.0,25.00050000000001,334.9699923999142,132,22,male,True,3349,3353,False,False,inspiration,expiration
23,55.0,25,M,down,0.4991760000120848,0.7218138415879836,,psi_staircase_training,emotion,,54.742809467541896,54.742809467541896,25.00050000000011,336.45326159999235,132,22,male,True,3364,3369,False,False,expiration,trough
24,79.0,25,F,down,0.4958661000709981,1.4825102651335542,,psi_staircase_training,emotion,,79.636070985635,79.636070985635,25.71326925488641,338.78653779998416,132,22,male,True,3387,3392,False,False,expiration,expiration
25,103.0,25,F,down,0.46364370000083,1.9492934618830342,,psi_staircase_training,emotion,,97.61123893914808,97.61123893914808,26.1463337262867,341.56977399997413,132,22,male,True,3415,3420,False,False,expiration,expiration
26,127.0,25,M,down,0.4614131000125781,1.549887414575074,,psi_staircase_training,emotion,,117.15641007867752,117.15641007867752,31.432291447829705,343.9529832999688,132,22,male,True,3438,3443,False,False,inspiration,expiration
27,148.0,25,F,down,0.4915087999543175,0.3263529209864014,,psi_staircase_training,emotion,,137.43317204546622,137.43317204546622,34.340881921268554,345.10296719998587,132,22,male,True,3450,3455,False,False,expiration,expiration
28,161.0,25,M,down,0.5222148000029847,1.3259958160394474,,psi_staircase_training,emotion,,155.46247000016731,155.46247000016731,34.28003647002313,347.3361994998995,132,22,male,True,3472,3477,False,False,expiration,expiration
29,170.0,25,F,down,0.5510717999422923,1.7198090212354475,,psi_staircase_training,emotion,,168.74231077445515,168.74231077445515,32.256557694803945,349.9693928000052,132,22,male,True,3499,3505,False,False,inspiration,expiration
30,178.0,25,F,up,0.4579597000265494,0.9097837233940018,,psi_staircase_training,emotion,,177.81522725932618,177.81522725932618,29.379914408971896,351.81936329999013,132,22,male,True,3517,3522,False,False,expiration,expiration
31,160.0,25,M,down,0.6757300000172108,0.9975788377820848,,psi_staircase_training,emotion,,170.28813072702997,170.28813072702997,32.91942046959018,353.6526143999071,132,22,male,True,3535,3542,False,False,inspiration,expiration
32,162.0,25,F,up,0.3838083000155166,1.4821020631606814,,psi_staircase_training,emotion,,175.1446342856875,175.1446342856875,30.053744180833288,356.1858803000068,132,22,male,True,3561,3565,False,False,inspiration,inspiration
33,151.0,25,F,up,0.4340052000479773,1.0730123218929286,,psi_staircase_training,emotion,,167.66950696470056,167.66950696470056,37.013640599549205,358.0524497999577,132,22,male,True,3579,3583,False,False,expiration,expiration
34,147.0,25,F,up,0.4909680000273511,1.2938772949000388,,psi_staircase_training,emotion,,160.03472693925536,160.03472693925536,39.77725350899309,360.15240279992577,132,22,male,True,3601,3606,False,False,expiration,expiration
35,145.0,25,M,up,0.42836000001989305,1.3809197978946928,,psi_staircase_training,emotion,,153.4044585701879,153.4044585701879,40.686020050558525,362.3689930998953,132,22,male,True,3623,3627,False,False,inspiration,expiration
36,141.0,25,M,up,0.4960978000890464,0.9298161283542671,,psi_staircase_training,emotion,,147.80330213433803,147.80330213433803,41.05939018248879,364.1022733999416,132,22,male,True,3640,3645,False,False,trough,inspiration
37,134.0,25,F,up,0.4936533999862149,0.5250675696046856,,psi_staircase_training,emotion,,142.82056094678762,142.82056094678762,41.335606796581274,365.46879089996213,132,22,male,True,3654,3659,False,False,peak,expiration
38,127.0,25,F,up,0.3835076000541449,0.8071611383848807,,psi_staircase_training,emotion,,138.0551676572169,138.0551676572169,41.69007089734203,367.13549439993216,132,22,male,True,3670,3674,False,False,inspiration,inspiration
39,121.0,25,M,up,0.3334693999495357,0.6236249351130387,,psi_staircase_training,emotion,,133.4191376402462,133.4191376402462,42.12294517740309,368.53541059989954,132,22,male,True,3684,3687,False,False,expiration,expiration
40,116.0,25,M,up,0.3334741999860853,1.933829861531116,,psi_staircase_training,emotion,,128.91787864195086,128.91787864195086,42.59124987818772,371.2186561999843,132,22,male,True,3711,3714,False,False,expiration,expiration
41,112.0,25,M,up,0.4471345000201836,0.4519219698481644,,psi_staircase_training,emotion,,124.56692330840342,124.56692330840342,43.05607649500741,372.4352959999815,132,22,male,True,3723,3727,False,False,expiration,inspiration
42,108.0,25,M,up,0.4522016999544576,1.1384999678899308,,psi_staircase_training,emotion,,120.38920452574574,120.38920452574574,43.488158902991884,374.3851988000097,132,22,male,True,3743,3748,False,False,expiration,expiration
43,104.0,25,F,down,1.34188850002829,1.5354450312686985,,psi_staircase_training,emotion,,116.34372626924177,116.34372626924177,43.891044124664056,376.71844259998767,132,22,male,True,3766,3779,False,False,inspiration,expiration
44,107.0,25,F,down,0.463788100052625,1.9998693673904504,,psi_staircase_training,emotion,,118.89756431252943,118.89756431252943,43.64823318348214,380.4016541999299,132,22,male,True,3803,3808,False,False,expiration,expiration
45,109.0,25,F,up,0.459468699991703,1.0610089897723949,,psi_staircase_training,emotion,,121.27379455498756,121.27379455498756,43.42068380328311,382.28492629993707,132,22,male,True,3822,3827,False,False,inspiration,inspiration
46,106.0,25,M,up,0.4168120000977069,1.2644748638100949,,psi_staircase_training,emotion,,117.86878514116172,117.86878514116172,43.75348892550706,384.3681571999332,132,22,male,True,3843,3847,False,False,expiration,expiration
47,103.0,25,M,down,0.3168362999567762,1.273554667203614,,psi_staircase_training,emotion,,114.57560595407482,114.57560595407482,44.06997466953507,386.40142199990805,132,22,male,True,3863,3866,False,False,expiration,expiration
48,105.0,25,F,down,0.426087100058794,1.531172916219819,,psi_staircase_training,emotion,,116.70561131734472,116.70561131734472,43.86990902483081,388.70133319997694,132,22,male,True,3886,3890,False,False,inspiration,expiration
49,107.0,25,F,up,0.6004402999533339,1.4524387836103134,,psi_staircase_training,emotion,,118.6996918399778,118.6996918399778,43.680827701353884,390.91792769997846,132,22,male,True,3908,3914,False,False,inspiration,inspiration
50,104.0,25,M,up,0.2835014999145642,1.220461050764294,,psi_staircase_training,emotion,,115.84646671795284,115.84646671795284,43.9481518285812,393.1011695999186,132,22,male,True,3930,3933,False,False,inspiration,inspiration
51,100.0,25,M,down,0.25018019997514784,1.2423855862301532,,psi_staircase_training,emotion,,113.05519574990595,113.05519574990595,44.21778800716515,395.1177584999241,132,22,male,True,3950,3953,False,False,expiration,inspiration
52,0.29,25,up,up,0.4992680000141263,1.6395748501087464,,psi_staircase_training,cRDM,,0.25,0.25693124029946324,0.10500000000000002,403.184142199927,132,22,male,True,4031,4036,False,False,expiration,expiration
53,0.25,25,up,down,0.5879765000427142,1.1046023182518434,,psi_staircase_training,cRDM,,0.21910266653183127,0.2260132002683493,0.10468632033873933,405.0674282999244,132,22,male,True,4050,4056,False,False,inspiration,expiration
54,0.36,25,down,down,0.6300999999511987,1.8746461497140048,,psi_staircase_training,cRDM,,0.3202997408361979,0.3276103223604739,0.1107465658214764,407.8172866000096,132,22,male,True,4077,4083,False,False,inspiration,inspiration
55,0.33,25,down,down,0.3671198999509216,1.4646215852552762,,psi_staircase_training,cRDM,,0.2990372097977385,0.30641398280716875,0.1117492876491608,410.1838940999005,132,22,male,True,4101,4105,False,False,expiration,expiration
56,0.31,25,up,up,0.5079852000344545,1.4677683230183265,,psi_staircase_training,cRDM,,0.2780189805609542,0.28539811096413914,0.1117849993448388,412.35045449994493,132,22,male,True,4122,4127,False,False,expiration,expiration
57,0.31,25,down,up,0.4640028999419883,1.0812691128656584,,psi_staircase_training,cRDM,,0.2582073586141265,0.2655339603556145,0.11098925295027023,414.2003875999944,132,22,male,True,4141,4146,False,False,inspiration,peak
58,0.37,25,up,up,0.3838563000317663,1.4437372941513067,,psi_staircase_training,cRDM,,0.330892122409387,0.3389100246100726,0.12146162803462165,416.36701389995875,132,22,male,True,4163,4167,False,False,inspiration,inspiration
59,0.36,25,down,down,0.3338656999403611,1.6039403000302606,,psi_staircase_training,cRDM,,0.315264621841405,0.32327452165711906,0.12134040147404812,418.6502275000094,132,22,male,True,4185,4188,False,False,expiration,expiration
60,0.35000000000000003,25,down,up,0.4002515999600291,1.6901572115778911,,psi_staircase_training,cRDM,,0.30097670034423185,0.3088912535790747,0.11989601481900028,421.03347069991287,132,22,male,True,4209,4213,False,False,expiration,expiration
61,0.4,25,up,down,0.4852665000362322,0.8805395279924189,,psi_staircase_training,cRDM,,0.3557209941709503,0.3642219806111849,0.12877977644113056,422.6000860999338,132,22,male,True,4225,4230,False,False,inspiration,inspiration
62,0.45,25,down,down,0.4897015000460669,1.4357250805478732,,psi_staircase_training,cRDM,,0.4001205330987175,0.40863367161469466,0.12896386585339206,424.8166634999217,132,22,male,True,4247,4252,False,False,expiration,inspiration
63,0.44,25,down,up,0.621502099907957,0.3674202835329629,,psi_staircase_training,cRDM,,0.3915577411689954,0.4001602704308262,0.13031802873176698,425.9499332999112,132,22,male,True,4258,4264,False,False,inspiration,peak
64,0.47,25,down,down,0.5274984000716358,1.3464700836054306,,psi_staircase_training,cRDM,,0.42399242609108295,0.4323911271080128,0.12723027462284428,428.1998889999231,132,22,male,True,4281,4286,False,False,inspiration,inspiration
65,0.47,25,up,up,0.4759322000900284,0.8586943683394919,,psi_staircase_training,cRDM,,0.4181306067798191,0.4265765908125858,0.12794655575700842,429.86650659993757,132,22,male,True,4298,4303,False,False,expiration,expiration
66,0.43,25,up,up,0.5576132000423968,1.3978322299668162,,psi_staircase_training,cRDM,,0.4128438111947475,0.4212434118321315,0.12724390279667885,431.9997307999293,132,22,male,True,4319,4325,False,False,inspiration,expiration
67,0.42,25,down,down,0.5410125999478623,1.4267619957286504,,psi_staircase_training,cRDM,,0.40410412421779374,0.4129579333667527,0.13412461846297286,434.2663416999858,132,22,male,True,4342,4347,False,False,inspiration,inspiration
68,0.42,25,down,down,0.4201558999484405,1.5813959419347283,,psi_staircase_training,cRDM,,0.3950733578485832,0.4043215754582151,0.1400994348856359,436.666236699908,132,22,male,True,4366,4370,False,False,inspiration,inspiration
69,0.42,25,up,up,0.5305364000378177,0.5137647332551734,,psi_staircase_training,cRDM,,0.3862424976451378,0.3957673586518303,0.1442902514547308,437.88284909992944,132,22,male,True,4378,4383,False,False,expiration,expiration
70,0.42,25,up,up,0.5726153999567032,0.5422837842566147,,psi_staircase_training,cRDM,,0.3777329066981543,0.3874356386851708,0.14698478405309742,439.2327857000055,132,22,male,True,4391,4397,False,False,inspiration,inspiration
71,0.43,25,up,up,0.4611591999419034,1.4834888349528397,,psi_staircase_training,cRDM,,0.3696129118673546,0.3794147847708839,0.14848665035466638,441.54924379999284,132,22,male,True,4415,4420,False,False,expiration,inspiration
72,0.39,25,up,down,0.7967056999914348,1.505740190482035,,psi_staircase_training,cRDM,,0.3624072209407007,0.3722109177158071,0.14851427982750565,443.78263609996077,132,22,male,True,4437,4445,False,False,expiration,expiration
73,0.44,25,down,down,0.4864690999966115,1.9041558584541167,,psi_staircase_training,cRDM,,0.3898563845873221,0.39923773992320666,0.14211631219078524,446.7659242999507,132,22,male,True,4467,4472,False,False,expiration,expiration
74,0.44,25,down,down,0.7653301999671385,1.4151811565474846,,psi_staircase_training,cRDM,,0.3841851221368915,0.3935065073248456,0.14120783618062804,448.9490247999784,132,22,male,True,4489,4497,False,False,inspiration,expiration
75,0.44,25,down,up,0.8416143000358716,0.32167091604272585,,psi_staircase_training,cRDM,,0.37892580830716216,0.38814286739877024,0.13962742060663966,450.31572710000916,132,22,male,True,4502,4510,False,False,expiration,inspiration
76,0.43,25,up,up,0.8693697999697179,0.8138796116514866,,psi_staircase_training,cRDM,,0.4011602970958678,0.4110196267857387,0.14935705194301369,452.2490254999138,132,22,male,True,4522,4531,False,False,expiration,expiration
77,0.43,25,up,down,0.6205645999871194,1.5498014118722203,,psi_staircase_training,cRDM,,0.395244640343507,0.4051984371618014,0.1507881159454026,454.94882900000084,132,22,male,True,4549,4555,False,False,peak,expiration
78,0.47,25,down,down,0.6745998999103904,1.905231972533228,,psi_staircase_training,cRDM,,0.4148987729384487,0.4246859384643959,0.1482638511759627,457.74879669991793,132,22,male,True,4577,4584,False,False,peak,expiration
79,0.42,25,down,up,0.6463615000247955,1.976824037143981,,psi_staircase_training,cRDM,,0.4111420332199881,0.4208380370224153,0.14688286010422885,460.68203559995163,132,22,male,True,4606,4612,False,False,expiration,expiration
80,0.48,25,up,down,0.7817758000455797,1.8419026538421903,,psi_staircase_training,cRDM,,0.4266981874016868,0.4357867474436405,0.1376808137035791,463.44856399996206,132,22,male,True,4633,4641,False,False,peak,expiration
81,0.47,25,up,up,0.7609172000084072,1.9925116198923905,,psi_staircase_training,cRDM,,0.4388040524965433,0.4488407692987604,0.15204425452027653,466.4984511999646,132,22,male,True,4664,4672,False,False,expiration,expiration
82,100.0,25,M,up,0.6490938999922946,1.6449790759053178,,psi_staircase,emotion,,100.0,100.0,25.00050000000001,480.73126859997865,132,22,male,True,4806,4812,False,False,trough,inspiration
83,55.0,25,M,down,0.5799179000314325,1.8843870894561887,,psi_staircase,emotion,,54.742809467541896,54.742809467541896,25.00050000000011,483.61449049995286,132,22,male,True,4835,4841,False,False,inspiration,inspiration
84,79.0,25,F,down,0.4400110999122262,0.9057951700133221,,psi_staircase,emotion,,79.636070985635,79.636070985635,25.71326925488641,485.4643337999005,132,22,male,True,4854,4858,False,False,expiration,expiration
85,103.0,25,F,down,0.5503710000775754,1.470785455899449,,psi_staircase,emotion,,97.61123893914808,97.61123893914808,26.1463337262867,487.7310190999415,132,22,male,True,4876,4882,False,False,inspiration,expiration
86,127.0,25,M,up,0.6816255999729037,0.8701084384528309,,psi_staircase,emotion,,117.15641007867752,117.15641007867752,31.432291447829705,489.49772579991264,132,22,male,True,4894,4901,False,False,inspiration,inspiration
87,116.0,25,F,up,0.8477452000370249,0.5837505818269849,,psi_staircase,emotion,,105.03864224082596,105.03864224082596,29.69406400548579,491.09759849996766,132,22,male,True,4910,4918,False,False,expiration,expiration
88,88.0,25,M,down,0.6468895999714732,0.7427516657829265,,psi_staircase,emotion,,98.16151255584974,98.16151255584974,27.87588470540113,493.0474713000003,132,22,male,True,4929,4935,False,False,inspiration,inspiration
89,116.0,25,F,down,0.7169051000382751,0.6226280012377827,,psi_staircase,emotion,,103.47850698803556,103.47850698803556,26.167505567848767,494.6474074999569,132,22,male,True,4945,4952,False,False,expiration,expiration
90,130.0,25,F,down,0.7356878999853507,1.5173400150945031,,psi_staircase,emotion,,112.6895003383148,112.6895003383148,31.1190918538188,497.2306875999784,132,22,male,True,4971,4978,False,False,expiration,expiration
91,141.0,25,M,up,0.6694723999826238,1.4866565698100571,,psi_staircase,emotion,,122.50914082163187,122.50914082163187,35.450157423660514,499.81390939990524,132,22,male,True,4997,5004,False,False,inspiration,expiration
92,139.0,25,F,up,0.5705373999662697,1.3988606613685115,,psi_staircase,emotion,,118.30490814447235,118.30490814447235,34.171392443779304,502.2638228998985,132,22,male,True,5022,5028,False,False,inspiration,inspiration
93,137.0,25,F,up,0.6540002000983804,1.049820304849371,,psi_staircase,emotion,,115.12258572841243,115.12258572841243,33.00450260071313,504.2303902999265,132,22,male,True,5041,5048,False,False,expiration,inspiration
94,92.0,25,F,down,0.7796202999306843,0.6678237947288536,,psi_staircase,emotion,,112.591161946921,112.591161946921,31.937784209656233,505.9136863999302,132,22,male,True,5058,5066,False,False,peak,expiration
95,138.0,25,M,up,0.8771134000271559,1.93059026420966,,psi_staircase,emotion,,114.95817636560943,114.95817636560943,30.788880445053806,508.98027309996536,132,22,male,True,5089,5098,False,False,expiration,expiration
96,92.0,25,M,down,0.6532887999201193,1.4317673417452057,,psi_staircase,emotion,,113.07940107758795,113.07940107758795,29.64392150366457,511.63012290000916,132,22,male,True,5115,5122,False,False,inspiration,peak
97,138.0,25,F,up,0.8429713998921216,1.4402214591599043,,psi_staircase,emotion,,114.91198990448231,114.91198990448231,28.427665992558712,514.0633768999252,132,22,male,True,5140,5148,False,False,expiration,inspiration
98,92.0,25,F,up,0.6381006999872625,0.8388214026986921,,psi_staircase,emotion,,113.46241790018084,113.46241790018084,27.25583054048183,516.0633119998964,132,22,male,True,5160,5166,False,False,expiration,expiration
99,83.0,25,M,down,0.8814578000456095,1.2705191428764189,,psi_staircase,emotion,,108.25205045374823,108.25205045374823,31.710691590497913,518.3298918999499,132,22,male,True,5182,5191,False,False,inspiration,expiration
100,84.0,25,M,down,0.8282233000500128,1.7924465152735527,,psi_staircase,emotion,,109.72004941097563,109.72004941097563,30.69596013794016,521.3631189999869,132,22,male,True,5213,5221,False,False,inspiration,expiration
101,136.0,25,M,up,0.748291700030677,0.3707069252302704,,psi_staircase,emotion,,110.9606081528587,110.9606081528587,29.740213224485014,522.9130525999935,132,22,male,True,5228,5235,False,False,expiration,inspiration
102,85.0,25,M,up,0.8212290999945253,1.4374157541761283,,psi_staircase,emotion,,109.76805170759215,109.76805170759215,28.74350035384167,525.4461826999905,132,22,male,True,5254,5262,False,False,expiration,inspiration
103,77.0,25,F,down,0.7187865000450984,1.6786835919439798,,psi_staircase,emotion,,105.47849161283727,105.47849161283727,32.643877937616054,528.2795593999326,132,22,male,True,5282,5289,False,False,expiration,expiration
104,134.0,25,F,up,0.6669250000268221,1.325788229568165,,psi_staircase,emotion,,106.56970613959244,106.56970613959244,31.81296207027565,530.6794589000057,132,22,male,True,5306,5313,False,False,expiration,expiration
105,78.0,25,F,down,0.846023999969475,0.7458026532175447,,psi_staircase,emotion,,105.5431384196897,105.5431384196897,30.991922309935283,532.4293560999214,132,22,male,True,5323,5331,False,False,inspiration,peak
106,133.0,25,M,up,0.6464439999544993,0.5212774785458468,,psi_staircase,emotion,,106.4990828184598,106.4990828184598,30.148172810305446,534.1459339999128,132,22,male,True,5341,5347,False,False,expiration,inspiration
107,78.0,25,M,down,0.6117836999474093,0.3266983358231375,,psi_staircase,emotion,,105.59240353662729,105.59240353662729,29.3196402575654,535.4626261999365,132,22,male,True,5354,5360,False,False,inspiration,peak
108,133.0,25,F,up,0.6341598000144586,0.8655152231484429,,psi_staircase,emotion,,106.40095477116121,106.40095477116121,28.49298269190561,537.2791834999807,132,22,male,True,5372,5378,False,False,expiration,inspiration
109,79.0,25,F,down,0.7605819000164047,1.8865243627051769,,psi_staircase,emotion,,105.62741109173328,105.62741109173328,27.68687683557331,540.145778200007,132,22,male,True,5401,5409,False,False,expiration,inspiration
110,131.0,25,M,up,0.6420219000428915,0.945269413793544,,psi_staircase,emotion,,106.3400068829946,106.3400068829946,26.890971805694946,542.2123413999798,132,22,male,True,5421,5427,False,False,expiration,expiration
111,80.0,25,M,up,0.6044385000132024,1.3676893658008262,,psi_staircase,emotion,,105.61849598307758,105.61849598307758,26.110760023082328,544.5789112999337,132,22,male,True,5445,5451,False,False,inspiration,expiration
112,73.0,25,F,up,0.8878041999414563,1.2104216703996735,,psi_staircase,emotion,,102.48597241293112,102.48597241293112,29.82780098458539,546.7455362000037,132,22,male,True,5467,5476,False,False,inspiration,expiration
113,68.0,25,M,down,0.7706127999117598,0.4535948024577876,,psi_staircase,emotion,,99.21607994410648,99.21607994410648,33.47610604625272,548.4287565998966,132,22,male,True,5483,5491,False,False,expiration,inspiration
114,68.0,25,F,up,0.9220417999895291,1.543676861271843,,psi_staircase,emotion,,99.95689544254829,99.95689544254829,32.80249855043654,551.0953483999474,132,22,male,True,5510,5519,False,False,expiration,expiration
115,64.0,25,M,down,0.6651515000266954,0.8159650580335329,,psi_staircase,emotion,,96.79806626070187,96.79806626070187,35.91669199448607,553.1952602999518,132,22,male,True,5531,5538,False,False,inspiration,expiration
116,64.0,25,F,down,0.6534572000382468,0.5243820780790683,,psi_staircase,emotion,,97.53173287194605,97.53173287194605,35.34932197680996,554.7118838999886,132,22,male,True,5546,5553,False,False,expiration,inspiration
117,130.0,25,M,up,0.5618977999547496,1.2564665791030254,,psi_staircase,emotion,,98.19185579440462,98.19185579440462,34.79738305047143,556.9784714999842,132,22,male,True,5569,5575,False,False,expiration,expiration
118,64.0,25,F,down,0.6449789000907913,1.0478027216280783,,psi_staircase,emotion,,97.52394761785305,97.52394761785305,34.233743688275226,558.9283953999402,132,22,male,True,5588,5594,False,False,inspiration,expiration
119,130.0,25,M,up,0.7244290000526235,0.3591277367870338,,psi_staircase,emotion,,98.11737563663395,98.11737563663395,33.67406464926487,560.2619356999639,132,22,male,True,5602,5609,False,False,expiration,inspiration
120,64.0,25,M,up,0.7320481999777257,0.8048698220013917,,psi_staircase,emotion,,97.51294406587421,97.51294406587421,33.10349325599535,562.1283331000013,132,22,male,True,5620,5627,False,False,inspiration,expiration
121,60.0,25,F,down,0.6396222999319434,1.7675544918153292,,psi_staircase,emotion,,94.77220835068748,94.77220835068748,35.97505706325014,564.9948063999182,132,22,male,True,5649,5655,False,False,inspiration,expiration
122,129.0,25,F,up,0.6162774999393149,0.7407971188526621,,psi_staircase,emotion,,95.35862352537643,95.35862352537643,35.47421707124153,566.7280923000071,132,22,male,True,5666,5672,False,False,expiration,inspiration
123,60.0,25,F,down,0.695946800056845,0.8600925279523577,,psi_staircase,emotion,,94.79109352118164,94.79109352118164,34.98136853448722,568.5613951999694,132,22,male,True,5685,5692,False,False,expiration,expiration
124,129.0,25,M,up,0.5990440000314265,0.4115181713677387,,psi_staircase,emotion,,95.32511282285476,95.32511282285476,34.474407852570444,570.0113212999422,132,22,male,True,5699,5705,False,False,trough,inspiration
125,61.0,25,M,down,0.6208420000039041,1.98797304041166,,psi_staircase,emotion,,94.80521932314873,94.80521932314873,33.974955579184574,572.9445247999392,132,22,male,True,5729,5735,False,False,trough,inspiration
126,128.0,25,F,up,0.6205551000311971,1.018812267818794,,psi_staircase,emotion,,95.30809396939951,95.30809396939951,33.462907626014136,574.9778077999363,132,22,male,True,5749,5755,False,False,expiration,expiration
127,61.0,25,F,down,0.5993046999210492,1.0893982968482745,,psi_staircase,emotion,,94.8140819709799,94.8140819709799,32.957930331196025,577.0110729999143,132,22,male,True,5769,5775,False,False,inspiration,expiration
128,128.0,25,F,up,0.5390331000089645,0.5986338629657951,,psi_staircase,emotion,,95.27103045635445,95.27103045635445,32.45286891530339,578.5443189999787,132,22,male,True,5784,5789,False,False,expiration,expiration
129,61.0,25,M,down,0.6265077000716701,1.0437278795004359,,psi_staircase,emotion,,94.81795101437555,94.81795101437555,31.954232368190542,580.4608850999502,132,22,male,True,5804,5810,False,False,expiration,expiration
130,127.0,25,M,up,0.8138768000062555,0.6427917514004219,,psi_staircase,emotion,,95.23297028759045,95.23297028759045,31.462805205066072,582.077530499897,132,22,male,True,5820,5828,False,False,expiration,inspiration
131,62.0,25,M,down,0.6282698999857529,0.6989253565314774,,psi_staircase,emotion,,94.80044891326936,94.80044891326936,30.970892961101637,583.9441255999262,132,22,male,True,5838,5844,False,False,expiration,expiration
132,0.29,25,up,up,0.6127657999750227,0.3896714868779045,,psi_staircase,cRDM,,0.25,0.25693124029946324,0.10500000000000002,588.4605992999859,132,22,male,True,5884,5890,False,False,inspiration,inspiration
133,0.25,25,up,up,0.5775136000011116,0.9923660726584024,,psi_staircase,cRDM,,0.21910266653183127,0.2260132002683493,0.10468632033873933,590.3438867999939,132,22,male,True,5902,5908,False,False,expiration,expiration
134,0.21,25,down,down,0.5252402999904007,1.98321905675718,,psi_staircase,cRDM,,0.1900540959403307,0.19684979615540016,0.10294672984249993,593.1771737999517,132,22,male,True,5931,5936,False,False,expiration,expiration
135,0.18,25,down,up,0.910671600024216,1.9342726718383831,,psi_staircase,cRDM,,0.1635257589279754,0.1701521334256793,0.100381647756865,595.893699200009,132,22,male,True,5958,5967,False,False,expiration,expiration
136,0.28,25,up,up,0.6120848000282422,0.9420171420959824,,psi_staircase,cRDM,,0.2462894156509761,0.25367687443104303,0.11191116429293203,598.010269899969,132,22,male,True,5979,5985,False,False,inspiration,inspiration
137,0.26,25,down,down,0.5064683000091463,1.4828478868236306,,psi_staircase,cRDM,,0.2240209245171441,0.23127202108978026,0.10984543995477343,600.3768987999065,132,22,male,True,6003,6008,False,False,inspiration,inspiration
138,0.23,25,up,up,0.384125699987635,1.8392071945306951,,psi_staircase,cRDM,,0.2047781477371872,0.21182460465655809,0.10674539397966608,602.9767872999655,132,22,male,True,6029,6033,False,False,expiration,inspiration
139,0.23,25,down,down,0.2835272999946028,1.6025479109101552,,psi_staircase,cRDM,,0.1874201716315257,0.19431844658589745,0.10450061445209473,605.2602769999066,132,22,male,True,6052,6055,False,False,expiration,expiration
140,0.21,25,down,up,0.2504918999038637,1.2108726513855466,,psi_staircase,cRDM,,0.17345971586379055,0.18012712878884973,0.10100333084475896,607.1432731999083,132,22,male,True,6070,6073,False,False,inspiration,expiration
141,0.26,25,up,up,0.4468219999689609,1.4964911933749467,,psi_staircase,cRDM,,0.2258097884912943,0.2328763215733389,0.1070495238308419,609.3265400999227,132,22,male,True,6092,6096,False,False,inspiration,inspiration
142,0.25,25,down,down,0.5419458999531344,1.6390944124561588,,psi_staircase,cRDM,,0.21245083561372907,0.21918585513658664,0.10202748993636902,611.676450299914,132,22,male,True,6116,6121,False,False,inspiration,inspiration
143,0.25,25,down,up,0.7140075999777764,1.1951939090939478,,psi_staircase,cRDM,,0.20179399377515586,0.2081851447054985,0.09681829206497787,613.6763889999129,132,22,male,True,6136,6143,False,False,expiration,expiration
144,0.29,25,down,up,0.6547636999748647,1.9492595417751504,,psi_staircase,cRDM,,0.24853753813378254,0.25708466885984305,0.1294788071776774,616.6095515999477,132,22,male,True,6165,6172,False,False,expiration,inspiration
145,0.37,25,up,up,0.5338162999833003,0.7299400059895678,,psi_staircase,cRDM,,0.30627336141916284,0.315553272460055,0.14057955246034806,618.2595362999708,132,22,male,True,6182,6187,False,False,expiration,expiration
146,0.35000000000000003,25,up,up,0.4952768000075594,1.0717714671275878,,psi_staircase,cRDM,,0.2915215236860453,0.3008648311383731,0.1415399322644156,620.1261118999682,132,22,male,True,6200,6205,False,False,inspiration,inspiration
147,0.33,25,down,down,0.6172203000169247,0.3277291718822149,,psi_staircase,cRDM,,0.27769138222880824,0.2870466775160697,0.14172153362487178,621.2260730999988,132,22,male,True,6211,6217,False,False,expiration,expiration
148,0.32,25,down,down,0.5153246000409126,0.6592777700901918,,psi_staircase,cRDM,,0.264665796958614,0.2740128755268929,0.1415970601603999,622.7760321999667,132,22,male,True,6227,6232,False,False,inspiration,inspiration
149,0.28,25,up,up,0.6007936000823975,1.6250966122888109,,psi_staircase,cRDM,,0.2528337060246097,0.2621399826886683,0.1409789601150922,625.1925663999283,132,22,male,True,6251,6257,False,False,expiration,expiration
150,0.28,25,up,up,0.5515385000035167,1.2770222448214517,,psi_staircase,cRDM,,0.24048488064129386,0.24986856442834576,0.14215158544088388,627.3427906999133,132,22,male,True,6273,6279,False,False,expiration,expiration
151,0.28,25,up,down,0.3005622999044135,1.1666240566433297,,psi_staircase,cRDM,,0.2294397132937327,0.2388253755574407,0.14218155699574495,629.3257888999068,132,22,male,True,6292,6295,False,False,inspiration,inspiration
152,0.34,25,up,up,0.3171982000349089,1.7310129030405186,,psi_staircase,cRDM,,0.26833118870442985,0.2779442567599273,0.14562648273865228,631.742366499966,132,22,male,True,6317,6320,False,False,inspiration,inspiration
153,0.33,25,down,up,0.5151635999791324,1.972135385475679,,psi_staircase,cRDM,,0.2594059269628735,0.2689078236327481,0.14394236921984746,634.3922635999043,132,22,male,True,6343,6348,False,False,trough,inspiration
154,0.38,25,down,up,0.4002623000415042,1.6198963767363654,,psi_staircase,cRDM,,0.29784915517997845,0.3079164874679769,0.15250804251032707,636.7755123999667,132,22,male,True,6367,6371,False,False,expiration,expiration
155,0.41,25,down,down,0.5925759000238031,1.3688464091200725,,psi_staircase,cRDM,,0.3401075998493833,0.35055456321557105,0.15825899926376175,638.8087768999394,132,22,male,True,6387,6393,False,False,peak,expiration
156,0.4,25,up,up,0.6379565000534058,1.5155673025801026,,psi_staircase,cRDM,,0.3304452756827192,0.3409443101844938,0.15904781468501394,641.1753511999268,132,22,male,True,6411,6417,False,False,inspiration,inspiration
157,0.37,25,up,up,0.4600908000720665,0.5357584631963972,,psi_staircase,cRDM,,0.32126643226345425,0.3317822895921893,0.15930266039148638,642.625295399921,132,22,male,True,6425,6430,False,False,expiration,expiration
158,0.37,25,down,down,0.5687196999788284,0.8092827225881725,,psi_staircase,cRDM,,0.31174106707707694,0.3222998773422267,0.15995334600166294,644.1585980999516,132,22,male,True,6441,6447,False,False,inspiration,expiration
159,0.37,25,down,down,0.6444814000278711,1.3050977126313899,,psi_staircase,cRDM,,0.3030094138532893,0.3135658054261181,0.15991670570602692,646.291842799983,132,22,male,True,6462,6468,False,False,inspiration,inspiration
160,0.37,25,up,down,0.6719286000588909,1.4779006761315794,,psi_staircase,cRDM,,0.29504029375600865,0.3055617123662828,0.15938690715489098,648.6584309999597,132,22,male,True,6486,6493,False,False,expiration,inspiration
161,0.42,25,up,up,0.3338944000424817,1.4481229936624094,,psi_staircase,cRDM,,0.3279788872791946,0.3387631717552845,0.16336901060508965,651.0249755999538,132,22,male,True,6509,6512,False,False,expiration,expiration
162,0.37,25,down,down,0.583498900057748,1.6358875057732245,,psi_staircase,cRDM,,0.3212940190764512,0.3320156621829477,0.16242006878181772,653.3418338999618,132,22,male,True,6533,6539,False,False,expiration,expiration
163,0.37,25,up,up,0.5229243999347091,0.6573478178081644,,psi_staircase,cRDM,,0.3133853782922572,0.3241311356608912,0.16278537100985266,654.8414274000098,132,22,male,True,6548,6553,False,False,trough,inspiration
164,0.37,25,down,down,0.5069441000232473,1.2645759630902746,,psi_staircase,cRDM,,0.30602825145784524,0.316769135368865,0.162711543956196,656.8914460999657,132,22,male,True,6568,6573,False,False,expiration,expiration
165,0.36,25,up,up,0.6603458999888971,1.8142885592783091,,psi_staircase,cRDM,,0.2991981383866845,0.3099134385810658,0.16232398125010272,659.4580177000025,132,22,male,True,6594,6601,False,False,expiration,expiration
166,0.36,25,down,up,0.6530982999829575,1.4994320581417149,,psi_staircase,cRDM,,0.29257220237151965,0.303264031492931,0.16196842256863184,661.8912689998979,132,22,male,True,6618,6625,False,False,inspiration,inspiration
167,0.41,25,up,up,0.4728203999111429,1.573668607881856,,psi_staircase,cRDM,,0.3189927172717565,0.3298400181770485,0.1643236341328196,664.3744975998998,132,22,male,True,6643,6648,False,False,inspiration,inspiration
168,0.41,25,down,down,0.4168117999797687,0.7394724441662857,,psi_staircase,cRDM,,0.3135772267513908,0.3243461053738277,0.16313563034936618,665.8577545000007,132,22,male,True,6658,6662,False,False,expiration,expiration
169,0.35000000000000003,25,up,up,0.4003737000748515,1.5274479501042344,,psi_staircase,cRDM,,0.3085699341272704,0.3192532185199234,0.161838980148391,668.0743557999376,132,22,male,True,6680,6684,False,False,expiration,expiration
170,0.36,25,up,up,0.31715489993803203,1.7443085744677842,,psi_staircase,cRDM,,0.30212775034110995,0.312841688410349,0.16230334668345134,670.4909369999077,132,22,male,True,6704,6707,False,False,peak,expiration
171,0.35000000000000003,25,down,down,0.35051449993625283,1.1360582341958787,,psi_staircase,cRDM,,0.2963162300917711,0.3070224486149091,0.16218640479346014,672.2908696999075,132,22,male,True,6722,6726,False,False,expiration,expiration
172,0.36,25,down,down,0.464341500075534,1.080375816421803,,psi_staircase,cRDM,,0.2906137907373997,0.30131737986551993,0.16214657260399068,674.0410612999694,132,22,male,True,6740,6745,False,False,expiration,expiration
173,0.35000000000000003,25,down,down,0.33388330007437617,0.5807116400328334,,psi_staircase,cRDM,,0.2854961312079614,0.2961708451938679,0.16170914873734427,675.3407157999462,132,22,male,True,6753,6756,False,False,trough,inspiration
174,0.36,25,up,up,0.3671634999336675,0.4262359224956042,,psi_staircase,cRDM,,0.2804354141404569,0.2910904123581297,0.16141047843086295,676.4406816998962,132,22,male,True,6764,6768,False,False,inspiration,expiration
175,0.35000000000000003,25,up,up,0.3174330999609083,0.4148089907012892,,psi_staircase,cRDM,,0.27591286819794325,0.2865285413869998,0.16081475128444928,677.5240021999925,132,22,male,True,6774,6777,False,False,expiration,expiration
176,0.31,25,down,down,0.4470157000469044,0.5549395965129928,,psi_staircase,cRDM,,0.27140188789069924,0.2819889442422374,0.16038124042497706,678.757316299947,132,22,male,True,6787,6791,False,False,inspiration,inspiration
177,0.31,25,down,down,0.4364920000080019,1.5713914685727242,,psi_staircase,cRDM,,0.26615815520612424,0.27677865261207146,0.16088783240004118,681.0408056000015,132,22,male,True,6810,6814,False,False,expiration,expiration
178,0.27,25,down,down,0.4354757000692189,0.8217416509518629,,psi_staircase,cRDM,,0.2611134846614261,0.2717605743235288,0.16129067327349034,682.5738226999529,132,22,male,True,6825,6829,False,False,inspiration,inspiration
179,0.26,25,up,up,0.36728030000813305,0.8997104989247651,,psi_staircase,cRDM,,0.2554139446814262,0.26615149432556345,0.16266103380108113,684.1904326999793,132,22,male,True,6841,6845,False,False,expiration,expiration
180,0.24,25,up,up,0.4002439000178129,0.9051595039270324,,psi_staircase,cRDM,,0.2496360682373403,0.2604744886024898,0.16418910457177835,685.7737065999536,132,22,male,True,6857,6861,False,False,inspiration,inspiration
181,0.23,25,up,up,0.3004653999814764,1.1458292601877926,,psi_staircase,cRDM,,0.2436067415126776,0.25457311203713195,0.16612739644257835,687.6069918998983,132,22,male,True,6875,6878,False,False,expiration,expiration
182,107.0,25,F,down,0.5263358000665903,1.0793824144777535,,experiment,emotion,0.0,,,,696.789993399987,132,22,male,True,6967,6972,False,False,inspiration,inspiration
183,83.0,25,M,down,0.6271400999976322,1.3210379886155643,,experiment,emotion,0.0,,,,698.9232088999124,132,22,male,True,6988,6994,False,False,expiration,trough
184,99.0,25,F,down,0.4875069999834522,0.758719240065032,,experiment,emotion,0.0,,,,700.5898453999544,132,22,male,True,7005,7010,False,False,inspiration,expiration
185,107.0,25,M,down,0.4292587999952957,0.7616048991004549,,experiment,emotion,0.0,,,,702.1230905998964,132,22,male,True,7020,7024,False,False,expiration,expiration
186,99.0,25,F,up,0.6200050000334159,1.7294236590517496,,experiment,emotion,0.0,,,,704.5563439999241,132,22,male,True,7045,7051,False,False,expiration,expiration
187,91.0,25,F,down,0.6453757000854239,1.265164494434594,,experiment,emotion,0.0,,,,706.7229462999385,132,22,male,True,7066,7072,False,False,inspiration,inspiration
188,83.0,25,M,up,0.4001836000243202,0.33522562518664245,,experiment,emotion,0.0,,,,707.9562241999664,132,22,male,True,7079,7083,False,False,expiration,expiration
189,91.0,25,F,down,0.4525288000004366,1.0345796503255391,,experiment,emotion,0.0,,,,709.6728267999132,132,22,male,True,7096,7101,False,False,inspiration,peak
190,107.0,25,M,down,0.35018660000059754,0.3540243503657791,,experiment,emotion,0.0,,,,710.7394245999167,132,22,male,True,7107,7111,False,False,expiration,expiration
191,91.0,25,M,down,0.590599299990572,0.6388952253144526,,experiment,emotion,0.0,,,,712.0727443000069,132,22,male,True,7120,7126,False,False,inspiration,inspiration
192,99.0,25,F,down,0.5275137999560684,1.3260732486830755,,experiment,emotion,0.0,,,,714.2398231999249,132,22,male,True,7142,7147,False,False,expiration,inspiration
193,107.0,25,M,down,0.44209559995215386,1.700530582454964,,experiment,emotion,0.0,,,,716.7562277999242,132,22,male,True,7167,7171,False,False,expiration,expiration
194,99.0,25,M,down,0.30016439990140503,0.6219692201688051,,experiment,emotion,0.0,,,,718.1058464999077,132,22,male,True,7180,7183,False,False,inspiration,expiration
195,83.0,25,M,down,0.5862893000012264,1.8398361726523582,,experiment,emotion,0.0,,,,720.6391187999398,132,22,male,True,7206,7212,False,False,expiration,expiration
196,91.0,25,F,down,0.3335024999687448,0.9658862781233328,,experiment,emotion,0.0,,,,722.4556889999658,132,22,male,True,7224,7227,False,False,trough,inspiration
197,83.0,25,F,down,0.36679640004877,0.4238729396692783,,experiment,emotion,0.0,,,,723.5556604999582,132,22,male,True,7235,7239,False,False,inspiration,expiration
198,107.0,25,M,down,0.3001733000855893,1.4820835490604742,,experiment,emotion,0.0,,,,725.7222261999268,132,22,male,True,7256,7259,False,False,inspiration,inspiration
199,83.0,25,M,down,0.41679729998577386,1.1841291433187198,,experiment,emotion,0.0,,,,727.6055004999507,132,22,male,True,7275,7279,False,False,expiration,expiration
200,99.0,25,F,down,0.3665767000056803,1.947707778153538,,experiment,emotion,0.0,,,,730.238998399931,132,22,male,True,7302,7306,False,False,expiration,expiration
201,99.0,25,F,down,0.3502792000072077,0.5608600338433218,,experiment,emotion,0.0,,,,731.5053412999258,132,22,male,True,7314,7318,False,False,expiration,expiration
202,91.0,25,M,down,0.33349440002348274,1.0864289512504008,,experiment,emotion,0.0,,,,733.2719548000023,132,22,male,True,7332,7335,False,False,inspiration,expiration
203,91.0,25,F,up,0.5517356999916956,0.5374254393948761,,experiment,emotion,0.0,,,,734.4885819999035,132,22,male,True,7344,7350,False,False,expiration,expiration
204,83.0,25,M,up,0.3334831000538543,0.4501037637269472,,experiment,emotion,0.0,,,,735.7552059999434,132,22,male,True,7357,7360,False,False,trough,inspiration
205,107.0,25,F,down,0.3668556000338867,1.7331549270999675,,experiment,emotion,0.0,,,,738.18843129999,132,22,male,True,7381,7385,False,False,expiration,expiration
206,99.0,25,F,down,0.476393899996765,1.9712059079261384,,experiment,emotion,0.0,,,,740.854951999965,132,22,male,True,7408,7413,False,False,expiration,expiration
207,83.0,25,M,down,0.31679979991167784,0.8790565472996129,,experiment,emotion,0.0,,,,742.4716726999031,132,22,male,True,7424,7427,False,False,inspiration,inspiration
208,107.0,25,M,down,0.7381212000036612,1.5311893850508898,,experiment,emotion,0.0,,,,744.6882001999767,132,22,male,True,7446,7453,False,False,expiration,expiration
209,107.0,25,F,down,0.5702210000017658,0.4500930216964103,,experiment,emotion,0.0,,,,746.1381315999898,132,22,male,True,7461,7467,False,False,inspiration,inspiration
210,91.0,25,M,down,0.3001622998854145,0.7995508965379821,,experiment,emotion,0.0,,,,747.8047537999228,132,22,male,True,7477,7480,False,False,expiration,expiration
211,83.0,25,F,down,0.31682599999476224,1.6604340730256124,,experiment,emotion,0.0,,,,750.154672899982,132,22,male,True,7501,7504,False,False,inspiration,inspiration
212,91.0,25,M,down,0.36710329994093627,0.7156102356768892,,experiment,emotion,0.0,,,,751.5712754999986,132,22,male,True,7515,7519,False,False,expiration,expiration
213,99.0,25,F,up,0.3001722000772133,0.8994984260659659,,experiment,emotion,0.0,,,,753.1545598999363,132,22,male,True,7531,7534,False,False,inspiration,inspiration
214,83.0,25,M,up,0.3335174999665469,1.0886924767386714,,experiment,emotion,0.0,,,,754.9211571000052,132,22,male,True,7548,7551,False,False,expiration,expiration
215,107.0,25,F,up,0.3501639999449253,0.3644848633114502,,experiment,emotion,0.0,,,,755.9711174999829,132,22,male,True,7559,7563,False,False,expiration,trough
216,99.0,25,M,up,0.3001606999896467,1.5211013532681537,,experiment,emotion,0.0,,,,758.1877041999251,132,22,male,True,7581,7584,False,False,expiration,expiration
217,107.0,25,F,up,0.4176745000295341,0.706975663435909,,experiment,emotion,0.0,,,,759.5876453999663,132,22,male,True,7595,7599,False,False,inspiration,inspiration
218,83.0,25,M,up,0.3834888000274077,0.4340812650487823,,experiment,emotion,0.0,,,,760.7209444999463,132,22,male,True,7606,7610,False,False,peak,expiration
219,99.0,25,F,down,0.30016350001096725,0.6102319737381988,,experiment,emotion,0.0,,,,762.0208963999758,132,22,male,True,7619,7622,False,False,expiration,expiration
220,91.0,25,M,up,0.3503238999983296,1.5210086372300806,,experiment,emotion,0.0,,,,764.2373330999399,132,22,male,True,7642,7646,False,False,expiration,expiration
221,91.0,25,F,up,0.35015269997529685,0.8102741193524758,,experiment,emotion,0.0,,,,765.7374351999024,132,22,male,True,7657,7661,False,False,inspiration,inspiration
222,99.0,25,F,down,0.4168412999715656,1.1311471386716372,,experiment,emotion,0.0,,,,767.5540248999605,132,22,male,True,7675,7679,False,False,expiration,expiration
223,107.0,25,M,up,0.7106796000152826,0.9272347979666936,,experiment,emotion,0.0,,,,769.1706373000052,132,22,male,True,7691,7698,False,False,inspiration,expiration
224,91.0,25,F,down,0.7660754000535235,1.771807900803125,,experiment,emotion,0.0,,,,771.9372161999346,132,22,male,True,7719,7727,False,False,inspiration,expiration
225,83.0,25,M,up,0.3501399999950081,1.876994691434518,,experiment,emotion,0.0,,,,774.8537614999805,132,22,male,True,7748,7752,False,False,inspiration,expiration
226,83.0,25,M,down,0.3335044999839738,1.1254333535837022,,experiment,emotion,0.0,,,,776.6703560999596,132,22,male,True,7766,7769,False,False,expiration,inspiration
227,91.0,25,F,down,0.3668274000519887,1.0558380234599432,,experiment,emotion,0.0,,,,778.4202973999782,132,22,male,True,7783,7787,False,False,expiration,expiration
228,107.0,25,F,down,0.3168404999887571,1.7861803557966662,,experiment,emotion,0.0,,,,780.8868647000054,132,22,male,True,7808,7811,False,False,peak,expiration
229,99.0,25,M,up,0.2835423999931663,0.7768514115296069,,experiment,emotion,0.0,,,,782.353490899899,132,22,male,True,7823,7826,False,False,expiration,trough
230,83.0,25,F,up,0.4001783999847248,1.175984613147708,,experiment,emotion,0.0,,,,784.220060099964,132,22,male,True,7841,7845,False,False,expiration,expiration
231,107.0,25,M,down,0.29974370007403195,1.432443615735787,,experiment,emotion,0.0,,,,786.3376877999399,132,22,male,True,7863,7866,False,False,inspiration,inspiration
232,99.0,25,M,up,0.2834776999661699,0.5757547485348657,,experiment,emotion,0.0,,,,787.6033051999983,132,22,male,True,7875,7878,False,False,expiration,expiration
233,99.0,25,M,up,0.3174966999795288,1.4280929516731895,,experiment,emotion,0.0,,,,789.7198933999753,132,22,male,True,7896,7899,False,False,inspiration,expiration
234,83.0,25,M,up,0.2335176999913529,1.388809967223147,,experiment,emotion,0.0,,,,791.8031132000032,132,22,male,True,7917,7919,False,False,inspiration,inspiration
235,91.0,25,M,up,0.3001800000201911,1.9421778718460456,,experiment,emotion,0.0,,,,794.4530570999485,132,22,male,True,7944,7947,False,False,expiration,expiration
236,107.0,25,F,up,0.3336661000503227,0.5681520293175937,,experiment,emotion,0.0,,,,795.7029705999886,132,22,male,True,7956,7959,False,False,inspiration,inspiration
237,91.0,25,F,up,0.2335175999905914,0.9412823272393718,,experiment,emotion,0.0,,,,797.336255799979,132,22,male,True,7973,7975,False,False,expiration,expiration
238,91.0,25,F,up,0.2501868999097496,1.3921446004319458,,experiment,emotion,0.0,,,,799.4195089999121,132,22,male,True,7993,7996,False,False,inspiration,inspiration
239,91.0,25,M,up,0.23350119998212904,1.7870862546672408,,experiment,emotion,0.0,,,,801.902748499997,132,22,male,True,8018,8020,False,False,expiration,expiration
240,107.0,25,F,up,0.2837787999305874,0.8691950898722087,,experiment,emotion,0.0,,,,803.4693624000066,132,22,male,True,8034,8037,False,False,inspiration,inspiration
241,99.0,25,F,up,0.4290357999270782,0.4381340077194985,,experiment,emotion,0.0,,,,804.6193173999201,132,22,male,True,8045,8049,False,False,expiration,expiration
242,83.0,25,F,up,0.2668428999604657,0.5668052262229437,,experiment,emotion,0.0,,,,805.9026109999977,132,22,male,True,8058,8061,False,False,trough,inspiration
243,83.0,25,M,down,0.2667741000186652,0.4295926258864088,,experiment,emotion,0.0,,,,807.0026297000003,132,22,male,True,8069,8072,False,False,inspiration,peak
244,99.0,25,F,up,0.2835151000181213,1.7549645502987254,,experiment,emotion,0.0,,,,809.4358023999957,132,22,male,True,8094,8097,False,False,inspiration,inspiration
245,107.0,25,M,up,0.3168411999940872,1.7530536160889345,,experiment,emotion,0.0,,,,811.885715499986,132,22,male,True,8118,8121,False,False,expiration,expiration
246,107.0,25,M,up,0.2834774000803009,1.2911237926247066,,experiment,emotion,0.0,,,,813.8689830999356,132,22,male,True,8138,8141,False,False,inspiration,expiration
247,83.0,25,F,down,0.2668446999741718,1.1888424262326978,,experiment,emotion,0.0,,,,815.7355841998942,132,22,male,True,8157,8160,False,False,expiration,inspiration
248,107.0,25,M,down,0.35016979998908937,0.511454781908028,,experiment,emotion,0.0,,,,816.9355212999507,132,22,male,True,8169,8173,False,False,inspiration,expiration
249,91.0,25,F,down,0.3001716999569908,0.6103548306929716,,experiment,emotion,0.0,,,,818.2354934999022,132,22,male,True,8182,8185,False,False,expiration,expiration
250,99.0,25,M,down,0.5859775000717491,1.3882391546691606,,experiment,emotion,0.0,,,,820.335393599933,132,22,male,True,8203,8209,False,False,expiration,expiration
251,91.0,25,F,down,0.4956179999280721,1.781163312368126,,experiment,emotion,0.0,,,,822.9686579999981,132,22,male,True,8229,8234,False,False,inspiration,expiration
252,83.0,25,M,down,0.3001718999585137,1.842937495236606,,experiment,emotion,0.0,,,,825.5852324999869,132,22,male,True,8255,8258,False,False,inspiration,inspiration
253,99.0,25,F,up,0.3168112999992445,1.2319884929890963,,experiment,emotion,0.0,,,,827.501838499913,132,22,male,True,8274,8277,False,False,expiration,expiration
254,91.0,25,F,up,0.38352649996522814,0.8662468908831462,,experiment,emotion,0.0,,,,829.0517107999185,132,22,male,True,8290,8294,False,False,inspiration,expiration
255,99.0,25,F,up,0.3001711000688374,1.9515256257498823,,experiment,emotion,0.0,,,,831.7016633999301,132,22,male,True,8316,8319,False,False,inspiration,peak
256,83.0,25,F,up,0.33350619999691844,0.6403029390087407,,experiment,emotion,0.0,,,,833.0349266999402,132,22,male,True,8329,8332,False,False,expiration,expiration
257,107.0,25,F,up,0.4001273999456316,0.3173632816811154,,experiment,emotion,0.0,,,,834.051527399919,132,22,male,True,8340,8344,False,False,inspiration,inspiration
258,99.0,25,M,up,0.3501706999959424,1.7891466878172309,,experiment,emotion,0.0,,,,836.5348334999289,132,22,male,True,8364,8368,False,False,expiration,expiration
259,107.0,25,M,up,0.459221399971284,1.0018504382837092,,experiment,emotion,0.0,,,,838.2180802999063,132,22,male,True,8381,8386,False,False,inspiration,inspiration
260,83.0,25,M,up,0.3834974999772385,0.951931937748191,,experiment,emotion,0.0,,,,839.9180119999219,132,22,male,True,8398,8402,False,False,expiration,expiration
261,91.0,25,M,up,0.25017060001846403,1.2006680009734845,,experiment,emotion,0.0,,,,841.8346090998967,132,22,male,True,8418,8421,False,False,inspiration,inspiration
262,0.2374731046612136,25,up,up,0.5076096999691799,0.7552049394869709,,experiment,cRDM,0.0,,,,845.617795499973,132,22,male,True,8455,8460,False,False,expiration,expiration
263,0.2374731046612136,25,up,up,0.33384159998968244,0.7429490454869885,,experiment,cRDM,0.0,,,,847.1177543000085,132,22,male,True,8470,8473,False,False,expiration,inspiration
264,0.2374731046612136,25,down,up,0.3005202999338508,0.7860479026116325,,experiment,cRDM,0.0,,,,848.5843645998974,132,22,male,True,8485,8488,False,False,peak,expiration
265,0.2374731046612136,25,down,up,0.6886879000812769,1.4984363283737872,,experiment,cRDM,0.0,,,,850.7676181999268,132,22,male,True,8507,8514,False,False,inspiration,inspiration
266,0.2374731046612136,25,up,up,0.5107392999343574,1.2472766737142342,,experiment,cRDM,0.0,,,,852.9675607999087,132,22,male,True,8529,8534,False,False,expiration,expiration
267,0.2374731046612136,25,down,up,0.43386670004110783,1.3832179783843002,,experiment,cRDM,0.0,,,,855.1174593999748,132,22,male,True,8550,8554,False,False,inspiration,expiration
268,0.2374731046612136,25,up,up,0.42456080007832503,0.5817394245533627,,experiment,cRDM,0.0,,,,856.4007383999416,132,22,male,True,8563,8567,False,False,expiration,expiration
269,0.2374731046612136,25,up,up,0.35053830000106245,1.7047911556194977,,experiment,cRDM,0.0,,,,858.7839910999173,132,22,male,True,8587,8591,False,False,expiration,expiration
270,0.2374731046612136,25,down,up,0.35054710006807,0.4960549447833375,,experiment,cRDM,0.0,,,,859.9672619999618,132,22,male,True,8599,8603,False,False,expiration,inspiration
271,0.2374731046612136,25,down,down,0.7247789000393823,1.991572250438567,,experiment,cRDM,0.0,,,,862.650540899951,132,22,male,True,8626,8633,False,False,expiration,expiration
272,0.2374731046612136,25,down,down,0.44384980003815133,0.6067436698516575,,experiment,cRDM,0.0,,,,864.2504995999625,132,22,male,True,8642,8646,False,False,inspiration,inspiration
273,0.2374731046612136,25,down,down,0.5856277999700978,0.6321947549862426,,experiment,cRDM,0.0,,,,865.583760999958,132,22,male,True,8655,8661,False,False,expiration,expiration
274,0.2374731046612136,25,down,down,0.4239361999789253,0.4130297179135684,,experiment,cRDM,0.0,,,,866.8503841999917,132,22,male,True,8668,8672,False,False,trough,inspiration
275,0.2374731046612136,25,down,down,0.7617405999917537,1.6994419537668584,,experiment,cRDM,0.0,,,,869.2335887999507,132,22,male,True,8692,8700,False,False,expiration,expiration
276,0.2374731046612136,25,up,up,0.498156400048174,1.1493682498796716,,experiment,cRDM,0.0,,,,871.4001781999832,132,22,male,True,8713,8718,False,False,inspiration,peak
277,0.2374731046612136,25,up,up,0.5742302000289783,0.7783056256206725,,experiment,cRDM,0.0,,,,872.9500883999282,132,22,male,True,8729,8735,False,False,expiration,expiration
278,0.2374731046612136,25,up,up,0.7186896000057459,1.918380199621347,,experiment,cRDM,0.0,,,,875.716693699942,132,22,male,True,8756,8763,False,False,expiration,expiration
279,0.2374731046612136,25,up,up,0.5513683999888599,1.0531515118824322,,experiment,cRDM,0.0,,,,877.7499319999478,132,22,male,True,8777,8783,False,False,inspiration,expiration
280,0.2374731046612136,25,down,down,0.6557105999672785,0.7985433664008896,,experiment,cRDM,0.0,,,,879.3665862999624,132,22,male,True,8793,8800,False,False,expiration,inspiration
281,0.2374731046612136,25,up,up,0.5481487000361085,1.7416537941081198,,experiment,cRDM,0.0,,,,882.033174399985,132,22,male,True,8820,8825,False,False,expiration,expiration
282,0.2374731046612136,25,up,up,0.6768745000008494,0.5626044926583645,,experiment,cRDM,0.0,,,,883.4164266999577,132,22,male,True,8833,8840,False,False,inspiration,inspiration
283,0.2374731046612136,25,down,down,0.5146425999701023,1.1494015554146992,,experiment,cRDM,0.0,,,,885.4996753999732,132,22,male,True,8854,8859,False,False,expiration,expiration
284,0.2374731046612136,25,up,up,0.6147437000181526,0.8095394877504412,,experiment,cRDM,0.0,,,,887.0996115999296,132,22,male,True,8870,8876,False,False,expiration,inspiration
285,0.2374731046612136,25,down,down,0.7140742000192404,0.8016461626670843,,experiment,cRDM,0.0,,,,888.7662177999738,132,22,male,True,8887,8894,False,False,expiration,expiration
286,0.2374731046612136,25,down,down,0.8101876999717206,0.4691034749562659,,experiment,cRDM,0.0,,,,890.2161865999224,132,22,male,True,8902,8910,False,False,expiration,inspiration
287,0.2374731046612136,25,up,up,0.5611987999873236,0.6290393329885744,,experiment,cRDM,0.0,,,,891.9161144999089,132,22,male,True,8919,8925,False,False,expiration,expiration
288,0.2374731046612136,25,up,down,0.8879832999082282,1.8571652524730025,,experiment,cRDM,0.0,,,,894.5993327999022,132,22,male,True,8945,8954,False,False,inspiration,expiration
289,0.2374731046612136,25,down,down,0.8530421000905335,1.152536016002241,,experiment,cRDM,0.0,,,,896.8992533999264,132,22,male,True,8968,8977,False,False,inspiration,inspiration
290,0.2374731046612136,25,up,up,0.5471702999202535,1.2755628218169175,,experiment,cRDM,0.0,,,,899.2991562999086,132,22,male,True,8992,8997,False,False,expiration,inspiration
291,0.2374731046612136,25,down,down,0.6105569000355899,1.8674552117950116,,experiment,cRDM,0.0,,,,901.9657656999769,132,22,male,True,9019,9025,False,False,expiration,expiration
292,0.2374731046612136,25,down,down,0.5426237999927253,1.4810614540710918,,experiment,cRDM,0.0,,,,904.3156339999988,132,22,male,True,9042,9047,False,False,inspiration,expiration
293,0.2374731046612136,25,down,down,0.7367654999252409,1.8958131033285144,,experiment,cRDM,0.0,,,,907.0155508999014,132,22,male,True,9069,9076,False,False,inspiration,peak
294,0.2374731046612136,25,up,up,0.5431299000047147,0.35876744587503345,,experiment,cRDM,0.0,,,,908.3821470999393,132,22,male,True,9083,9088,False,False,expiration,expiration
295,0.2374731046612136,25,up,down,0.5728428999427706,0.5334866644499181,,experiment,cRDM,0.0,,,,909.7154455999845,132,22,male,True,9096,9102,False,False,inspiration,inspiration
296,0.2374731046612136,25,up,up,0.6352754000108689,1.4880601248685452,,experiment,cRDM,0.0,,,,912.0320070999443,132,22,male,True,9119,9125,False,False,expiration,inspiration
297,0.2374731046612136,25,down,down,0.4989778000162914,1.0514772800174528,,experiment,cRDM,0.0,,,,913.9653164999327,132,22,male,True,9139,9144,False,False,expiration,expiration
298,0.2374731046612136,25,down,up,0.6828106000320986,0.7700053296221758,,experiment,cRDM,0.0,,,,915.4985532999273,132,22,male,True,9154,9161,False,False,inspiration,inspiration
299,0.2374731046612136,25,up,up,0.3338863999815658,0.976692592324665,,experiment,cRDM,0.0,,,,917.4151355999057,132,22,male,True,9174,9177,False,False,expiration,expiration
300,0.2374731046612136,25,down,down,0.35062569996807724,1.5945626542211555,,experiment,cRDM,0.0,,,,919.6817308999597,132,22,male,True,9196,9200,False,False,expiration,expiration
301,0.2374731046612136,25,up,up,0.267121099983342,0.7899305987547612,,experiment,cRDM,0.0,,,,921.1483880999733,132,22,male,True,9211,9214,False,False,inspiration,inspiration
302,0.2374731046612136,25,up,down,0.3005790999159217,0.4806864576727869,,experiment,cRDM,0.0,,,,922.2982999999077,132,22,male,True,9222,9225,False,False,expiration,expiration
303,0.2374731046612136,25,up,up,0.3506192999193445,1.9830583384211695,,experiment,cRDM,0.0,,,,924.9648987998953,132,22,male,True,9249,9253,False,False,peak,expiration
304,0.2374731046612136,25,down,down,0.4167859998997301,1.2370254194437498,,experiment,cRDM,0.0,,,,926.8814855999079,132,22,male,True,9268,9272,False,False,inspiration,inspiration
305,0.2374731046612136,25,down,down,0.7085629999637604,1.6613612112835778,,experiment,cRDM,0.0,,,,929.214725799975,132,22,male,True,9291,9298,False,False,expiration,inspiration
306,0.2374731046612136,25,up,up,0.459011200000532,1.399527854928578,,experiment,cRDM,0.0,,,,931.5813021999784,132,22,male,True,9315,9320,False,False,expiration,expiration
307,0.2374731046612136,25,down,down,0.5226745000109076,0.7711552851069496,,experiment,cRDM,0.0,,,,933.0646090999943,132,22,male,True,9330,9335,False,False,inspiration,inspiration
308,0.2374731046612136,25,down,down,0.477133399923332,1.1771554875621442,,experiment,cRDM,0.0,,,,935.0311602998989,132,22,male,True,9350,9355,False,False,expiration,expiration
309,0.2374731046612136,25,up,up,0.30048279999755323,0.6131922726736407,,experiment,cRDM,0.0,,,,936.3811184999067,132,22,male,True,9363,9366,False,False,expiration,expiration
310,0.2374731046612136,25,up,down,0.31719969992991537,1.344332222428824,,experiment,cRDM,0.0,,,,938.3977193000028,132,22,male,True,9383,9386,False,False,inspiration,expiration
311,0.2374731046612136,25,down,down,0.3171240000519901,1.0124638356857851,,experiment,cRDM,0.0,,,,940.0810225999447,132,22,male,True,9400,9403,False,False,expiration,inspiration
312,0.2374731046612136,25,up,up,0.3838209999958053,1.4384319944422737,,experiment,cRDM,0.0,,,,942.1975756000028,132,22,male,True,9421,9425,False,False,expiration,expiration
313,0.2374731046612136,25,down,down,0.3671678000828251,1.9340709657101796,,experiment,cRDM,0.0,,,,944.8141442999477,132,22,male,True,9448,9452,False,False,expiration,expiration
314,0.2374731046612136,25,down,up,0.333849799935706,1.5571008087404643,,experiment,cRDM,0.0,,,,947.0640581999904,132,22,male,True,9470,9473,False,False,inspiration,expiration
315,0.2374731046612136,25,down,down,0.3005675000604242,1.5113077026054065,,experiment,cRDM,0.0,,,,949.263966199942,132,22,male,True,9492,9495,False,False,inspiration,inspiration
316,0.2374731046612136,25,up,up,0.3671912000281736,1.1708772108604355,,experiment,cRDM,0.0,,,,951.1138593999203,132,22,male,True,9511,9515,False,False,expiration,inspiration
317,0.2374731046612136,25,up,down,0.250484999967739,1.3723093120275471,,experiment,cRDM,0.0,,,,953.1805120999924,132,22,male,True,9531,9534,False,False,expiration,expiration
318,0.2374731046612136,25,down,down,0.5292120000813156,1.7326222542716752,,experiment,cRDM,0.0,,,,955.5970732999267,132,22,male,True,9555,9560,False,False,expiration,expiration
319,0.2374731046612136,25,down,down,0.513922999962233,0.7374189801614482,,experiment,cRDM,0.0,,,,957.1303788999794,132,22,male,True,9571,9576,False,False,trough,inspiration
320,0.2374731046612136,25,up,up,0.4168288999935612,1.676544381074418,,experiment,cRDM,0.0,,,,959.5802616999716,132,22,male,True,9595,9599,False,False,expiration,expiration
321,0.2374731046612136,25,up,up,0.3839085000799969,1.3066138091899506,,experiment,cRDM,0.0,,,,961.5635613999331,132,22,male,True,9615,9619,False,False,inspiration,expiration
322,0.2374731046612136,25,up,up,0.4168282999889925,1.9633206272634691,,experiment,cRDM,0.0,,,,964.1967189999997,132,22,male,True,9641,9645,False,False,inspiration,inspiration
323,0.2374731046612136,25,up,up,0.4241965999826789,0.307831250613506,,experiment,cRDM,0.0,,,,965.1800825999817,132,22,male,True,9651,9655,False,False,expiration,expiration
324,0.2374731046612136,25,up,up,0.3005350000457838,0.466809982477304,,experiment,cRDM,0.0,,,,966.3466961999657,132,22,male,True,9663,9666,False,False,inspiration,inspiration
325,0.2374731046612136,25,down,down,0.6106686000712216,1.130751018518539,,experiment,cRDM,0.0,,,,968.146640599938,132,22,male,True,9681,9687,False,False,expiration,expiration
326,0.2374731046612136,25,down,down,0.4568068999797106,1.2415413643937416,,experiment,cRDM,0.0,,,,970.2464825999924,132,22,male,True,9702,9707,False,False,inspiration,expiration
327,0.2374731046612136,25,up,up,0.5081059000222012,0.3447174798230382,,experiment,cRDM,0.0,,,,971.313177999924,132,22,male,True,9712,9717,False,False,expiration,expiration
328,0.2374731046612136,25,down,down,0.4248714999994263,1.3613047945739172,,experiment,cRDM,0.0,,,,973.4464118999896,132,22,male,True,9734,9738,False,False,expiration,expiration
329,0.2374731046612136,25,down,down,0.4322032999480143,0.3741909137396164,,experiment,cRDM,0.0,,,,974.5130743999034,132,22,male,True,9745,9749,False,False,expiration,inspiration
330,0.2374731046612136,25,down,up,0.28373530006501824,0.5063108064762126,,experiment,cRDM,0.0,,,,975.7130899999756,132,22,male,True,9757,9760,False,False,inspiration,inspiration
331,0.2374731046612136,25,up,up,0.4340143000008537,1.9054547709611744,,experiment,cRDM,0.0,,,,978.2962388999293,132,22,male,True,9782,9786,False,False,inspiration,inspiration
332,0.2374731046612136,25,down,down,0.3338541999692097,1.2085438131984858,,experiment,cRDM,0.0,,,,980.212833800004,132,22,male,True,9801,9804,False,False,expiration,expiration
333,0.2374731046612136,25,down,up,0.3671922000357881,0.4122784209311472,,experiment,cRDM,0.0,,,,981.2961211999644,132,22,male,True,9812,9816,False,False,inspiration,inspiration
334,0.2374731046612136,25,down,down,0.28381609998177737,0.4607085892645051,,experiment,cRDM,0.0,,,,982.4461090998956,132,22,male,True,9824,9827,False,False,expiration,expiration
335,0.2374731046612136,25,up,up,0.28381910000462085,0.4584368789242722,,experiment,cRDM,0.0,,,,983.5793895999667,132,22,male,True,9835,9838,False,False,expiration,inspiration
336,0.2374731046612136,25,up,up,0.5503491000272334,1.93756661629812,,experiment,cRDM,0.0,,,,986.1959491999588,132,22,male,True,9861,9867,False,False,expiration,trough
337,0.2374731046612136,25,down,down,0.5517667001113296,0.5953108201057307,,experiment,cRDM,0.0,,,,987.612544799922,132,22,male,True,9875,9881,False,False,inspiration,peak
338,0.2374731046612136,25,up,up,0.4481756000313908,1.987462380038292,,experiment,cRDM,0.0,,,,990.4291577999247,132,22,male,True,9904,9908,False,False,inspiration,inspiration
339,0.2374731046612136,25,down,down,0.3505479999585077,0.7899118750397733,,experiment,cRDM,0.0,,,,991.929025899968,132,22,male,True,9919,9923,False,False,expiration,expiration
340,0.2374731046612136,25,up,up,0.2838693999219686,0.7258950179827561,,experiment,cRDM,0.0,,,,993.3457075000043,132,22,male,True,9933,9936,False,False,inspiration,inspiration
341,0.2374731046612136,25,up,up,0.3837506999261677,0.5082546168632777,,experiment,cRDM,0.0,,,,994.5456692998996,132,22,male,True,9945,9949,False,False,expiration,expiration
342,107.0,25,M,up,0.6677324998890981,0.5508627587179207,,experiment,emotion,1.0,,,,998.4455312999197,132,22,male,True,9984,9991,False,False,expiration,inspiration
343,83.0,25,M,up,0.4167496999725699,0.5999962769334739,,experiment,emotion,1.0,,,,999.995446399902,132,22,male,True,9999,10003,False,False,expiration,inspiration
344,99.0,25,F,down,0.4167633999604732,1.8590771567269944,,experiment,emotion,1.0,,,,1002.5620304999176,132,22,male,True,10025,10029,False,False,expiration,expiration
345,107.0,25,F,down,0.3501808999571949,0.39964347138283773,,experiment,emotion,1.0,,,,1003.6453174999916,132,22,male,True,10036,10040,False,False,inspiration,inspiration
346,99.0,25,M,down,0.3335016000783071,0.6272083714289309,,experiment,emotion,1.0,,,,1004.9619246999499,132,22,male,True,10049,10052,False,False,expiration,expiration
347,91.0,25,F,down,0.3502343000145629,0.5587545798722249,,experiment,emotion,1.0,,,,1006.2285011999776,132,22,male,True,10062,10066,False,False,inspiration,inspiration
348,83.0,25,M,down,0.540813000057824,0.8251927370376517,,experiment,emotion,1.0,,,,1007.728527899948,132,22,male,True,10077,10082,False,False,expiration,expiration
349,91.0,25,M,up,0.5148368000518531,1.4864172175645094,,experiment,emotion,1.0,,,,1010.0284445999423,132,22,male,True,10100,10105,False,False,inspiration,peak
350,107.0,25,F,up,0.3501833999762312,0.3025516839247622,,experiment,emotion,1.0,,,,1011.1116830999963,132,22,male,True,10110,10114,False,False,expiration,expiration
351,91.0,25,F,up,0.662331199971959,1.5039377643739351,,experiment,emotion,1.0,,,,1013.2949432999594,132,22,male,True,10132,10139,False,False,inspiration,expiration
352,99.0,25,F,up,0.4754030999029055,1.505451943482612,,experiment,emotion,1.0,,,,1015.7448666999117,132,22,male,True,10157,10162,False,False,inspiration,inspiration
353,107.0,25,F,up,0.5368167000124231,1.0749006426993817,,experiment,emotion,1.0,,,,1017.5614606000016,132,22,male,True,10175,10180,False,False,expiration,expiration
354,99.0,25,F,up,0.33353589999023825,0.4187592955188085,,experiment,emotion,1.0,,,,1018.7947583999485,132,22,male,True,10187,10190,False,False,expiration,inspiration
355,83.0,25,F,up,0.3001704999478534,0.6879206341948397,,experiment,emotion,1.0,,,,1020.1780342999846,132,22,male,True,10201,10204,False,False,inspiration,expiration
356,91.0,25,M,up,0.3835144999902696,1.1607900141206318,,experiment,emotion,1.0,,,,1022.0112955999792,132,22,male,True,10219,10223,False,False,trough,inspiration
357,83.0,25,M,down,0.4005197000224143,1.9202417498237287,,experiment,emotion,1.0,,,,1024.6278427999932,132,22,male,True,10246,10250,False,False,expiration,trough
358,107.0,25,M,down,0.35016180004458874,0.5308950798496296,,experiment,emotion,1.0,,,,1025.8611600999718,132,22,male,True,10258,10262,False,False,inspiration,inspiration
359,83.0,25,M,down,0.5204807999543846,0.9005911134186306,,experiment,emotion,1.0,,,,1027.4277940999018,132,22,male,True,10274,10279,False,False,expiration,expiration
360,99.0,25,F,down,0.40018150000832975,0.9448598272357216,,experiment,emotion,1.0,,,,1029.1610299999593,132,22,male,True,10291,10295,False,False,inspiration,inspiration
361,99.0,25,M,up,0.3002481999574229,1.190167692013157,,experiment,emotion,1.0,,,,1031.0443109999178,132,22,male,True,10310,10313,False,False,expiration,expiration
362,91.0,25,M,up,0.3667933000251651,0.4505817797316696,,experiment,emotion,1.0,,,,1032.1942818999523,132,22,male,True,10321,10325,False,False,inspiration,inspiration
363,91.0,25,F,up,0.4313798999646679,0.5161071591207579,,experiment,emotion,1.0,,,,1033.4108944999753,132,22,male,True,10333,10337,False,False,inspiration,peak
364,83.0,25,M,up,0.3502728999592364,0.934294073279018,,experiment,emotion,1.0,,,,1035.0440919999962,132,22,male,True,10350,10354,False,False,expiration,inspiration
365,107.0,25,F,up,0.5442637000232935,1.7016796081709378,,experiment,emotion,1.0,,,,1037.4440699999686,132,22,male,True,10374,10379,False,False,expiration,expiration
366,99.0,25,F,up,0.3668418000452221,1.4498954517748468,,experiment,emotion,1.0,,,,1039.7106719999574,132,22,male,True,10397,10401,False,False,inspiration,inspiration
367,83.0,25,M,up,0.30020150006748736,0.7702107197065102,,experiment,emotion,1.0,,,,1041.1772518999644,132,22,male,True,10411,10414,False,False,expiration,expiration
368,107.0,25,M,up,0.28351519990246743,0.8454760414944913,,experiment,emotion,1.0,,,,1042.7105125999076,132,22,male,True,10427,10430,False,False,inspiration,inspiration
369,107.0,25,F,up,0.3001967000309378,1.6109365840102468,,experiment,emotion,1.0,,,,1044.9937562999546,132,22,male,True,10449,10452,False,False,expiration,expiration
370,91.0,25,M,up,0.33353200007695705,1.4530961021496018,,experiment,emotion,1.0,,,,1047.1437079999596,132,22,male,True,10471,10474,False,False,inspiration,expiration
371,83.0,25,F,up,0.3001652000239119,1.0057372473910586,,experiment,emotion,1.0,,,,1048.8269889999647,132,22,male,True,10488,10491,False,False,expiration,expiration
372,91.0,25,F,down,0.3001752999844029,0.9104676943826676,,experiment,emotion,1.0,,,,1050.410214399919,132,22,male,True,10504,10507,False,False,inspiration,inspiration
373,99.0,25,F,up,0.2834272000472993,0.7587037156222232,,experiment,emotion,1.0,,,,1051.8435159999644,132,22,male,True,10518,10521,False,False,expiration,expiration
374,83.0,25,M,up,0.3668706000316888,0.6435533627140069,,experiment,emotion,1.0,,,,1053.1768128999975,132,22,male,True,10531,10535,False,False,inspiration,inspiration
375,107.0,25,M,up,0.31682949990499765,1.4895331515075256,,experiment,emotion,1.0,,,,1055.3600671999156,132,22,male,True,10553,10556,False,False,expiration,expiration
376,99.0,25,M,up,0.4001837000250816,1.3728021024859156,,experiment,emotion,1.0,,,,1057.4100066999672,132,22,male,True,10573,10577,False,False,inspiration,expiration
377,107.0,25,F,up,0.4323601999785751,1.2561028761273176,,experiment,emotion,1.0,,,,1059.3599222999765,132,22,male,True,10593,10597,False,False,expiration,inspiration
378,83.0,25,F,up,0.4900497000198811,0.9197684200974612,,experiment,emotion,1.0,,,,1060.9931970000034,132,22,male,True,10609,10614,False,False,peak,expiration
379,99.0,25,M,up,0.5371034999843687,0.6433811680991361,,experiment,emotion,1.0,,,,1062.39314499998,132,22,male,True,10623,10628,False,False,expiration,expiration
380,91.0,25,F,down,0.678155199973844,0.4309817877461316,,experiment,emotion,1.0,,,,1063.643118799897,132,22,male,True,10636,10643,False,False,inspiration,peak
381,91.0,25,M,up,0.50386980001349,0.4440233811277584,,experiment,emotion,1.0,,,,1065.0264263999416,132,22,male,True,10650,10655,False,False,expiration,expiration
382,99.0,25,M,up,0.33349889994133264,1.7614301983943148,,experiment,emotion,1.0,,,,1067.5596272998957,132,22,male,True,10675,10678,False,False,expiration,expiration
383,107.0,25,M,up,0.2835431999992579,1.704061594945642,,experiment,emotion,1.0,,,,1069.9428722999291,132,22,male,True,10699,10702,False,False,inspiration,inspiration
384,91.0,25,F,down,0.3336167000234127,0.9970298672716916,,experiment,emotion,1.0,,,,1071.6260201999685,132,22,male,True,10716,10719,False,False,expiration,inspiration
385,83.0,25,F,up,0.2834855000255629,1.3440827341775854,,experiment,emotion,1.0,,,,1073.6760766999796,132,22,male,True,10736,10739,False,False,expiration,expiration
386,83.0,25,M,down,0.3334940000204369,1.5627032130385297,,experiment,emotion,1.0,,,,1075.9426457999507,132,22,male,True,10759,10762,False,False,inspiration,peak
387,91.0,25,F,down,0.4953479999676347,0.530129658320044,,experiment,emotion,1.0,,,,1077.1759253999917,132,22,male,True,10771,10776,False,False,expiration,expiration
388,107.0,25,F,up,0.30018420005217195,1.7661594668261795,,experiment,emotion,1.0,,,,1079.709157699952,132,22,male,True,10796,10799,False,False,expiration,expiration
389,99.0,25,M,up,0.3668892000569031,0.924223499917876,,experiment,emotion,1.0,,,,1081.3257978999754,132,22,male,True,10813,10817,False,False,inspiration,inspiration
390,83.0,25,M,down,0.30029110005125403,1.6384820381226537,,experiment,emotion,1.0,,,,1083.6590244999388,132,22,male,True,10836,10839,False,False,expiration,expiration
391,107.0,25,F,down,0.4956343999365345,0.42530613808947415,,experiment,emotion,1.0,,,,1084.7756549000044,132,22,male,True,10847,10852,False,False,inspiration,inspiration
392,99.0,25,M,up,0.3168350999476388,0.4634783372278338,,experiment,emotion,1.0,,,,1085.9922686999198,132,22,male,True,10859,10862,False,False,expiration,expiration
393,99.0,25,F,up,0.3001723000779748,1.1746802763557052,,experiment,emotion,1.0,,,,1087.8588768999325,132,22,male,True,10878,10881,False,False,inspiration,inspiration
394,83.0,25,F,up,0.2835002000210807,0.5029286766718015,,experiment,emotion,1.0,,,,1089.042158599943,132,22,male,True,10890,10893,False,False,inspiration,expiration
395,91.0,25,F,up,0.3335064999992028,0.5826005612324889,,experiment,emotion,1.0,,,,1090.3254401999293,132,22,male,True,10903,10906,False,False,expiration,expiration
396,107.0,25,M,up,0.30017369997221977,0.7717892144387007,,experiment,emotion,1.0,,,,1091.7753823999085,132,22,male,True,10917,10920,False,False,expiration,expiration
397,91.0,25,M,down,0.2834313999628648,1.1834320502686222,,experiment,emotion,1.0,,,,1093.6419981999788,132,22,male,True,10936,10939,False,False,peak,expiration
398,91.0,25,F,down,0.2834950999822468,1.6913400990415235,,experiment,emotion,1.0,,,,1096.025273499894,132,22,male,True,10960,10963,False,False,inspiration,inspiration
399,91.0,25,F,up,0.2833365999395028,1.6132064392235044,,experiment,emotion,1.0,,,,1098.341781899915,132,22,male,True,10983,10986,False,False,expiration,inspiration
400,107.0,25,M,down,0.26679579995106906,0.8892678553342248,,experiment,emotion,1.0,,,,1099.9251347999088,132,22,male,True,10999,11002,False,False,expiration,expiration
401,99.0,25,M,up,0.2668176000006497,1.7395196778349171,,experiment,emotion,1.0,,,,1102.3583523998966,132,22,male,True,11023,11026,False,False,inspiration,inspiration
402,83.0,25,M,up,0.2835037000477314,1.9203743228974512,,experiment,emotion,1.0,,,,1104.9749228999717,132,22,male,True,11049,11052,False,False,inspiration,inspiration
403,83.0,25,M,down,0.4200922000454739,1.0872102721824657,,experiment,emotion,1.0,,,,1106.7581868999403,132,22,male,True,11067,11071,False,False,expiration,expiration
404,99.0,25,M,up,0.2835287998896092,1.6645579186579442,,experiment,emotion,1.0,,,,1109.1080648999196,132,22,male,True,11091,11094,False,False,expiration,expiration
405,107.0,25,F,up,0.366884799906984,0.6112682139384285,,experiment,emotion,1.0,,,,1110.4079803999048,132,22,male,True,11104,11108,False,False,inspiration,inspiration
406,107.0,25,F,up,0.4002152000321075,0.5156259031800852,,experiment,emotion,1.0,,,,1111.6079613999464,132,22,male,True,11116,11120,False,False,inspiration,expiration
407,83.0,25,M,up,0.3502607000991702,0.39367712558472495,,experiment,emotion,1.0,,,,1112.6912830999354,132,22,male,True,11126,11130,False,False,expiration,expiration
408,107.0,25,F,up,0.3168440000154078,1.0961338073104208,,experiment,emotion,1.0,,,,1114.491210899898,132,22,male,True,11144,11147,False,False,inspiration,inspiration
409,91.0,25,F,up,0.3001702999463305,0.7687255298867304,,experiment,emotion,1.0,,,,1115.9578350000083,132,22,male,True,11159,11162,False,False,expiration,expiration
410,99.0,25,F,up,0.35013339994475245,0.9342271254140532,,experiment,emotion,1.0,,,,1117.5744425999,132,22,male,True,11175,11179,False,False,inspiration,inspiration
411,91.0,25,M,up,0.4575850000837818,0.8073126334551766,,experiment,emotion,1.0,,,,1119.0577064999381,132,22,male,True,11190,11195,False,False,expiration,expiration
412,83.0,25,F,up,0.4168482000241056,1.823577014368712,,experiment,emotion,1.0,,,,1121.6076102999505,132,22,male,True,11215,11219,False,False,expiration,expiration
413,99.0,25,F,up,0.3835056000389159,1.5155909924249862,,experiment,emotion,1.0,,,,1123.8075225999346,132,22,male,True,11237,11241,False,False,inspiration,inspiration
414,91.0,25,F,up,0.6338280000491068,1.7023591943561596,,experiment,emotion,1.0,,,,1126.20743509999,132,22,male,True,11261,11267,False,False,expiration,inspiration
415,99.0,25,M,up,0.30017039994709194,1.850318856966156,,experiment,emotion,1.0,,,,1128.957345200004,132,22,male,True,11289,11292,False,False,expiration,expiration
416,83.0,25,M,up,0.3668595999479294,0.581110910044513,,experiment,emotion,1.0,,,,1130.2072833999991,132,22,male,True,11301,11305,False,False,inspiration,inspiration
417,107.0,25,F,up,0.2667935999343172,1.0767120563037271,,experiment,emotion,1.0,,,,1131.990601999918,132,22,male,True,11319,11322,False,False,expiration,expiration
418,99.0,25,M,up,0.26686440000776196,1.8298483857905687,,experiment,emotion,1.0,,,,1134.5071316999386,132,22,male,True,11344,11347,False,False,peak,expiration
419,107.0,25,F,up,0.3335009999573231,0.8134000393277789,,experiment,emotion,1.0,,,,1136.0070932999952,132,22,male,True,11359,11362,False,False,expiration,inspiration
420,83.0,25,M,up,0.3168723999988288,1.7422703543974378,,experiment,emotion,1.0,,,,1138.4402987000067,132,22,male,True,11384,11387,False,False,expiration,expiration
421,91.0,25,M,up,0.366839399910532,0.7392125621159475,,experiment,emotion,1.0,,,,1139.8736119999085,132,22,male,True,11398,11402,False,False,inspiration,inspiration
422,0.2374731046612136,25,up,down,0.5381912000011653,1.1879297488998726,,experiment,cRDM,1.0,,,,1143.7901290999725,132,22,male,True,11437,11442,False,False,inspiration,expiration
423,0.2374731046612136,25,up,up,0.4382043000077829,1.936981744200667,,experiment,cRDM,1.0,,,,1146.5400579998966,132,22,male,True,11465,11469,False,False,inspiration,peak
424,0.2374731046612136,25,down,down,0.4797118999995291,1.4568131768460428,,experiment,cRDM,1.0,,,,1148.7065978999015,132,22,male,True,11486,11491,False,False,inspiration,inspiration
425,0.2374731046612136,25,down,down,0.4907627999782562,1.3001010302005898,,experiment,cRDM,1.0,,,,1150.7565466999076,132,22,male,True,11507,11512,False,False,expiration,expiration
426,0.2374731046612136,25,up,up,0.4447172000072897,0.3541678896935214,,experiment,cRDM,1.0,,,,1151.8564958999632,132,22,male,True,11518,11522,False,False,trough,inspiration
427,0.2374731046612136,25,down,down,0.33385219995398074,0.5811966856796676,,experiment,cRDM,1.0,,,,1153.1398254999658,132,22,male,True,11531,11534,False,False,inspiration,expiration
428,0.2374731046612136,25,up,up,0.3505613000597805,1.4484129390704812,,experiment,cRDM,1.0,,,,1155.2730335999513,132,22,male,True,11552,11556,False,False,inspiration,inspiration
429,0.2374731046612136,25,up,up,0.4179263000842184,1.8516656821332609,,experiment,cRDM,1.0,,,,1157.8062859999484,132,22,male,True,11577,11581,False,False,expiration,expiration
430,0.2374731046612136,25,down,down,0.4002729000058025,1.8542401090708793,,experiment,cRDM,1.0,,,,1160.3228416999334,132,22,male,True,11603,11607,False,False,expiration,expiration
431,0.2374731046612136,25,down,up,0.33374869998078793,1.9443741261201932,,experiment,cRDM,1.0,,,,1162.939459899906,132,22,male,True,11629,11632,False,False,expiration,expiration
432,0.2374731046612136,25,down,up,0.3671664000721648,0.6266252715589086,,experiment,cRDM,1.0,,,,1164.2394139999526,132,22,male,True,11642,11646,False,False,expiration,expiration
433,0.2374731046612136,25,down,down,0.31715550005901605,1.3859387370473626,,experiment,cRDM,1.0,,,,1166.3059819999617,132,22,male,True,11663,11666,False,False,expiration,expiration
434,0.2374731046612136,25,down,up,0.3838334999745712,1.6860690568726484,,experiment,cRDM,1.0,,,,1168.6725619999925,132,22,male,True,11686,11690,False,False,inspiration,inspiration
435,0.2374731046612136,25,down,up,0.4894547000294551,1.2424580611247251,,experiment,cRDM,1.0,,,,1170.6057949999813,132,22,male,True,11705,11710,False,False,expiration,inspiration
436,0.2374731046612136,25,up,up,0.4985813999082893,1.1063224078008047,,experiment,cRDM,1.0,,,,1172.4557283999166,132,22,male,True,11724,11729,False,False,expiration,expiration
437,0.2374731046612136,25,up,up,0.3838205999927595,0.5402268669195235,,experiment,cRDM,1.0,,,,1173.7556978999635,132,22,male,True,11737,11741,False,False,expiration,trough
438,0.2374731046612136,25,up,up,0.3505751000484452,1.2403836320769457,,experiment,cRDM,1.0,,,,1175.6722950999392,132,22,male,True,11756,11760,False,False,expiration,expiration
439,0.2374731046612136,25,up,up,0.4002477000467479,1.479301823452566,,experiment,cRDM,1.0,,,,1177.822245099931,132,22,male,True,11778,11782,False,False,inspiration,inspiration
440,0.2374731046612136,25,down,up,0.3171752999769524,0.5617249317755617,,experiment,cRDM,1.0,,,,1179.0554867999165,132,22,male,True,11790,11793,False,False,inspiration,inspiration
441,0.2374731046612136,25,up,up,0.4168211999349296,1.772956172071982,,experiment,cRDM,1.0,,,,1181.522096099914,132,22,male,True,11815,11819,False,False,inspiration,inspiration
442,0.2374731046612136,25,up,up,0.4685620999662206,0.6971487892346082,,experiment,cRDM,1.0,,,,1182.888685099897,132,22,male,True,11828,11833,False,False,expiration,expiration
443,0.2374731046612136,25,down,down,0.5302889000158757,0.9043320622208226,,experiment,cRDM,1.0,,,,1184.521992999944,132,22,male,True,11845,11850,False,False,trough,inspiration
444,0.2374731046612136,25,up,up,0.33399220008868724,1.75226422266091,,experiment,cRDM,1.0,,,,1187.0718777999282,132,22,male,True,11870,11873,False,False,expiration,expiration
445,0.2374731046612136,25,down,down,0.4710917000193149,1.8981168380136857,,experiment,cRDM,1.0,,,,1189.6551106999395,132,22,male,True,11896,11901,False,False,expiration,expiration
446,0.2374731046612136,25,down,down,0.5236043999902904,1.382292966548518,,experiment,cRDM,1.0,,,,1191.7716774999865,132,22,male,True,11917,11922,False,False,inspiration,inspiration
447,0.2374731046612136,25,up,up,0.3005609000101685,0.8683998705112741,,experiment,cRDM,1.0,,,,1193.421629199991,132,22,male,True,11934,11937,False,False,expiration,expiration
448,0.2374731046612136,25,up,up,0.5276513999560848,0.8227333586719761,,experiment,cRDM,1.0,,,,1194.9215991999956,132,22,male,True,11949,11954,False,False,inspiration,inspiration
449,0.2374731046612136,25,down,down,0.4550991000141949,1.7187227185293852,,experiment,cRDM,1.0,,,,1197.4381849999772,132,22,male,True,11974,11979,False,False,expiration,expiration
450,0.2374731046612136,25,up,up,0.4003271000692621,1.165237982654164,,experiment,cRDM,1.0,,,,1199.3213274999287,132,22,male,True,11993,11997,False,False,inspiration,peak
451,0.2374731046612136,25,down,down,0.60219370003324,1.0261182644862428,,experiment,cRDM,1.0,,,,1201.0380606999388,132,22,male,True,12010,12016,False,False,expiration,expiration
452,0.2374731046612136,25,down,down,0.4790082999970764,1.8236476933201855,,experiment,cRDM,1.0,,,,1203.7212803999428,132,22,male,True,12037,12042,False,False,expiration,expiration
453,0.2374731046612136,25,down,up,0.26708240003790706,1.087851457123565,,experiment,cRDM,1.0,,,,1205.5378970999734,132,22,male,True,12055,12058,False,False,inspiration,inspiration
454,0.2374731046612136,25,up,up,0.4002476999303326,1.2190568636228074,,experiment,cRDM,1.0,,,,1207.4544601999226,132,22,male,True,12074,12078,False,False,expiration,expiration
455,0.2374731046612136,25,up,up,0.3504918999969959,1.0768126108844345,,experiment,cRDM,1.0,,,,1209.2043718999485,132,22,male,True,12091,12095,False,False,inspiration,inspiration
456,0.2374731046612136,25,up,up,0.3838443000568077,1.5674633008480685,,experiment,cRDM,1.0,,,,1211.4376595999347,132,22,male,True,12114,12118,False,False,expiration,expiration
457,0.2374731046612136,25,down,down,0.4306527000153437,1.6182230803130186,,experiment,cRDM,1.0,,,,1213.7375942999495,132,22,male,True,12137,12141,False,False,expiration,expiration
458,0.2374731046612136,25,down,up,0.3838449000613764,0.42591170453953336,,experiment,cRDM,1.0,,,,1214.8541666999224,132,22,male,True,12148,12152,False,False,expiration,trough
459,0.2374731046612136,25,up,up,0.4365213999990374,1.6484832186872198,,experiment,cRDM,1.0,,,,1217.17075629998,132,22,male,True,12171,12175,False,False,expiration,expiration
460,0.2374731046612136,25,down,down,0.4898839000379666,1.5623003787320242,,experiment,cRDM,1.0,,,,1219.4373587999726,132,22,male,True,12194,12199,False,False,inspiration,inspiration
461,0.2374731046612136,25,up,up,0.4669494000263512,0.9464747979197096,,experiment,cRDM,1.0,,,,1221.137325199903,132,22,male,True,12211,12216,False,False,expiration,expiration
462,0.2374731046612136,25,up,up,0.442733500036411,1.6591077108627132,,experiment,cRDM,1.0,,,,1223.5205524999185,132,22,male,True,12235,12239,False,False,expiration,inspiration
463,0.2374731046612136,25,up,up,0.4553948999382556,0.8770366827625179,,experiment,cRDM,1.0,,,,1225.1037938999946,132,22,male,True,12250,12255,False,False,inspiration,inspiration
464,0.2374731046612136,25,down,down,0.4396023000590503,1.7810834907571549,,experiment,cRDM,1.0,,,,1227.6036794999382,132,22,male,True,12275,12279,False,False,expiration,expiration
465,0.2374731046612136,25,down,down,0.4632975999265909,1.8740724919874223,,experiment,cRDM,1.0,,,,1230.1869497000007,132,22,male,True,12301,12306,False,False,expiration,expiration
466,0.2374731046612136,25,up,up,0.4634242000756785,1.9318918281296655,,experiment,cRDM,1.0,,,,1232.8368681999855,132,22,male,True,12328,12333,False,False,inspiration,expiration
467,0.2374731046612136,25,down,down,0.4601326999254525,0.5079143287005684,,experiment,cRDM,1.0,,,,1234.070131699904,132,22,male,True,12340,12345,False,False,expiration,expiration
468,0.2374731046612136,25,down,down,0.44984909996856,1.5621461202599112,,experiment,cRDM,1.0,,,,1236.3533816999989,132,22,male,True,12363,12367,False,False,peak,expiration
469,0.2374731046612136,25,up,up,0.28381910000462085,1.689291076984046,,experiment,cRDM,1.0,,,,1238.7533130999655,132,22,male,True,12387,12390,False,False,inspiration,inspiration
470,0.2374731046612136,25,up,up,0.4374451000476256,1.1946151050853295,,experiment,cRDM,1.0,,,,1240.619824299938,132,22,male,True,12406,12410,False,False,expiration,expiration
471,0.2374731046612136,25,down,down,0.4002286000177264,0.6326003739241237,,experiment,cRDM,1.0,,,,1241.9531897999111,132,22,male,True,12419,12423,False,False,expiration,inspiration
472,0.2374731046612136,25,up,up,0.35044639999978244,1.6811005289555456,,experiment,cRDM,1.0,,,,1244.3197729999665,132,22,male,True,12443,12447,False,False,expiration,expiration
473,0.2374731046612136,25,down,down,0.36716669995803386,1.4191698835103244,,experiment,cRDM,1.0,,,,1246.4030136999208,132,22,male,True,12464,12468,False,False,inspiration,inspiration
474,0.2374731046612136,25,down,down,0.456613100017421,1.7379397054653851,,experiment,cRDM,1.0,,,,1248.8196071999844,132,22,male,True,12488,12493,False,False,expiration,expiration
475,0.2374731046612136,25,down,down,0.6717020000796765,1.924572560952045,,experiment,cRDM,1.0,,,,1251.4695213999364,132,22,male,True,12514,12521,False,False,expiration,expiration
476,0.2374731046612136,25,up,up,0.4317972999997437,0.4713031435585714,,experiment,cRDM,1.0,,,,1252.8694367998978,132,22,male,True,12528,12532,False,False,trough,inspiration
477,0.2374731046612136,25,up,up,0.5636434999760239,1.5415667220243203,,experiment,cRDM,1.0,,,,1255.102634999901,132,22,male,True,12551,12557,False,False,expiration,expiration
478,0.2374731046612136,25,down,down,0.4189869000110775,0.4408490172594639,,experiment,cRDM,1.0,,,,1256.369308799971,132,22,male,True,12563,12567,False,False,inspiration,inspiration
479,0.2374731046612136,25,down,down,0.3671482999343425,0.3857185168844356,,experiment,cRDM,1.0,,,,1257.43597459991,132,22,male,True,12574,12578,False,False,peak,expiration
480,0.2374731046612136,25,up,up,0.4507407000055537,1.8395987610180973,,experiment,cRDM,1.0,,,,1259.9525017999113,132,22,male,True,12599,12604,False,False,inspiration,inspiration
481,0.2374731046612136,25,up,down,0.40026790008414537,0.9027011500953244,,experiment,cRDM,1.0,,,,1261.5691106999293,132,22,male,True,12615,12619,False,False,expiration,expiration
482,0.2374731046612136,25,up,up,0.400246600038372,1.9882007785453448,,experiment,cRDM,1.0,,,,1264.2356889999935,132,22,male,True,12642,12646,False,False,expiration,expiration
483,0.2374731046612136,25,up,up,0.3671478000469506,0.7114139561630257,,experiment,cRDM,1.0,,,,1265.6190043999811,132,22,male,True,12656,12660,False,False,trough,inspiration
484,0.2374731046612136,25,up,up,0.41676350007765,0.3209945975682903,,experiment,cRDM,1.0,,,,1266.6189546999522,132,22,male,True,12666,12670,False,False,inspiration,expiration
485,0.2374731046612136,25,down,down,0.4413502999814227,0.9246047295380908,,experiment,cRDM,1.0,,,,1268.2189078999218,132,22,male,True,12682,12686,False,False,expiration,expiration
486,0.2374731046612136,25,down,down,0.4824468999868259,1.4588334609481035,,experiment,cRDM,1.0,,,,1270.3687935000053,132,22,male,True,12703,12708,False,False,expiration,expiration
487,0.2374731046612136,25,up,up,0.4661516000051051,0.8417976545624971,,experiment,cRDM,1.0,,,,1271.9520775999408,132,22,male,True,12719,12724,False,False,inspiration,inspiration
488,0.2374731046612136,25,down,down,0.5255885000806302,1.8833931217004012,,experiment,cRDM,1.0,,,,1274.5686387999451,132,22,male,True,12745,12750,False,False,expiration,expiration
489,0.2374731046612136,25,down,down,0.5029270000522956,0.8397024978207159,,experiment,cRDM,1.0,,,,1276.185290299938,132,22,male,True,12761,12766,False,False,inspiration,inspiration
490,0.2374731046612136,25,down,down,0.5047198999673128,1.5561683475971086,,experiment,cRDM,1.0,,,,1278.518517899909,132,22,male,True,12785,12790,False,False,expiration,inspiration
491,0.2374731046612136,25,up,up,0.5810974000487477,0.4450072915958175,,experiment,cRDM,1.0,,,,1279.7351362999761,132,22,male,True,12797,12803,False,False,inspiration,expiration
492,0.2374731046612136,25,down,down,0.4915382000617683,0.9721048421154588,,experiment,cRDM,1.0,,,,1281.5517025999725,132,22,male,True,12815,12820,False,False,expiration,expiration
493,0.2374731046612136,25,down,down,0.5165599999018013,1.149430358897727,,experiment,cRDM,1.0,,,,1283.4516748999013,132,22,male,True,12834,12839,False,False,peak,expiration
494,0.2374731046612136,25,down,down,0.36718229996040463,0.31615277849165035,,experiment,cRDM,1.0,,,,1284.5515995000023,132,22,male,True,12845,12849,False,False,expiration,expiration
495,0.2374731046612136,25,up,up,0.4703760999254882,1.294025005201768,,experiment,cRDM,1.0,,,,1286.5348897000074,132,22,male,True,12865,12870,False,False,inspiration,expiration
496,0.2374731046612136,25,up,up,0.5294976000441238,1.5153538830315816,,experiment,cRDM,1.0,,,,1288.784771299921,132,22,male,True,12887,12892,False,False,trough,inspiration
497,0.2374731046612136,25,down,up,0.33385970001108944,1.4130301436116952,,experiment,cRDM,1.0,,,,1290.9846935999813,132,22,male,True,12909,12912,False,False,expiration,expiration
498,0.2374731046612136,25,up,down,0.3172578999074176,0.9817240330507068,,experiment,cRDM,1.0,,,,1292.651298899902,132,22,male,True,12926,12929,False,False,inspiration,inspiration
499,0.2374731046612136,25,down,down,0.3671319999266416,1.0068450508293227,,experiment,cRDM,1.0,,,,1294.334593999898,132,22,male,True,12943,12947,False,False,expiration,expiration
500,0.2374731046612136,25,up,up,0.40025269996840507,1.719687198646778,,experiment,cRDM,1.0,,,,1296.734506799956,132,22,male,True,12967,12971,False,False,expiration,expiration
501,0.2374731046612136,25,up,up,0.4291821999941021,1.9903720059510568,,experiment,cRDM,1.0,,,,1299.401049899985,132,22,male,True,12993,12997,False,False,peak,expiration
502,107.0,25,M,up,0.6038797000655904,1.7378443196321876,,experiment,emotion,2.0,,,,1308.267391399946,132,22,male,True,13082,13088,False,False,inspiration,expiration
503,83.0,25,M,up,0.41674549994058907,1.0236213381794332,,experiment,emotion,2.0,,,,1310.1673537999159,132,22,male,True,13101,13105,False,False,inspiration,inspiration
504,99.0,25,F,up,0.3501658000750467,1.1540103101735937,,experiment,emotion,2.0,,,,1312.0339309999256,132,22,male,True,13120,13124,False,False,expiration,expiration
505,107.0,25,F,up,0.4461287999292836,0.783790761607347,,experiment,emotion,2.0,,,,1313.5171399998947,132,22,male,True,13135,13139,False,False,inspiration,inspiration
506,99.0,25,M,up,0.38351750001311297,0.5810142084088864,,experiment,emotion,2.0,,,,1314.8171575999586,132,22,male,True,13148,13152,False,False,expiration,expiration
507,91.0,25,F,up,0.3168956999434158,0.6775357307073616,,experiment,emotion,2.0,,,,1316.2003723999949,132,22,male,True,13162,13165,False,False,inspiration,inspiration
508,83.0,25,M,up,0.31669930007774383,1.0973806514973972,,experiment,emotion,2.0,,,,1317.9836974999635,132,22,male,True,13179,13182,False,False,expiration,expiration
509,91.0,25,M,up,0.30015660007484257,1.155476292327175,,experiment,emotion,2.0,,,,1319.833653799957,132,22,male,True,13198,13201,False,False,inspiration,inspiration
510,107.0,25,F,up,0.31681630003731703,1.7266677820394636,,experiment,emotion,2.0,,,,1322.250229600002,132,22,male,True,13222,13225,False,False,expiration,expiration
511,91.0,25,F,up,0.3001572999637574,1.0224468808036389,,experiment,emotion,2.0,,,,1323.9501473999114,132,22,male,True,13239,13242,False,False,inspiration,inspiration
512,99.0,25,F,up,0.333471899968572,0.611962918341888,,experiment,emotion,2.0,,,,1325.2501189999748,132,22,male,True,13252,13255,False,False,expiration,expiration
513,107.0,25,F,up,0.3001727999653667,1.1273157778385223,,experiment,emotion,2.0,,,,1327.0667036999948,132,22,male,True,13270,13273,False,False,inspiration,inspiration
514,99.0,25,F,up,0.4168235999532044,1.7593113949521824,,experiment,emotion,2.0,,,,1329.4999700000044,132,22,male,True,13295,13299,False,False,expiration,inspiration
515,83.0,25,F,down,0.4373547999421135,0.8488670257650341,,experiment,emotion,2.0,,,,1331.049901899998,132,22,male,True,13310,13314,False,False,inspiration,expiration
516,91.0,25,M,down,0.31682170007843524,1.6846273142567718,,experiment,emotion,2.0,,,,1333.4498167999554,132,22,male,True,13334,13337,False,False,inspiration,inspiration
517,83.0,25,M,down,0.3834956000791863,0.6312463054782089,,experiment,emotion,2.0,,,,1334.7497462999306,132,22,male,True,13347,13351,False,False,expiration,expiration
518,107.0,25,M,down,0.3001412000739947,1.9795270840501948,,experiment,emotion,2.0,,,,1337.4163363999687,132,22,male,True,13374,13377,False,False,inspiration,peak
519,83.0,25,M,down,0.3668274999363348,0.9684522421953091,,experiment,emotion,2.0,,,,1339.0662631999005,132,22,male,True,13390,13394,False,False,expiration,expiration
520,99.0,25,F,down,0.31684270000550896,1.7212655504105974,,experiment,emotion,2.0,,,,1341.4995052999584,132,22,male,True,13415,13418,False,False,expiration,expiration
521,99.0,25,M,up,0.33349929994437844,0.6575422492479448,,experiment,emotion,2.0,,,,1342.8494558999082,132,22,male,True,13428,13431,False,False,inspiration,inspiration
522,91.0,25,M,up,0.4001836999086663,0.31259408702773633,,experiment,emotion,2.0,,,,1343.866076299921,132,22,male,True,13438,13442,False,False,inspiration,expiration
523,91.0,25,F,up,0.3501763000385836,1.4915640960410264,,experiment,emotion,2.0,,,,1346.049327799934,132,22,male,True,13460,13464,False,False,inspiration,inspiration
524,83.0,25,M,down,0.6510338000953197,1.6681112898269082,,experiment,emotion,2.0,,,,1348.399192999932,132,22,male,True,13484,13491,False,False,expiration,trough
525,107.0,25,F,down,0.4168169000186026,0.3394650149363881,,experiment,emotion,2.0,,,,1349.6492135999724,132,22,male,True,13496,13500,False,False,inspiration,inspiration
526,99.0,25,F,up,0.5601156000047922,1.3460987899087389,,experiment,emotion,2.0,,,,1351.699107699911,132,22,male,True,13517,13523,False,False,expiration,expiration
527,83.0,25,M,up,0.6641807999694721,1.719798264957146,,experiment,emotion,2.0,,,,1354.2490168999648,132,22,male,True,13542,13549,False,False,expiration,expiration
528,107.0,25,M,down,0.6436223000055179,1.6339729522109272,,experiment,emotion,2.0,,,,1356.8155999999726,132,22,male,True,13568,13574,False,False,inspiration,expiration
529,107.0,25,F,up,0.5193459000438452,0.835913368409303,,experiment,emotion,2.0,,,,1358.5488759999862,132,22,male,True,13585,13590,False,False,expiration,expiration
530,91.0,25,M,up,0.6530794000718743,0.7762482271498372,,experiment,emotion,2.0,,,,1360.1321460999316,132,22,male,True,13601,13608,False,False,inspiration,expiration
531,83.0,25,F,up,0.6234530999790877,0.7762296619708502,,experiment,emotion,2.0,,,,1361.8487511998974,132,22,male,True,13618,13624,False,False,expiration,inspiration
532,91.0,25,F,up,0.41703230002895,1.7244321240694138,,experiment,emotion,2.0,,,,1364.4653083999874,132,22,male,True,13644,13648,False,False,expiration,expiration
533,99.0,25,F,up,0.5499704000540078,1.099752358424892,,experiment,emotion,2.0,,,,1366.2652515999507,132,22,male,True,13662,13667,False,False,inspiration,expiration
534,83.0,25,M,up,0.350158300017938,1.9488281822677112,,experiment,emotion,2.0,,,,1369.031824799953,132,22,male,True,13690,13694,False,False,inspiration,peak
535,107.0,25,M,up,0.5154755000257865,1.3491404014887012,,experiment,emotion,2.0,,,,1371.0817419999514,132,22,male,True,13710,13715,False,False,expiration,inspiration
536,99.0,25,M,up,0.4239122999133542,1.2785546901088658,,experiment,emotion,2.0,,,,1373.1483350999188,132,22,male,True,13731,13735,False,False,expiration,expiration
537,107.0,25,F,up,0.3668357999995351,1.9078121904426328,,experiment,emotion,2.0,,,,1375.7649047999876,132,22,male,True,13757,13761,False,False,expiration,expiration
538,83.0,25,F,up,0.4417369000148028,1.089943784928179,,experiment,emotion,2.0,,,,1377.5315079999853,132,22,male,True,13775,13779,False,False,expiration,expiration
539,99.0,25,M,up,0.35014049999881536,1.068480918424909,,experiment,emotion,2.0,,,,1379.3147967999105,132,22,male,True,13793,13797,False,False,inspiration,expiration
540,91.0,25,F,up,0.4003773999866098,0.6882828559356804,,experiment,emotion,2.0,,,,1380.698124699993,132,22,male,True,13806,13810,False,False,expiration,expiration
541,91.0,25,M,up,0.3501561000011861,1.7006726341311482,,experiment,emotion,2.0,,,,1383.0979620999426,132,22,male,True,13830,13834,False,False,expiration,expiration
542,99.0,25,M,up,0.4394324000459165,1.9658290303307515,,experiment,emotion,2.0,,,,1385.7478236999593,132,22,male,True,13857,13861,False,False,inspiration,inspiration
543,107.0,25,M,up,0.3835121999727562,1.5823311113802467,,experiment,emotion,2.0,,,,1388.047791799996,132,22,male,True,13880,13884,False,False,expiration,expiration
544,91.0,25,F,up,0.4392410999862477,1.9420912152464096,,experiment,emotion,2.0,,,,1390.681002199999,132,22,male,True,13906,13910,False,False,expiration,expiration
