,stimLvl,stimTime,rand,response,rt,precedingITI,trialNumber,trialType,stimuli,block,estIntens,estThres,estSlope,trialStart,subject,age,gender,headRest,onset,responsI,manBadOnset,manBadRespons,onset_phase,respons_phase
0,150.0,100,F,,,1.0515535310797393,,introTrial,emotion,,,,,225.55406730002144,171,23,female,True,2254,0,False,False,expiration,0
1,0.9,100,down,down,1.993299900001148,1.8826568772281895,,introTrial,cRDM,,,,,231.37043680000355,171,23,female,True,2312,2332,False,False,expiration,expiration
2,0.9,25,down,down,0.7305124000122305,1.046889179851802,,tutorial,cRDM,,,,,274.7521753000037,171,23,female,True,2746,2753,False,False,trough,inspiration
3,0.9,25,down,down,0.6779121000145096,1.802455011448698,,tutorial,cRDM,,,,,277.5687526000256,171,23,female,True,2775,2782,False,False,inspiration,expiration
4,0.9,25,up,up,0.6290363000007346,1.3380557962799495,,tutorial,cRDM,,,,,279.8686190000153,171,23,female,True,2798,2804,False,False,inspiration,peak
5,0.9,25,up,up,0.9657354000082704,1.94595191598786,,tutorial,cRDM,,,,,282.7019030000083,171,23,female,True,2826,2836,False,False,peak,expiration
6,0.9,25,down,down,0.65688819999923,1.4090641368871268,,tutorial,cRDM,,,,,285.35179710001097,171,23,female,True,2852,2859,False,False,inspiration,expiration
7,0.9,25,down,up,0.7039563000143971,1.86437890374089,,tutorial,cRDM,,,,,288.1516818000236,171,23,female,True,2880,2887,False,False,inspiration,expiration
8,0.9,25,up,up,0.6366693000018131,1.9583316350110007,,tutorial,cRDM,,,,,291.0849616000196,171,23,female,True,2910,2916,False,False,inspiration,expiration
9,0.9,25,up,up,1.295524099987233,0.4605660057445431,,tutorial,cRDM,,,,,292.46814860001905,171,23,female,True,2924,2937,False,False,expiration,expiration
10,0.9,25,up,up,0.5948692999954801,0.3625104095248085,,tutorial,cRDM,,,,,294.38478590000886,171,23,female,True,2943,2949,False,False,inspiration,peak
11,0.9,25,down,down,0.6119279999984428,0.9882202938677258,,tutorial,cRDM,,,,,296.23474310000887,171,23,female,True,2961,2967,False,False,expiration,expiration
12,200.0,25,M,up,1.1002622999949379,1.6146729464940346,,tutorial,emotion,,,,,307.18441010001703,171,23,female,True,3071,3082,False,False,expiration,expiration
13,200.0,25,M,up,0.6760548999882303,0.4467425380313697,,tutorial,emotion,,,,,309.0176418000192,171,23,female,True,3089,3096,False,False,expiration,inspiration
14,200.0,25,F,up,0.4977575999801047,0.8861624893800781,,tutorial,emotion,,,,,310.8509129000013,171,23,female,True,3107,3112,False,False,expiration,expiration
15,0.0,25,F,down,0.6077810000278987,1.242043443032223,,tutorial,emotion,,,,,312.9008690000046,171,23,female,True,3128,3134,False,False,inspiration,expiration
16,0.0,25,M,down,0.5708559000049718,0.3570816998107943,,tutorial,emotion,,,,,314.1507943000179,171,23,female,True,3140,3146,False,False,expiration,expiration
17,200.0,25,F,up,0.6508818000147585,1.4552703113020915,,tutorial,emotion,,,,,316.46774760002154,171,23,female,True,3164,3171,False,False,expiration,expiration
18,0.0,25,M,down,0.4817359000153374,1.723261881611886,,tutorial,emotion,,,,,319.1339418000134,171,23,female,True,3190,3195,False,False,inspiration,expiration
19,200.0,25,M,down,0.5498056999931578,1.2158009683548832,,tutorial,emotion,,,,,321.1338774000178,171,23,female,True,3210,3215,False,False,expiration,inspiration
20,0.0,25,F,down,0.8158492000075057,1.3009273569233726,,tutorial,emotion,,,,,323.28381180000724,171,23,female,True,3232,3240,False,False,expiration,inspiration
21,0.0,25,F,down,0.6606218000233639,0.9689105781733888,,tutorial,emotion,,,,,325.3670232000004,171,23,female,True,3253,3260,False,False,expiration,expiration
22,0.29,25,up,up,0.8089598999940791,0.3395229353233411,,psi_staircase_training,cRDM,,0.25,0.25693124029946324,0.10500000000000002,342.566682100005,171,23,female,True,3425,3433,False,False,inspiration,expiration
23,0.25,25,up,down,1.2653965999779755,1.173909268865454,,psi_staircase_training,cRDM,,0.21910266653183127,0.2260132002683493,0.10468632033873933,344.81627940002363,171,23,female,True,3447,3460,False,False,expiration,inspiration
24,0.36,25,down,down,0.7238975999935064,1.7769706282126947,,psi_staircase_training,cRDM,,0.3202997408361979,0.3276103223604739,0.1107465658214764,348.13281990002724,171,23,female,True,3480,3487,False,False,expiration,inspiration
25,0.33,25,down,down,0.7865862000035122,1.7885713902182092,,psi_staircase_training,cRDM,,0.2990372097977385,0.30641398280716875,0.1117492876491608,350.91606220000534,171,23,female,True,3508,3516,False,False,expiration,inspiration
26,0.31,25,up,up,0.7409880999766756,1.2051931359228656,,psi_staircase_training,cRDM,,0.2780189805609542,0.28539811096413914,0.1117849993448388,353.1826790000196,171,23,female,True,3531,3538,False,False,expiration,expiration
27,0.31,25,down,down,0.5845164000056684,1.5695655162518003,,psi_staircase_training,cRDM,,0.2582073586141265,0.2655339603556145,0.11098925295027023,355.7661914000055,171,23,female,True,3557,3563,False,False,expiration,expiration
28,0.29,25,up,up,0.4941299000056461,1.256128646467071,,psi_staircase_training,cRDM,,0.24138240409280395,0.2485489846939697,0.1085651240775294,357.88250710000284,171,23,female,True,3578,3583,False,False,inspiration,peak
29,0.24,25,down,down,0.5619756999949459,0.7193398281726315,,psi_staircase_training,cRDM,,0.22544905583343344,0.2325152283915249,0.107044062324179,359.3666822000232,171,23,female,True,3593,3599,False,False,expiration,expiration
30,0.24,25,down,down,0.5760366000176873,0.9428504961307084,,psi_staircase_training,cRDM,,0.20474749939231834,0.21227317020784012,0.11400491131305583,361.16566070000414,171,23,female,True,3611,3617,False,False,inspiration,expiration
31,0.23,25,up,up,0.4268022000032943,1.9344949558522464,,psi_staircase_training,cRDM,,0.18503962375809055,0.1928548615388246,0.11839150448161755,363.9489029000106,171,23,female,True,3638,3642,False,False,inspiration,expiration
32,0.22,25,down,down,0.5117648999730591,0.4149462586317967,,psi_staircase_training,cRDM,,0.1668004946365475,0.17476932355743144,0.12071822654274562,365.0488775000267,171,23,female,True,3649,3654,False,False,expiration,expiration
33,0.19,25,down,up,0.8822568999894429,0.8008488582829187,,psi_staircase_training,cRDM,,0.1506096300720314,0.15859812929352204,0.12101620806906235,366.61547700001387,171,23,female,True,3665,3674,False,False,inspiration,expiration
34,0.24,25,down,down,0.6526161000074353,0.7984538590334573,,psi_staircase_training,cRDM,,0.2064288458525479,0.21462694646915376,0.12419141849839972,368.58205190001166,171,23,female,True,3685,3692,False,False,expiration,trough
35,0.24,25,up,up,0.5713766999833751,1.4098708178586796,,psi_staircase_training,cRDM,,0.1919452470250221,0.2003125239366002,0.12675423701350158,370.91532140001067,171,23,female,True,3708,3714,False,False,expiration,expiration
36,0.23,25,up,up,0.5211041999864392,1.8246311064754823,,psi_staircase_training,cRDM,,0.17937142155315575,0.1877831176719241,0.12742713487210527,373.59855540000717,171,23,female,True,3735,3740,False,False,expiration,expiration
37,0.23,25,down,down,0.6454888999869581,1.5241972196301363,,psi_staircase_training,cRDM,,0.16811816858081866,0.17652399072380984,0.1273381511650125,375.91513840001437,171,23,female,True,3758,3764,False,False,inspiration,expiration
38,0.18,25,down,down,0.7459063999995124,1.2087749833031087,,psi_staircase_training,cRDM,,0.15871285962843654,0.1670316598150355,0.12601987261364048,378.0317244000034,171,23,female,True,3779,3786,False,False,expiration,inspiration
39,0.17,25,up,up,0.5772974999854341,0.3723820349131849,,psi_staircase_training,cRDM,,0.14622416709134933,0.15487574720593172,0.13106109048066,379.4483488000114,171,23,female,True,3793,3799,False,False,inspiration,expiration
40,0.17,25,up,up,0.6466871999728028,1.5183628295060374,,psi_staircase_training,cRDM,,0.13440781391865886,0.14329012745533726,0.13455642584249364,381.81490700002183,171,23,female,True,3817,3823,False,False,expiration,inspiration
41,0.17,25,up,up,0.5288349000038579,0.6867178267695996,,psi_staircase_training,cRDM,,0.12377219998784185,0.1327621740223847,0.13618735361117051,383.41483829999925,171,23,female,True,3833,3838,False,False,expiration,expiration
42,0.15,25,up,up,0.5288622000080068,1.2497222646089297,,psi_staircase_training,cRDM,,0.11439701408213646,0.123392895935054,0.13627684999313744,385.46476470000925,171,23,female,True,3854,3859,False,False,inspiration,inspiration
43,0.13,25,down,up,0.4170440000016242,0.901398111906392,,psi_staircase_training,cRDM,,0.10553151023951528,0.1144843574488502,0.13562492661709638,387.1647109000187,171,23,female,True,3871,3875,False,False,expiration,expiration
44,0.18,25,down,up,0.5636954999936279,1.7850617248083411,,psi_staircase_training,cRDM,,0.13423205961916704,0.14343370676185838,0.13939394801496188,389.647944700002,171,23,female,True,3895,3901,False,False,expiration,expiration
45,0.18,25,down,down,0.5564734000072349,1.4306969090716006,,psi_staircase_training,cRDM,,0.1640214833829681,0.17315068115347326,0.1382964266838753,391.9312053000031,171,23,female,True,3918,3924,False,False,inspiration,expiration
46,0.18,25,up,up,0.6608651000133249,1.0821173443562662,,psi_staircase_training,cRDM,,0.15462130544658614,0.16402137307157538,0.14239978098873626,393.84778570002527,171,23,female,True,3937,3944,False,False,expiration,inspiration
47,0.18,25,up,down,0.7186038000218105,0.5530762170513766,,psi_staircase_training,cRDM,,0.14594929880757865,0.15553857264740473,0.1452660288317674,395.331086900027,171,23,female,True,3952,3959,False,False,expiration,expiration
48,0.24,25,down,up,0.7436039000167511,0.8630055574793514,,psi_staircase_training,cRDM,,0.17233803647509688,0.1815185765903322,0.13907420179536326,397.18106790000456,171,23,female,True,3971,3978,False,False,trough,inspiration
49,0.25,25,down,down,0.6153339000011329,1.5675146124777095,,psi_staircase_training,cRDM,,0.20042743853102346,0.21021835516454632,0.14832067596899098,399.76425659999944,171,23,female,True,3997,4003,False,False,expiration,expiration
50,0.25,25,up,up,0.5252318999846466,0.928523416305532,,psi_staircase_training,cRDM,,0.1923540581913684,0.20216458018828626,0.1486176737742229,401.5974937000137,171,23,female,True,4015,4020,False,False,inspiration,expiration
51,0.23,25,up,up,0.7525280000118073,1.176127926031406,,psi_staircase_training,cRDM,,0.185212311662118,0.1950049296876965,0.1483464500235786,403.5641025000077,171,23,female,True,4035,4043,False,False,expiration,inspiration
52,100.0,25,M,up,1.1441810000105759,1.4941316736053416,,psi_staircase_training,emotion,,100.0,100.0,25.00050000000001,412.8805208000122,171,23,female,True,4128,4139,False,False,expiration,inspiration
53,55.0,25,M,down,0.8847936000092886,0.3524557951501957,,psi_staircase_training,emotion,,54.742809467541896,54.742809467541896,25.00050000000011,414.7137860000075,171,23,female,True,4146,4155,False,False,expiration,expiration
54,79.0,25,F,down,0.9286042000167072,1.6958707026187771,,psi_staircase_training,emotion,,79.636070985635,79.636070985635,25.71326925488641,417.6469821000064,171,23,female,True,4175,4184,False,False,inspiration,expiration
55,103.0,25,F,up,0.6233635999960825,0.5178326367791553,,psi_staircase_training,emotion,,97.61123893914808,97.61123893914808,26.1463337262867,419.4302676000225,171,23,female,True,4193,4199,False,False,expiration,inspiration
56,87.0,25,M,down,0.8651826999848709,0.41383186218305,,psi_staircase_training,emotion,,85.98876744579668,85.98876744579668,23.003056417783494,420.8135428000242,171,23,female,True,4207,4216,False,False,inspiration,expiration
57,95.0,25,F,down,0.9641736999910792,1.8930741472256825,,psi_staircase_training,emotion,,95.05640406123078,95.05640406123078,22.150603223582724,423.9134536000202,171,23,female,True,4238,4248,False,False,inspiration,expiration
58,108.0,25,M,down,1.1510014999948908,1.5159138546285729,,psi_staircase_training,emotion,,102.67895770092095,102.67895770092095,23.933073614491192,426.7466691000154,171,23,female,True,4266,4278,False,False,inspiration,expiration
59,126.0,25,F,up,0.7900682999752462,0.4097007164275156,,psi_staircase_training,emotion,,113.52218870526065,113.52218870526065,31.611106717665084,428.64658390000113,171,23,female,True,4285,4293,False,False,expiration,inspiration
60,122.0,25,F,up,0.7477830999996513,0.5541958712705688,,psi_staircase_training,emotion,,107.37737850761332,107.37737850761332,29.23899594163205,430.3298685000045,171,23,female,True,4302,4309,False,False,expiration,expiration
61,120.0,25,M,up,0.8252409000124317,1.8314808848860769,,psi_staircase_training,emotion,,103.399560746868,103.399560746868,27.102653483724946,433.24643870000733,171,23,female,True,4331,4339,False,False,peak,expiration
62,85.0,25,F,down,0.5319700000109151,0.8165897271687745,,psi_staircase_training,emotion,,100.68299433852276,100.68299433852276,25.224425752927647,435.22965110000223,171,23,female,True,4351,4356,False,False,inspiration,inspiration
63,119.0,25,F,up,1.1050826999999117,1.9150318300632605,,psi_staircase_training,emotion,,102.90796399394476,102.90796399394476,23.38137491483795,438.0295894000155,171,23,female,True,4379,4390,False,False,expiration,inspiration
64,86.0,25,F,down,0.697501500020735,1.6646233893960656,,psi_staircase_training,emotion,,101.03048750272734,101.03048750272734,21.495346489968792,441.1461335000058,171,23,female,True,4410,4417,False,False,expiration,inspiration
65,116.0,25,M,up,1.0452011000015773,0.6263001487864905,,psi_staircase_training,emotion,,102.56848107266028,102.56848107266028,19.699854222428318,442.8294231000182,171,23,female,True,4427,4437,False,False,peak,expiration
66,88.0,25,M,down,0.8730379000189714,1.6262376400289411,,psi_staircase_training,emotion,,101.12966445670249,101.12966445670249,17.94103701303449,445.8626094000065,171,23,female,True,4458,4467,False,False,expiration,expiration
67,113.0,25,F,down,1.2707778999756556,0.5733660590757976,,psi_staircase_training,emotion,,102.2583733482534,102.2583733482534,16.32489012690738,447.645907099999,171,23,female,True,4475,4488,False,False,expiration,expiration
68,125.0,25,F,up,0.8145352999854367,1.609878021413633,,psi_staircase_training,emotion,,106.13819822643197,106.13819822643197,21.39879881892033,450.87911490001716,171,23,female,True,4508,4516,False,False,trough,inspiration
69,123.0,25,M,up,0.8319117000210099,0.3116169873049213,,psi_staircase_training,emotion,,105.09312712947788,105.09312712947788,19.865665207911565,452.34571530000534,171,23,female,True,4523,4531,False,False,expiration,expiration
70,88.0,25,M,down,1.1115590000117663,1.4544455152471552,,psi_staircase_training,emotion,,104.28083895109032,104.28083895109032,18.53428269632403,454.97897580001154,171,23,female,True,4549,4560,False,False,inspiration,inspiration
71,90.0,25,M,down,2.22342349999235,0.3394270333227578,,psi_staircase_training,emotion,,105.11804039012837,105.11804039012837,17.239885735810596,456.76223880000185,171,23,female,True,4567,4589,False,False,expiration,expiration
72,121.0,25,M,up,0.799907999986317,1.2780446000407495,,psi_staircase_training,emotion,,105.81201532377138,105.81201532377138,16.12045600511083,460.62875610002084,171,23,female,True,4605,4613,False,False,expiration,inspiration
73,92.0,25,F,down,0.930629999988014,0.7423400493172386,,psi_staircase_training,emotion,,105.16021928073287,105.16021928073287,15.042982514770506,462.51203010001336,171,23,female,True,4624,4633,False,False,expiration,expiration
74,118.0,25,F,down,0.9088217000244184,1.1663157437649856,,psi_staircase_training,emotion,,105.7661785106263,105.7661785106263,14.123525074503188,464.9618177000084,171,23,female,True,4649,4658,False,False,inspiration,peak
75,127.0,25,F,up,0.4831683000084013,0.5279867324810549,,psi_staircase_training,emotion,,108.40801433822512,108.40801433822512,17.949187615361183,466.7285321000089,171,23,female,True,4666,4671,False,False,expiration,expiration
76,125.0,25,M,up,0.7991559999936726,1.51385163240842,,psi_staircase_training,emotion,,107.84863523310496,107.84863523310496,16.904813415768064,469.07845560001437,171,23,female,True,4690,4698,False,False,peak,expiration
77,92.0,25,M,down,0.6962417000031564,1.2707350455541242,,psi_staircase_training,emotion,,107.37633018347604,107.37633018347604,16.00482452425042,471.4783836000133,171,23,female,True,4714,4721,False,False,trough,inspiration
78,94.0,25,F,down,1.1513508000061847,0.4442657343111995,,psi_staircase_training,emotion,,107.88060550256228,107.88060550256228,15.177021343843634,472.9783119000203,171,23,female,True,4729,4741,False,False,expiration,expiration
79,123.0,25,F,up,0.5190800999989733,0.4285330039671986,,psi_staircase_training,emotion,,108.35148580431387,108.35148580431387,14.44986533974281,474.9115692000196,171,23,female,True,4748,4753,False,False,inspiration,inspiration
80,96.0,25,M,down,1.0791889999818522,0.8743297426735133,,psi_staircase_training,emotion,,107.93797160747486,107.93797160747486,13.762980430561054,476.6614702000225,171,23,female,True,4766,4777,False,False,expiration,expiration
81,97.0,25,M,down,1.0012092999822926,0.4321200636036704,,psi_staircase_training,emotion,,108.40040509091101,108.40040509091101,13.162206517135596,478.51143850001966,171,23,female,True,4784,4794,False,False,inspiration,expiration
82,0.29,25,up,up,0.6755234999873211,1.3708534461970416,,psi_staircase,cRDM,,0.25,0.25693124029946324,0.10500000000000002,521.2931133000238,171,23,female,True,5212,5219,False,False,expiration,expiration
83,0.25,25,up,up,1.014558900002157,0.7611992649539331,,psi_staircase,cRDM,,0.21910266653183127,0.2260132002683493,0.10468632033873933,522.993057100015,171,23,female,True,5229,5239,False,False,inspiration,expiration
84,0.21,25,down,down,0.6736479999963194,1.3172279664341846,,psi_staircase,cRDM,,0.1900540959403307,0.19684979615540016,0.10294672984249993,525.592948000005,171,23,female,True,5255,5262,False,False,expiration,inspiration
85,0.18,25,down,down,0.6400931999960449,1.1779329426112437,,psi_staircase,cRDM,,0.1635257589279754,0.1701521334256793,0.100381647756865,527.7095561000168,171,23,female,True,5276,5282,False,False,expiration,expiration
86,0.15,25,up,up,0.4348115999891888,0.7332022418664543,,psi_staircase,cRDM,,0.14018955742449365,0.14660133511875031,0.0971307628663642,529.3428278000209,171,23,female,True,5292,5296,False,False,expiration,inspiration
87,0.13,25,down,down,0.826208200014662,1.6766970829191612,,psi_staircase,cRDM,,0.11987606021454796,0.12605547676183335,0.09361076941961036,531.7094057000068,171,23,female,True,5316,5324,False,False,expiration,expiration
88,0.11,25,up,up,0.4856712000037078,1.8363146666532495,,psi_staircase,cRDM,,0.10257735236965487,0.10849103445698656,0.08958521019937955,534.642937800003,171,23,female,True,5346,5351,False,False,expiration,expiration
89,0.09,25,down,down,0.5573868000064977,1.1338434406176028,,psi_staircase,cRDM,,0.08784432595859408,0.09348182153209693,0.08540131486476357,536.5092230000008,171,23,female,True,5364,5370,False,False,inspiration,inspiration
90,0.08,25,down,up,0.5417778000119142,1.1549023849474398,,psi_staircase,cRDM,,0.07518520921180863,0.0805556301471181,0.08135545354720439,538.4758838000125,171,23,female,True,5384,5389,False,False,expiration,expiration
91,0.13,25,up,down,0.4922376000031363,0.8713213805870849,,psi_staircase,cRDM,,0.1145374077699418,0.12103712105675656,0.09846288191283688,540.1424269000127,171,23,female,True,5401,5406,False,False,inspiration,inspiration
92,0.2,25,down,up,0.5896149000036529,1.6548997428166128,,psi_staircase,cRDM,,0.16369417802888606,0.17147461567943656,0.11786432413417668,542.5590261000034,171,23,female,True,5425,5431,False,False,expiration,expiration
93,0.3,25,down,down,0.7087627000000793,1.7069840670537124,,psi_staircase,cRDM,,0.2302025415992223,0.23887160341210656,0.13132591729987175,545.1089091000031,171,23,female,True,5450,5457,False,False,expiration,expiration
94,0.27,25,down,up,0.5531094000034499,1.6484374245376683,,psi_staircase,cRDM,,0.21173537047355195,0.22035308793140254,0.13054811173468994,547.7254812000028,171,23,female,True,5476,5482,False,False,inspiration,expiration
95,0.34,25,up,down,0.5692742000101134,1.4329911365028145,,psi_staircase,cRDM,,0.2827121225222031,0.2917537000166316,0.13696908430494206,549.9754426,171,23,female,True,5499,5505,False,False,trough,inspiration
96,0.41,25,up,up,1.41941780000343,1.4204776498178078,,psi_staircase,cRDM,,0.3523274220933193,0.36106033560842826,0.13229319421481345,552.2253018000047,171,23,female,True,5521,5535,False,False,expiration,expiration
97,0.39,25,down,down,0.6630897000140976,1.7412459326100025,,psi_staircase,cRDM,,0.3377208306824911,0.34664235273384303,0.13515038794203987,555.6585395000002,171,23,female,True,5556,5563,False,False,expiration,expiration
98,0.38,25,down,down,0.9152371000091079,1.2306261744707412,,psi_staircase,cRDM,,0.3230570261911805,0.33213877945806936,0.13757769920300847,557.808427000011,171,23,female,True,5577,5586,False,False,inspiration,peak
99,0.34,25,up,up,1.1139996999991126,1.4473868509769412,,psi_staircase,cRDM,,0.3090964290441092,0.31828430564144744,0.13918534072397215,560.4416529000155,171,23,female,True,5603,5614,False,False,expiration,expiration
100,0.33,25,up,up,0.7926472999970429,1.8589461141038932,,psi_staircase,cRDM,,0.2929240125370952,0.30245455737395344,0.1443763546832466,563.6749299000077,171,23,female,True,5636,5644,False,False,expiration,expiration
101,0.33,25,up,up,0.8108102000260259,1.5435756935916671,,psi_staircase,cRDM,,0.27733481145832106,0.28712751827263033,0.14834779506664858,566.2748320000246,171,23,female,True,5662,5670,False,False,inspiration,inspiration
102,0.32,25,up,up,0.8319141000101808,1.4704764298690691,,psi_staircase,cRDM,,0.2631571625836616,0.27309904576721555,0.15060763862912185,568.824717600015,171,23,female,True,5687,5695,False,False,expiration,expiration
103,0.32,25,down,up,1.1026859999983571,0.7880042004821824,,psi_staircase,cRDM,,0.25006640234943034,0.2600909363016933,0.15185969891551987,570.7079590000213,171,23,female,True,5706,5717,False,False,expiration,inspiration
104,0.35000000000000003,25,down,up,0.6561082999978679,1.9370723499114808,,psi_staircase,cRDM,,0.2990569469509233,0.3090395948063976,0.15122517464961746,574.0245167000102,171,23,female,True,5739,5746,False,False,expiration,expiration
105,0.4,25,down,down,0.7521647999819834,1.2624738494581278,,psi_staircase,cRDM,,0.34207610273178685,0.3516656983315786,0.1452709031103865,576.224440400023,171,23,female,True,5761,5769,False,False,inspiration,expiration
106,0.4,25,up,up,0.5159845000016503,1.7753946911751084,,psi_staircase,cRDM,,0.33296951440329275,0.3425016936226719,0.14440111362353422,579.0076511000225,171,23,female,True,5789,5794,False,False,expiration,inspiration
107,0.34,25,up,up,0.6924053000111599,1.840536036814544,,psi_staircase,cRDM,,0.3249667287765037,0.33437757852255023,0.14256311722613407,581.6242331000102,171,23,female,True,5815,5822,False,False,expiration,expiration
108,0.34,25,down,up,0.6117924999853129,0.8228353475760628,,psi_staircase,cRDM,,0.313248802030394,0.3230740591499424,0.14884089325722433,583.3908336000168,171,23,female,True,5833,5839,False,False,inspiration,inspiration
109,0.4,25,down,up,0.53051989999949,1.0289744985694909,,psi_staircase,cRDM,,0.3464899809731077,0.3554159829852793,0.13521825398992374,585.2741049000177,171,23,female,True,5852,5857,False,False,expiration,expiration
110,0.43,25,up,up,0.6065455999923871,1.7984136483038295,,psi_staircase,cRDM,,0.3760980639185811,0.3860732149704043,0.15111160704131732,587.8740591000243,171,23,female,True,5878,5884,False,False,expiration,expiration
111,0.43,25,up,up,0.5696891999978106,1.942777519447048,,psi_staircase,cRDM,,0.368807774146548,0.3787638235902869,0.15082224052649626,590.6739694999998,171,23,female,True,5906,5912,False,False,inspiration,peak
112,0.43,25,down,up,0.5748131999862379,1.0244298761582606,,psi_staircase,cRDM,,0.3621392776906851,0.3720158913098223,0.14961888279788987,592.5238310999994,171,23,female,True,5924,5930,False,False,expiration,expiration
113,0.44,25,up,up,0.5468313000164926,0.7016153847794901,,psi_staircase,cRDM,,0.389930999972144,0.4003829582263313,0.15833466584251166,594.0737835000036,171,23,female,True,5940,5945,False,False,inspiration,inspiration
114,0.42,25,down,down,0.4518805000116117,0.8277345645524135,,psi_staircase,cRDM,,0.38331614717582496,0.39382098814100697,0.15913577566045806,595.7237072999998,171,23,female,True,5956,5961,False,False,expiration,expiration
115,0.42,25,up,up,0.4766843000252266,1.1583753780156634,,psi_staircase,cRDM,,0.3762858857543365,0.3868683168706556,0.1603111736437059,597.6069819000259,171,23,female,True,5975,5980,False,False,inspiration,inspiration
116,0.42,25,down,down,0.6034453999891412,1.6889104427948838,,psi_staircase,cRDM,,0.3695543263844521,0.3801677708211701,0.1607809883523565,600.0401919000143,171,23,female,True,5999,6005,False,False,expiration,expiration
117,0.42,25,up,up,0.4467940000176896,0.3955250627295388,,psi_staircase,cRDM,,0.36313504110606,0.3737430426620279,0.16069853521928495,601.3068439000052,171,23,female,True,6012,6016,False,False,inspiration,inspiration
118,0.42,25,down,down,0.4170280999969691,0.8754933060692562,,psi_staircase,cRDM,,0.35704033733632634,0.3676140805541589,0.16017956237333025,602.9067765000217,171,23,female,True,6028,6032,False,False,expiration,expiration
119,0.38,25,up,up,0.5532067999884019,1.7744561646020955,,psi_staircase,cRDM,,0.3512819217682035,0.3617982297906465,0.1593094878620818,605.3733955000063,171,23,female,True,6053,6059,False,False,expiration,expiration
120,0.39,25,up,down,1.2863331999978982,0.5342488839335271,,psi_staircase,cRDM,,0.34432040653537743,0.3549195070153027,0.16056369456392086,606.7232898000219,171,23,female,True,6066,6079,False,False,expiration,inspiration
121,0.44,25,down,up,0.541459300002316,1.8385944915291899,,psi_staircase,cRDM,,0.3675025727830136,0.37807221100589183,0.16011737660980468,610.1231793000188,171,23,female,True,6100,6105,False,False,expiration,trough
122,0.45,25,down,up,0.4218265999807045,0.9498270434695092,,psi_staircase,cRDM,,0.389197331321337,0.4001933535986079,0.16657658503094308,611.8897859000135,171,23,female,True,6118,6122,False,False,expiration,expiration
123,0.44,25,down,up,0.6445514000079129,1.1953736230356489,,psi_staircase,cRDM,,0.4089924930290129,0.42006237520963424,0.1676954742220139,613.7730521000049,171,23,female,True,6137,6143,False,False,inspiration,inspiration
124,0.44,25,up,up,0.8902949999901466,0.7362385598235419,,psi_staircase,cRDM,,0.42522023699491307,0.4360677125149704,0.16432627933765545,615.406320900016,171,23,female,True,6153,6162,False,False,expiration,expiration
125,0.44,25,up,down,0.8937035999842919,0.4607710284354506,,psi_staircase,cRDM,,0.4205965430116836,0.43159572148689695,0.16662439765460696,617.0229036000093,171,23,female,True,6169,6178,False,False,trough,inspiration
126,0.44,25,down,down,1.1747897999885026,1.9936607794929275,,psi_staircase,cRDM,,0.4343771132196397,0.4450524036873592,0.1617178817472758,620.1728064000199,171,23,female,True,6201,6213,False,False,expiration,inspiration
127,0.44,25,down,down,0.8719194000004791,0.9280333272142698,,psi_staircase,cRDM,,0.43016419885528795,0.4410394139163328,0.1647465002040304,622.5227168000129,171,23,female,True,6224,6233,False,False,expiration,expiration
128,0.44,25,down,down,1.1253126000228804,1.164304375965029,,psi_staircase,cRDM,,0.4260010465606821,0.4370229839935344,0.1669691686405842,624.8393050000012,171,23,female,True,6248,6259,False,False,expiration,expiration
129,0.44,25,up,up,0.4803653000271879,0.8159975899583185,,psi_staircase,cRDM,,0.421872677466004,0.4330008805609705,0.16857896631602298,627.0392338000237,171,23,female,True,6270,6275,False,False,inspiration,inspiration
130,0.52,25,up,up,0.8634651000029407,0.5557636555998839,,psi_staircase,cRDM,,0.4177674457144209,0.428971436200678,0.16972705464389765,628.3391694000164,171,23,female,True,6283,6292,False,False,expiration,expiration
131,0.44,25,up,down,0.8548197999771219,0.9495425197805432,,psi_staircase,cRDM,,0.41527409673068894,0.42639156447640797,0.16841633861560065,630.405770900019,171,23,female,True,6303,6312,False,False,inspiration,expiration
132,100.0,25,M,down,0.8278446000185795,1.8738195257712515,,psi_staircase,emotion,,100.0,100.0,25.00050000000001,641.0387615000072,171,23,female,True,6409,6417,False,False,inspiration,inspiration
133,145.0,25,M,up,0.5272756000049412,0.8790205331364955,,psi_staircase,emotion,,145.25719053245996,145.25719053245996,25.000500000000283,643.1053706000092,171,23,female,True,6430,6435,False,False,expiration,expiration
134,121.0,25,F,up,0.6383104999840725,0.9351436426417012,,psi_staircase,emotion,,120.36392901436103,120.36392901436103,25.71326925488699,644.9053095000272,171,23,female,True,6448,6454,False,False,inspiration,expiration
135,97.0,25,F,down,0.6446750999893993,0.9356996798881608,,psi_staircase,emotion,,102.38876106084959,102.38876106084959,26.14633372628729,646.8219089000195,171,23,female,True,6467,6473,False,False,expiration,trough
136,113.0,25,M,down,0.7657972000015434,0.9295183332329452,,psi_staircase,emotion,,114.01123255420406,114.01123255420406,23.003056417783352,648.7218208000123,171,23,female,True,6486,6494,False,False,expiration,expiration
137,127.0,25,F,up,0.4708660999895074,1.9283233016992527,,psi_staircase,emotion,,123.15505271238727,123.15505271238727,23.86267166612523,651.7717292000016,171,23,female,True,6517,6522,False,False,peak,expiration
138,117.0,25,M,up,1.0783190000220202,1.5365777816488817,,psi_staircase,emotion,,116.72664759921038,116.72664759921038,20.612160618334435,654.1382825000037,171,23,female,True,6540,6551,False,False,trough,peak
139,107.0,25,F,down,1.336428300011903,0.7922292101827658,,psi_staircase,emotion,,111.41772370799677,111.41772370799677,20.39996786109954,656.3381966000015,171,23,female,True,6562,6575,False,False,expiration,expiration
140,121.0,25,F,up,0.8101290999911726,0.3946853310064964,,psi_staircase,emotion,,115.12544219306379,115.12544219306379,17.30223446310546,658.4214847000258,171,23,female,True,6583,6591,False,False,inspiration,expiration
141,110.0,25,M,up,0.8405108000151813,0.37427123260795214,,psi_staircase,emotion,,112.91211428675945,112.91211428675945,14.506259469189038,659.9550834000112,171,23,female,True,6599,6607,False,False,expiration,expiration
142,97.0,25,F,down,0.7385895999905188,0.7606572186761533,,psi_staircase,emotion,,108.16912828420608,108.16912828420608,20.701504805865053,661.887996800011,171,23,female,True,6618,6625,False,False,inspiration,expiration
143,99.0,25,F,down,1.1020492000097877,1.9407596459425092,,psi_staircase,emotion,,110.48565107717579,110.48565107717579,17.85905415464157,664.9045651000051,171,23,female,True,6648,6659,False,False,inspiration,expiration
144,122.0,25,F,up,0.7158294999971986,1.1338780316008557,,psi_staircase,emotion,,111.9240612467726,111.9240612467726,15.535427561120969,667.4878046000084,171,23,female,True,6674,6681,False,False,inspiration,inspiration
145,102.0,25,M,down,0.9706095999863464,1.1614577750247628,,psi_staircase,emotion,,110.81740819445251,110.81740819445251,13.501137028403065,669.7210428000252,171,23,female,True,6696,6706,False,False,expiration,inspiration
146,120.0,25,M,up,0.5612914999946952,1.6530586130477258,,psi_staircase,emotion,,111.8047904452042,111.8047904452042,11.649785908980045,672.7043029000051,171,23,female,True,6726,6732,False,False,expiration,expiration
147,105.0,25,F,down,0.8317497000098228,1.6438212027430854,,psi_staircase,emotion,,111.05536873994312,111.05536873994312,10.110952210529916,675.2708676000184,171,23,female,True,6752,6760,False,False,expiration,expiration
148,114.0,25,F,down,0.8102330999972764,1.8467173600371265,,psi_staircase,emotion,,111.82529339361184,111.82529339361184,8.792342862196133,678.2873976000119,171,23,female,True,6782,6790,False,False,expiration,expiration
149,121.0,25,M,up,1.3712833999888971,1.6927066213852442,,psi_staircase,emotion,,113.57216496085545,113.57216496085545,9.950029704313362,681.1543075000227,171,23,female,True,6811,6825,False,False,inspiration,expiration
150,108.0,25,M,down,0.8050873999891337,1.340995803529854,,psi_staircase,emotion,,113.02456956765806,113.02456956765806,8.657542290108669,684.2205213000125,171,23,female,True,6841,6849,False,False,inspiration,expiration
151,113.0,25,M,down,0.8104907000088133,1.011033514757694,,psi_staircase,emotion,,113.61553435696581,113.61553435696581,7.667445518636622,686.3871136000089,171,23,female,True,6863,6871,False,False,expiration,expiration
152,113.0,25,M,down,1.0666625000012573,1.5114215804496387,,psi_staircase,emotion,,114.5520736405388,114.5520736405388,7.2944588198921645,689.0369960000098,171,23,female,True,6889,6900,False,False,expiration,expiration
153,114.0,25,F,down,0.8397186000074726,1.6244240820355558,,psi_staircase,emotion,,115.25756423349523,115.25756423349523,6.676388358676549,692.053892900003,171,23,female,True,6920,6928,False,False,peak,expiration
154,118.0,25,F,down,0.9344513000105508,0.8100276173384109,,psi_staircase,emotion,,115.90002729132445,115.90002729132445,6.106961602890194,694.0701655000157,171,23,female,True,6940,6949,False,False,expiration,inspiration
155,124.0,25,F,up,0.8005702999944333,1.7636490768236146,,psi_staircase,emotion,,117.2658990056685,117.2658990056685,8.995165879196195,697.1200439000095,171,23,female,True,6970,6978,False,False,expiration,inspiration
156,123.0,25,M,up,0.6172997999819927,1.3256659048702135,,psi_staircase,emotion,,116.68550645231072,116.68550645231072,7.663420164839187,699.6032974000262,171,23,female,True,6995,7001,False,False,expiration,expiration
157,114.0,25,M,down,1.0016859000024851,0.4336525195190857,,psi_staircase,emotion,,116.31840148447486,116.31840148447486,6.694766234122839,700.9699008000024,171,23,female,True,7009,7019,False,False,expiration,inspiration
158,114.0,25,F,up,0.7154981000057887,0.6520650807375321,,psi_staircase,emotion,,116.7736618277352,116.7736618277352,6.110508656037724,702.9531521000026,171,23,female,True,7029,7036,False,False,expiration,expiration
159,123.0,25,F,down,0.8488701000169385,1.1242288346416502,,psi_staircase,emotion,,115.8965064375207,115.8965064375207,7.61122868816648,705.1197604000045,171,23,female,True,7050,7058,False,False,inspiration,peak
160,129.0,25,M,down,0.7982772999966983,1.5238677714817912,,psi_staircase,emotion,,117.37342584551337,117.37342584551337,11.738847596688025,707.8363149000215,171,23,female,True,7077,7085,False,False,expiration,inspiration
161,137.0,25,M,up,0.7649643000040669,0.3881448705258125,,psi_staircase,emotion,,119.94114864606823,119.94114864606823,18.860026842786485,709.3696130000171,171,23,female,True,7093,7101,False,False,peak,expiration
162,136.0,25,F,up,0.7257182000030298,0.6113938783686246,,psi_staircase,emotion,,119.21806883350708,119.21806883350708,17.206137093213044,711.1028684000194,171,23,female,True,7110,7117,False,False,expiration,inspiration
163,135.0,25,M,up,0.7001345000171568,1.9816523601650096,,psi_staircase,emotion,,118.67356890082857,118.67356890082857,15.811258091457784,714.1694343000128,171,23,female,True,7141,7148,False,False,expiration,expiration
164,134.0,25,F,up,0.5992550000082701,1.751812423914075,,psi_staircase,emotion,,118.25983900222704,118.25983900222704,14.641516169188874,716.9693278000051,171,23,female,True,7169,7175,False,False,inspiration,inspiration
165,133.0,25,M,up,0.5966859000036493,1.229196745044751,,psi_staircase,emotion,,117.93972862857832,117.93972862857832,13.660384764476571,719.1528986000047,171,23,female,True,7191,7197,False,False,expiration,expiration
166,132.0,25,F,up,0.6004498000256717,1.46567963925019,,psi_staircase,emotion,,117.68540813246041,117.68540813246041,12.833501544470488,721.5691592000077,171,23,female,True,7215,7221,False,False,expiration,expiration
167,104.0,25,M,up,0.4992198999971152,1.6303044946307337,,psi_staircase,emotion,,117.47648771212722,117.47648771212722,12.130929457377682,724.1523950000119,171,23,female,True,7241,7246,False,False,expiration,inspiration
168,98.0,25,F,down,0.8350026999833062,1.420084485843417,,psi_staircase,emotion,,116.13387145166887,116.13387145166887,16.324066818572117,726.435595500021,171,23,female,True,7264,7272,False,False,expiration,expiration
169,99.0,25,M,down,0.7290908000140917,1.8096553142578689,,psi_staircase,emotion,,116.40707244974114,116.40707244974114,15.452633672896988,729.4355139000107,171,23,female,True,7294,7301,False,False,expiration,expiration
170,133.0,25,M,up,0.4701262000016868,0.654685504784883,,psi_staircase,emotion,,116.63219374238422,116.63219374238422,14.699953666787223,731.1854830000084,171,23,female,True,7311,7316,False,False,expiration,inspiration
171,100.0,25,F,down,0.7578559999819845,1.1163068459593195,,psi_staircase,emotion,,116.42506990103615,116.42506990103615,14.032379237136052,733.1187123000274,171,23,female,True,7330,7338,False,False,expiration,expiration
172,132.0,25,F,up,0.793336000002455,1.026077452656,,psi_staircase,emotion,,116.61602334300741,116.61602334300741,13.441372574532863,735.2352933000075,171,23,female,True,7351,7359,False,False,inspiration,peak
173,102.0,25,F,down,0.6956848999834621,0.5303087487329361,,psi_staircase,emotion,,116.4339277409295,116.4339277409295,12.913608107200231,736.9019307000273,171,23,female,True,7368,7375,False,False,expiration,expiration
174,131.0,25,M,up,0.6691247999842744,1.816564190654996,,psi_staircase,emotion,,116.61800806415476,116.61800806415476,12.431407678466062,739.7684908000227,171,23,female,True,7397,7404,False,False,expiration,expiration
175,103.0,25,M,down,0.8842053999833297,1.088077371227214,,psi_staircase,emotion,,116.45197463022505,116.45197463022505,12.007309736075277,741.8684137000238,171,23,female,True,7418,7427,False,False,inspiration,expiration
176,129.0,25,F,up,1.1289373000035994,1.6494115809141094,,psi_staircase,emotion,,116.62130161886829,116.62130161886829,11.616476807341545,744.7516262000136,171,23,female,True,7447,7458,False,False,inspiration,expiration
177,104.0,25,F,down,0.8148051000025589,1.8023159819769277,,psi_staircase,emotion,,116.44784562422363,116.44784562422363,11.256529146168337,748.034822000016,171,23,female,True,7480,7488,False,False,inspiration,expiration
178,128.0,25,F,up,0.7255064999917522,1.0706847762643574,,psi_staircase,emotion,,116.60876271346537,116.60876271346537,10.930497868158096,750.2680958000128,171,23,female,True,7502,7509,False,False,inspiration,inspiration
179,105.0,25,M,up,0.9459228000196164,1.234841891127,,psi_staircase,emotion,,116.44064944978727,116.44064944978727,10.625417708185864,752.5846931000124,171,23,female,True,7525,7534,False,False,expiration,expiration
180,101.0,25,M,up,1.1537069999903906,1.23727228846876,,psi_staircase,emotion,,115.5167142836232,115.5167142836232,12.2713288399564,755.1179014000228,171,23,female,True,7550,7562,False,False,trough,peak
181,97.0,25,M,down,1.212480400019558,1.5990638177065066,,psi_staircase,emotion,,114.50386953852819,114.50386953852819,14.576233385638961,758.2011350000103,171,23,female,True,7581,7593,False,False,expiration,inspiration
182,0.42841695155632703,25,down,down,0.7335114000015892,1.339434554376976,,experiment,cRDM,0.0,,,,766.9340642000025,171,23,female,True,7669,7676,False,False,expiration,expiration
183,0.42841695155632703,25,up,up,0.5122991000243928,1.9860514013786348,,experiment,cRDM,0.0,,,,769.9172805999988,171,23,female,True,7698,7703,False,False,inspiration,expiration
184,0.42841695155632703,25,down,down,0.4900500000221655,1.266469580974977,,experiment,cRDM,0.0,,,,771.9505674000247,171,23,female,True,7719,7724,False,False,expiration,inspiration
185,0.42841695155632703,25,up,up,0.473813099990366,1.8381565680302536,,experiment,cRDM,0.0,,,,774.5337890000083,171,23,female,True,7745,7750,False,False,expiration,expiration
186,0.42841695155632703,25,down,down,0.6381613999838011,0.4158186897074216,,experiment,cRDM,0.0,,,,775.7004170000147,171,23,female,True,7756,7762,False,False,expiration,inspiration
187,0.42841695155632703,25,down,up,0.2838351000100374,0.7346408850841293,,experiment,cRDM,0.0,,,,777.3336643000075,171,23,female,True,7773,7776,False,False,expiration,expiration
188,0.42841695155632703,25,up,up,0.6352696000249125,1.6865820304846486,,experiment,cRDM,0.0,,,,779.7002692000243,171,23,female,True,7796,7802,False,False,trough,inspiration
189,0.42841695155632703,25,down,down,0.7247969000018202,1.8195331662558467,,experiment,cRDM,0.0,,,,782.4168397000177,171,23,female,True,7823,7830,False,False,expiration,inspiration
190,0.42841695155632703,25,up,up,0.4169059999985621,1.8575784483037936,,experiment,cRDM,0.0,,,,785.2667717000003,171,23,female,True,7852,7856,False,False,expiration,expiration
191,0.42841695155632703,25,up,down,0.3838365999981761,1.8697004770437708,,experiment,cRDM,0.0,,,,787.8165879000153,171,23,female,True,7877,7881,False,False,expiration,expiration
192,0.42841695155632703,25,down,down,0.5797383000026457,1.1613265657052785,,experiment,cRDM,0.0,,,,789.6498821999994,171,23,female,True,7896,7902,False,False,inspiration,expiration
193,0.42841695155632703,25,up,up,0.39998009998817,1.0633883081514413,,experiment,cRDM,0.0,,,,791.5501601000142,171,23,female,True,7915,7919,False,False,expiration,expiration
194,0.42841695155632703,25,up,up,0.6201937999867368,0.43718914112931,,experiment,cRDM,0.0,,,,792.666454900027,171,23,female,True,7926,7932,False,False,inspiration,inspiration
195,0.42841695155632703,25,up,down,1.323868899984518,0.3075925080864108,,experiment,cRDM,0.0,,,,793.8497275000262,171,23,female,True,7938,7951,False,False,expiration,expiration
196,0.42841695155632703,25,down,down,0.9176560999767388,1.1872691419567354,,experiment,cRDM,0.0,,,,796.6329568000218,171,23,female,True,7966,7975,False,False,inspiration,expiration
197,0.42841695155632703,25,down,down,0.7167017000028864,1.270709683129615,,experiment,cRDM,0.0,,,,799.0828896000166,171,23,female,True,7990,7997,False,False,expiration,expiration
198,0.42841695155632703,25,up,up,0.5651416000036988,1.0312137800757617,,experiment,cRDM,0.0,,,,801.0994696000125,171,23,female,True,8010,8016,False,False,inspiration,expiration
199,0.42841695155632703,25,up,up,0.5841309000097681,0.5849626210977051,,experiment,cRDM,0.0,,,,802.4994303000276,171,23,female,True,8024,8030,False,False,expiration,expiration
200,0.42841695155632703,25,down,down,0.5302278000162914,1.7632228543630883,,experiment,cRDM,0.0,,,,805.0993036,171,23,female,True,8050,8055,False,False,expiration,expiration
201,0.42841695155632703,25,down,down,0.8453419999859761,0.6652718547246204,,experiment,cRDM,0.0,,,,806.5492744000221,171,23,female,True,8065,8073,False,False,expiration,trough
202,0.42841695155632703,25,up,up,0.4430915999982972,1.077695448125477,,experiment,cRDM,0.0,,,,808.7325008000189,171,23,female,True,8086,8090,False,False,expiration,expiration
203,0.42841695155632703,25,down,down,0.5541796000034083,0.998939148821734,,experiment,cRDM,0.0,,,,810.4324569000163,171,23,female,True,8103,8109,False,False,expiration,inspiration
204,0.42841695155632703,25,up,up,0.4421932999975979,0.5376861311532379,,experiment,cRDM,0.0,,,,811.7824177000148,171,23,female,True,8117,8121,False,False,inspiration,expiration
205,0.42841695155632703,25,down,down,0.4925221999874338,0.8057618734630663,,experiment,cRDM,0.0,,,,813.2990554000135,171,23,female,True,8132,8137,False,False,expiration,expiration
206,0.42841695155632703,25,down,up,1.1019438999937847,1.1544719741926337,,experiment,cRDM,0.0,,,,815.2156360000081,171,23,female,True,8151,8162,False,False,inspiration,expiration
207,0.42841695155632703,25,up,up,0.5530430000217166,1.2245216480022767,,experiment,cRDM,0.0,,,,817.8155230000266,171,23,female,True,8177,8183,False,False,expiration,inspiration
208,0.42841695155632703,25,up,up,0.7210609999892768,0.6465001993958225,,experiment,cRDM,0.0,,,,819.2655200000154,171,23,female,True,8192,8199,False,False,expiration,expiration
209,0.42841695155632703,25,down,down,0.6055441999924369,1.6415266927067245,,experiment,cRDM,0.0,,,,821.8820493000093,171,23,female,True,8218,8224,False,False,inspiration,inspiration
210,0.42841695155632703,25,up,up,0.4999211000103969,0.5315513266557246,,experiment,cRDM,0.0,,,,823.2986498000099,171,23,female,True,8232,8237,False,False,expiration,expiration
211,0.42841695155632703,25,down,down,0.5226163000043016,0.6094726529079104,,experiment,cRDM,0.0,,,,824.6819581000017,171,23,female,True,8246,8251,False,False,inspiration,inspiration
212,0.42841695155632703,25,up,up,0.611037499998929,1.4787961350821006,,experiment,cRDM,0.0,,,,826.94850530001,171,23,female,True,8269,8275,False,False,expiration,expiration
213,0.42841695155632703,25,down,down,0.9947945000021718,1.2182652855299032,,experiment,cRDM,0.0,,,,829.0317807000247,171,23,female,True,8289,8299,False,False,inspiration,expiration
214,0.42841695155632703,25,up,up,0.5858603999949992,0.7053122204210689,,experiment,cRDM,0.0,,,,830.9817041000059,171,23,female,True,8309,8315,False,False,expiration,inspiration
215,0.42841695155632703,25,down,down,0.4642716999805998,1.3298974444036338,,experiment,cRDM,0.0,,,,833.1482981000154,171,23,female,True,8331,8336,False,False,expiration,expiration
216,0.42841695155632703,25,up,up,0.7557336000027135,1.8286719147434949,,experiment,cRDM,0.0,,,,835.7148604000104,171,23,female,True,8356,8364,False,False,expiration,expiration
217,0.42841695155632703,25,down,down,1.0121469000005163,1.898823517290584,,experiment,cRDM,0.0,,,,838.6314424000158,171,23,female,True,8385,8395,False,False,peak,expiration
218,0.42841695155632703,25,up,up,0.5445577000209596,1.3927584075986483,,experiment,cRDM,0.0,,,,841.2980061999988,171,23,female,True,8412,8417,False,False,inspiration,inspiration
219,0.42841695155632703,25,down,down,0.7139419000013731,1.3468814703152892,,experiment,cRDM,0.0,,,,843.4646192000073,171,23,female,True,8434,8441,False,False,expiration,inspiration
220,0.42841695155632703,25,up,up,0.6530567000154406,1.8296671168723369,,experiment,cRDM,0.0,,,,846.2645207000023,171,23,female,True,8462,8469,False,False,expiration,inspiration
221,0.42841695155632703,25,down,down,0.7502587999915704,1.0340842418039395,,experiment,cRDM,0.0,,,,848.2144146000211,171,23,female,True,8481,8489,False,False,expiration,expiration
222,0.42841695155632703,25,down,down,0.7282163999916519,1.5440426273574213,,experiment,cRDM,0.0,,,,850.7643644000053,171,23,female,True,8507,8514,False,False,inspiration,expiration
223,0.42841695155632703,25,up,up,0.6277261000068393,0.4700771244825969,,experiment,cRDM,0.0,,,,852.2309390000011,171,23,female,True,8522,8528,False,False,expiration,trough
224,0.42841695155632703,25,down,down,0.491314799990505,0.9420561464654348,,experiment,cRDM,0.0,,,,854.0642036000207,171,23,female,True,8540,8545,False,False,expiration,expiration
225,0.42841695155632703,25,up,up,1.017442000011215,1.0566191217342051,,experiment,cRDM,0.0,,,,855.8641238000129,171,23,female,True,8558,8568,False,False,expiration,inspiration
226,0.42841695155632703,25,up,up,0.5645174999954179,1.273825531639066,,experiment,cRDM,0.0,,,,858.4140474000013,171,23,female,True,8583,8589,False,False,expiration,inspiration
227,0.42841695155632703,25,down,down,0.5992885000014212,1.2646439984945448,,experiment,cRDM,0.0,,,,860.497292300017,171,23,female,True,8604,8610,False,False,expiration,expiration
228,0.42841695155632703,25,down,down,0.5186522999720182,1.6014263647300064,,experiment,cRDM,0.0,,,,862.9639105000242,171,23,female,True,8629,8634,False,False,inspiration,expiration
229,0.42841695155632703,25,up,up,0.6670996000175364,0.4769913118709813,,experiment,cRDM,0.0,,,,864.2304692000033,171,23,female,True,8641,8648,False,False,expiration,expiration
230,0.42841695155632703,25,down,down,0.6304548000043724,0.3745660819518631,,experiment,cRDM,0.0,,,,865.5471102000156,171,23,female,True,8655,8661,False,False,inspiration,inspiration
231,0.42841695155632703,25,up,up,0.5648197999980766,0.5220716723558771,,experiment,cRDM,0.0,,,,866.9637736000003,171,23,female,True,8669,8675,False,False,expiration,expiration
232,0.42841695155632703,25,up,up,0.7709715999953914,1.712967207762169,,experiment,cRDM,0.0,,,,869.513609400019,171,23,female,True,8694,8702,False,False,expiration,expiration
233,0.42841695155632703,25,up,up,0.6876621000119485,1.994390364143531,,experiment,cRDM,0.0,,,,872.546897400025,171,23,female,True,8725,8732,False,False,expiration,expiration
234,0.42841695155632703,25,up,up,1.2488002000027336,1.7615958109601806,,experiment,cRDM,0.0,,,,875.2467844000203,171,23,female,True,8752,8764,False,False,expiration,expiration
235,0.42841695155632703,25,up,up,0.5502801999973599,1.7635562420867188,,experiment,cRDM,0.0,,,,878.5132833000098,171,23,female,True,8784,8790,False,False,inspiration,expiration
236,0.42841695155632703,25,down,down,0.9543802000116556,0.3289768923375758,,experiment,cRDM,0.0,,,,879.6632481999986,171,23,female,True,8796,8806,False,False,expiration,expiration
237,0.42841695155632703,25,down,down,1.013727099983953,1.1071651608541768,,experiment,cRDM,0.0,,,,881.97983690002,171,23,female,True,8819,8829,False,False,peak,expiration
238,0.42841695155632703,25,down,down,0.9908226999978068,1.3329571823280766,,experiment,cRDM,0.0,,,,884.5797402000171,171,23,female,True,8845,8855,False,False,inspiration,expiration
239,0.42841695155632703,25,up,up,0.7799127000034787,1.252683653905179,,experiment,cRDM,0.0,,,,887.0796487000189,171,23,female,True,8870,8878,False,False,expiration,inspiration
240,0.42841695155632703,25,down,down,0.43799009997746907,0.8642828552324393,,experiment,cRDM,0.0,,,,888.9795767000177,171,23,female,True,8889,8893,False,False,expiration,expiration
241,0.42841695155632703,25,down,up,0.6235010999953374,0.4151587484373496,,experiment,cRDM,0.0,,,,890.0962177000183,171,23,female,True,8900,8906,False,False,expiration,inspiration
242,0.42841695155632703,25,down,down,0.8187669000180904,1.2803076912564209,,experiment,cRDM,0.0,,,,892.2627855000028,171,23,female,True,8922,8930,False,False,expiration,expiration
243,0.42841695155632703,25,up,up,0.4908585999801289,1.7281428696506091,,experiment,cRDM,0.0,,,,895.0627017000224,171,23,female,True,8950,8955,False,False,inspiration,expiration
244,0.42841695155632703,25,down,down,0.9482873999804724,0.413094951166286,,experiment,cRDM,0.0,,,,896.2292709000177,171,23,female,True,8962,8971,False,False,expiration,inspiration
245,0.42841695155632703,25,up,up,0.6236138999811374,0.902136059036438,,experiment,cRDM,0.0,,,,898.3459423000168,171,23,female,True,8983,8989,False,False,inspiration,inspiration
246,0.42841695155632703,25,up,up,0.8443904000159819,0.792521351668108,,experiment,cRDM,0.0,,,,900.0291679000075,171,23,female,True,9000,9008,False,False,expiration,expiration
247,0.42841695155632703,25,down,down,0.6655015999858733,0.8936422242652144,,experiment,cRDM,0.0,,,,902.0290810000153,171,23,female,True,9020,9027,False,False,expiration,expiration
248,0.42841695155632703,25,up,up,0.5079114000254776,1.9789233723038584,,experiment,cRDM,0.0,,,,904.9457018000247,171,23,female,True,9049,9054,False,False,expiration,expiration
249,0.42841695155632703,25,down,down,0.4459133999771439,0.8233576190543421,,experiment,cRDM,0.0,,,,906.5456431000202,171,23,female,True,9065,9069,False,False,expiration,expiration
250,0.42841695155632703,25,up,up,1.1330696999793872,1.2450989503329497,,experiment,cRDM,0.0,,,,908.4955229000187,171,23,female,True,9084,9095,False,False,expiration,expiration
251,0.42841695155632703,25,down,down,0.5784742999821901,1.1103494460742855,,experiment,cRDM,0.0,,,,911.012081200024,171,23,female,True,9109,9115,False,False,inspiration,inspiration
252,0.42841695155632703,25,up,up,0.4471735999977682,1.388192777692708,,experiment,cRDM,0.0,,,,913.2453867000003,171,23,female,True,9132,9136,False,False,expiration,expiration
253,0.42841695155632703,25,down,down,0.5979654999973718,1.9285446175861949,,experiment,cRDM,0.0,,,,915.8785836000169,171,23,female,True,9158,9164,False,False,expiration,expiration
254,0.42841695155632703,25,down,down,0.8063266999961343,0.9003574222310387,,experiment,cRDM,0.0,,,,917.6452165000082,171,23,female,True,9176,9184,False,False,expiration,inspiration
255,0.42841695155632703,25,down,down,1.4654331000056118,0.5360768608565198,,experiment,cRDM,0.0,,,,919.245153100026,171,23,female,True,9192,9207,False,False,expiration,expiration
256,0.42841695155632703,25,down,down,0.9984861999982968,0.5793469145201702,,experiment,cRDM,0.0,,,,921.5450892000226,171,23,female,True,9215,9225,False,False,trough,inspiration
257,0.42841695155632703,25,down,down,1.6979692000022624,0.93082028572824,,experiment,cRDM,0.0,,,,923.7286181000236,171,23,female,True,9237,9254,False,False,expiration,inspiration
258,0.42841695155632703,25,up,up,0.8156595000182278,0.5626783798785191,,experiment,cRDM,0.0,,,,926.2448857999988,171,23,female,True,9262,9270,False,False,inspiration,expiration
259,0.42841695155632703,25,up,down,1.936794799985364,1.9668637969779932,,experiment,cRDM,0.0,,,,929.2947594000143,171,23,female,True,9292,9311,False,False,inspiration,expiration
260,0.42841695155632703,25,up,up,0.7179661999980453,1.9950901444683944,,experiment,cRDM,0.0,,,,933.4946130000172,171,23,female,True,9334,9341,False,False,expiration,expiration
261,0.42841695155632703,25,up,up,0.6990305999934208,1.3164363229501332,,experiment,cRDM,0.0,,,,935.794534100016,171,23,female,True,9357,9364,False,False,inspiration,expiration
262,120.0,25,M,down,1.7357898000045682,0.5895680878706635,,experiment,emotion,0.0,,,,940.4777527000116,171,23,female,True,9404,9421,False,False,expiration,inspiration
263,109.0,25,M,down,0.8899202000175137,0.33647614883721755,,experiment,emotion,0.0,,,,942.8276519000065,171,23,female,True,9428,9437,False,False,expiration,expiration
264,116.0,25,F,down,1.0019614000048025,0.6581613166151026,,experiment,emotion,0.0,,,,944.6775919000212,171,23,female,True,9446,9456,False,False,expiration,inspiration
265,120.0,25,F,down,1.1493863000068814,1.553719141682932,,experiment,emotion,0.0,,,,947.4941652000124,171,23,female,True,9474,9485,False,False,expiration,inspiration
266,116.0,25,M,down,0.7934669000096619,0.7334895620268884,,experiment,emotion,0.0,,,,949.6440872000239,171,23,female,True,9496,9504,False,False,expiration,expiration
267,112.0,25,F,down,0.9215573999972548,1.3801663320439732,,experiment,emotion,0.0,,,,952.0939913000038,171,23,female,True,9520,9529,False,False,peak,expiration
268,109.0,25,M,down,0.7573947999917436,1.2275372700898757,,experiment,emotion,0.0,,,,954.5271469000144,171,23,female,True,9545,9553,False,False,inspiration,expiration
269,112.0,25,M,down,0.6814203999820165,1.5182346070176402,,experiment,emotion,0.0,,,,957.077130700025,171,23,female,True,9570,9577,False,False,inspiration,inspiration
270,120.0,25,F,down,0.7075337000133004,1.7521661778822508,,experiment,emotion,0.0,,,,959.7770348000047,171,23,female,True,9597,9604,False,False,expiration,expiration
271,112.0,25,F,down,0.6852255999983754,0.7995979927605315,,experiment,emotion,0.0,,,,961.5603254000017,171,23,female,True,9615,9622,False,False,inspiration,expiration
272,116.0,25,F,down,0.4943662000005134,1.5346613150804986,,experiment,emotion,0.0,,,,964.0602230000077,171,23,female,True,9640,9645,False,False,expiration,inspiration
273,120.0,25,F,down,0.5087906999979168,1.208876317660334,,experiment,emotion,0.0,,,,966.026792700024,171,23,female,True,9660,9665,False,False,expiration,expiration
274,116.0,25,F,down,0.31684189999941736,1.86463776473084,,experiment,emotion,0.0,,,,968.6767081000144,171,23,female,True,9686,9689,False,False,inspiration,inspiration
275,109.0,25,F,down,0.5532931999769062,1.6557116277945747,,experiment,emotion,0.0,,,,971.0432548000244,171,23,female,True,9710,9716,False,False,expiration,expiration
276,112.0,25,M,up,0.960129399987636,1.5569912349044468,,experiment,emotion,0.0,,,,973.426502700022,171,23,female,True,9733,9743,False,False,expiration,expiration
277,109.0,25,M,down,0.9014492999995128,0.8985010513282881,,experiment,emotion,0.0,,,,975.543139800022,171,23,female,True,9755,9764,False,False,inspiration,inspiration
278,120.0,25,M,down,0.7701570999925025,0.5114888637992079,,experiment,emotion,0.0,,,,977.2263775000174,171,23,female,True,9772,9780,False,False,expiration,expiration
279,109.0,25,M,down,1.1397095000138506,0.6250760954354211,,experiment,emotion,0.0,,,,978.893026500009,171,23,female,True,9788,9799,False,False,inspiration,expiration
280,116.0,25,F,down,0.7186521000112407,1.275187466399752,,experiment,emotion,0.0,,,,981.5929079000197,171,23,female,True,9815,9822,False,False,expiration,inspiration
281,116.0,25,M,down,0.6543812000018079,0.9449143666101498,,experiment,emotion,0.0,,,,983.5261771000224,171,23,female,True,9835,9842,False,False,expiration,expiration
282,112.0,25,M,down,0.6688012000231538,1.0027535152750235,,experiment,emotion,0.0,,,,985.4427523000047,171,23,female,True,9854,9861,False,False,inspiration,peak
283,112.0,25,F,down,0.712879900005646,1.5465061192448477,,experiment,emotion,0.0,,,,987.9426687000087,171,23,female,True,9879,9886,False,False,expiration,inspiration
284,109.0,25,M,down,0.6299384000012651,0.6645443741260939,,experiment,emotion,0.0,,,,989.5925844000012,171,23,female,True,9895,9901,False,False,expiration,expiration
285,120.0,25,F,down,0.6916672000079416,0.6164709889348483,,experiment,emotion,0.0,,,,991.1258763000078,171,23,female,True,9911,9918,False,False,expiration,inspiration
286,116.0,25,F,down,1.5438077999860982,1.9409202397144747,,experiment,emotion,0.0,,,,994.0257597000164,171,23,female,True,9939,9954,False,False,expiration,inspiration
287,109.0,25,M,down,1.1272075999877416,1.0594755184274758,,experiment,emotion,0.0,,,,996.8923396000173,171,23,female,True,9968,9979,False,False,expiration,expiration
288,120.0,25,M,down,1.7329870999965349,0.8304646911997873,,experiment,emotion,0.0,,,,999.125559600012,171,23,female,True,9990,10007,False,False,inspiration,expiration
289,120.0,25,F,down,0.6317335999920033,1.393316665332378,,experiment,emotion,0.0,,,,1002.5088060999988,171,23,female,True,10024,10030,False,False,inspiration,expiration
290,112.0,25,M,down,1.4328108000045177,0.9342045059104512,,experiment,emotion,0.0,,,,1004.3587337000064,171,23,female,True,10043,10057,False,False,expiration,inspiration
291,109.0,25,F,down,1.1172646000050008,1.2101098710307998,,experiment,emotion,0.0,,,,1007.2752972000162,171,23,female,True,10072,10083,False,False,expiration,inspiration
292,112.0,25,F,down,1.0869462999980897,0.4833266241184884,,experiment,emotion,0.0,,,,1009.158599700022,171,23,female,True,10091,10102,False,False,inspiration,expiration
293,116.0,25,F,down,1.2984118000022136,0.7097144195205396,,experiment,emotion,0.0,,,,1011.2251345000113,171,23,female,True,10112,10125,False,False,expiration,expiration
294,109.0,25,M,down,1.1497842999815475,0.6995206070862853,,experiment,emotion,0.0,,,,1013.4917546000216,171,23,female,True,10134,10145,False,False,expiration,inspiration
295,120.0,25,M,down,1.116013999999268,1.2354940155915797,,experiment,emotion,0.0,,,,1016.1415977000142,171,23,female,True,10161,10172,False,False,expiration,expiration
296,116.0,25,M,down,1.2636721000017133,0.506308646680881,,experiment,emotion,0.0,,,,1018.0248693000177,171,23,female,True,10179,10192,False,False,inspiration,expiration
297,120.0,25,F,down,1.211777099990286,0.6623905122203249,,experiment,emotion,0.0,,,,1020.2247964999988,171,23,female,True,10201,10213,False,False,expiration,inspiration
298,109.0,25,F,down,0.6548554000037257,1.201656921695037,,experiment,emotion,0.0,,,,1022.9246881,171,23,female,True,10228,10235,False,False,expiration,expiration
299,116.0,25,M,down,1.1499312000232749,0.8743439788459322,,experiment,emotion,0.0,,,,1024.7246286000009,171,23,female,True,10246,10257,False,False,inspiration,inspiration
300,112.0,25,F,down,1.1188351000018883,1.4558688869661238,,experiment,emotion,0.0,,,,1027.6078702000086,171,23,female,True,10275,10286,False,False,expiration,expiration
301,112.0,25,M,down,1.094137200008845,1.5281214466344542,,experiment,emotion,0.0,,,,1030.5244174000106,171,23,female,True,10304,10315,False,False,inspiration,expiration
302,116.0,25,M,down,0.9332201999786776,1.875667544769678,,experiment,emotion,0.0,,,,1033.7743201000267,171,23,female,True,10337,10346,False,False,inspiration,expiration
303,120.0,25,M,down,1.3096748999960257,1.3984002269314022,,experiment,emotion,0.0,,,,1036.3908764000225,171,23,female,True,10363,10376,False,False,expiration,inspiration
304,112.0,25,F,down,0.9487648000067566,0.6812123007926967,,experiment,emotion,0.0,,,,1038.64076390001,171,23,female,True,10386,10395,False,False,expiration,expiration
305,109.0,25,F,down,0.7901631999993697,1.1418566272911377,,experiment,emotion,0.0,,,,1041.0073986000207,171,23,female,True,10409,10417,False,False,inspiration,expiration
306,109.0,25,M,down,0.6489557999884711,1.2669421348712473,,experiment,emotion,0.0,,,,1043.340565600025,171,23,female,True,10433,10439,False,False,expiration,inspiration
307,112.0,25,F,down,1.0306545999774244,0.5230756348020964,,experiment,emotion,0.0,,,,1044.773914600024,171,23,female,True,10447,10457,False,False,expiration,expiration
308,120.0,25,F,up,1.777096600009827,1.070992312119481,,experiment,emotion,0.0,,,,1047.1404345000046,171,23,female,True,10471,10489,False,False,expiration,expiration
309,116.0,25,M,down,1.4055225999909453,1.800552303448424,,experiment,emotion,0.0,,,,1051.0070020000276,171,23,female,True,10509,10523,False,False,inspiration,expiration
310,109.0,25,M,down,0.8376700000080746,1.3154144809857924,,experiment,emotion,0.0,,,,1054.0069043000112,171,23,female,True,10539,10547,False,False,trough,inspiration
311,120.0,25,F,down,1.1203477999952156,0.3567772556840634,,experiment,emotion,0.0,,,,1055.4901913000213,171,23,female,True,10554,10565,False,False,expiration,expiration
312,116.0,25,M,up,2.191740399983246,1.077212822412692,,experiment,emotion,0.0,,,,1057.95676250002,171,23,female,True,10579,10601,False,False,inspiration,expiration
313,116.0,25,F,down,1.0546104999957606,1.1106241734167144,,experiment,emotion,0.0,,,,1061.5399384000048,171,23,female,True,10615,10626,False,False,inspiration,expiration
314,109.0,25,F,down,1.040355900011491,1.465920884705508,,experiment,emotion,0.0,,,,1064.3231650000087,171,23,female,True,10642,10652,False,False,trough,inspiration
315,112.0,25,F,down,1.690118300000904,1.1537854982320324,,experiment,emotion,0.0,,,,1066.806436200015,171,23,female,True,10667,10684,False,False,expiration,inspiration
316,120.0,25,M,up,1.8382413999934213,0.9269559037474022,,experiment,emotion,0.0,,,,1069.7063301000162,171,23,female,True,10696,10714,False,False,expiration,expiration
317,112.0,25,M,down,1.0476492999878246,0.3663597981500726,,experiment,emotion,0.0,,,,1072.1728953000272,171,23,female,True,10721,10731,False,False,inspiration,expiration
318,112.0,25,F,down,0.9293720000132452,0.5054022510227199,,experiment,emotion,0.0,,,,1074.006163300015,171,23,female,True,10739,10748,False,False,expiration,inspiration
319,112.0,25,F,down,0.9394254999933764,0.7052769202388691,,experiment,emotion,0.0,,,,1075.9061050000016,171,23,female,True,10758,10767,False,False,expiration,expiration
320,120.0,25,M,up,0.9368842999974732,1.158940138337916,,experiment,emotion,0.0,,,,1078.2726762000239,171,23,female,True,10782,10791,False,False,inspiration,expiration
321,116.0,25,M,down,0.6815816999878734,0.7464859125448084,,experiment,emotion,0.0,,,,1080.2559534000177,171,23,female,True,10802,10809,False,False,expiration,inspiration
322,109.0,25,M,down,0.9223675999965052,1.5591370998385723,,experiment,emotion,0.0,,,,1082.7891808999993,171,23,female,True,10827,10836,False,False,expiration,expiration
323,109.0,25,M,down,1.062739099987084,0.3237655330356969,,experiment,emotion,0.0,,,,1084.3057955000259,171,23,female,True,10842,10853,False,False,trough,peak
324,116.0,25,M,down,1.1702328000101259,1.7389318670652247,,experiment,emotion,0.0,,,,1087.3723390000232,171,23,female,True,10873,10885,False,False,expiration,peak
325,120.0,25,F,down,1.241260200011311,1.2123220220139816,,experiment,emotion,0.0,,,,1090.022269100009,171,23,female,True,10900,10912,False,False,expiration,inspiration
326,120.0,25,F,down,0.9171270999941044,1.274866590794084,,experiment,emotion,0.0,,,,1092.8054511000228,171,23,female,True,10927,10936,False,False,expiration,expiration
327,109.0,25,M,down,1.084802800003672,1.0857697410788858,,experiment,emotion,0.0,,,,1095.0887302000192,171,23,female,True,10950,10961,False,False,inspiration,expiration
328,120.0,25,F,down,0.8699575999926309,1.9481620293638569,,experiment,emotion,0.0,,,,1098.3886099000226,171,23,female,True,10983,10992,False,False,inspiration,expiration
329,112.0,25,F,down,1.1256981999904383,1.6928776943772927,,experiment,emotion,0.0,,,,1101.2218304999988,171,23,female,True,11011,11022,False,False,inspiration,expiration
330,116.0,25,F,down,0.8626981000124943,0.7342036653019339,,experiment,emotion,0.0,,,,1103.3717444000067,171,23,female,True,11033,11042,False,False,expiration,inspiration
331,112.0,25,M,up,1.3948659999878146,0.5213180321566857,,experiment,emotion,0.0,,,,1105.0216672000242,171,23,female,True,11049,11063,False,False,expiration,expiration
332,109.0,25,F,down,0.9990601000026801,1.5338244758434807,,experiment,emotion,0.0,,,,1108.2215558000025,171,23,female,True,11082,11092,False,False,expiration,expiration
333,116.0,25,F,down,1.9346818999911195,0.606854705276338,,experiment,emotion,0.0,,,,1110.1048518000168,171,23,female,True,11100,11119,False,False,expiration,expiration
334,112.0,25,F,down,1.3727924000122584,0.3551452553997645,,experiment,emotion,0.0,,,,1112.6547371000051,171,23,female,True,11126,11140,False,False,expiration,inspiration
335,116.0,25,M,down,0.8849422000057529,1.9989134323652231,,experiment,emotion,0.0,,,,1116.3045837000245,171,23,female,True,11162,11171,False,False,expiration,expiration
336,109.0,25,M,down,0.9616733000148088,1.3100561751968332,,experiment,emotion,0.0,,,,1118.7878530000162,171,23,female,True,11187,11197,False,False,expiration,expiration
337,120.0,25,F,down,0.7934352000011131,1.5492371161713017,,experiment,emotion,0.0,,,,1121.5710824000123,171,23,female,True,11215,11223,False,False,expiration,inspiration
338,116.0,25,M,down,1.7458566000277642,0.30098315654861585,,experiment,emotion,0.0,,,,1122.9377029000025,171,23,female,True,11229,11246,False,False,inspiration,expiration
339,120.0,25,F,down,1.0556103999842892,0.5609279001951408,,experiment,emotion,0.0,,,,1125.5209296000248,171,23,female,True,11254,11265,False,False,expiration,expiration
340,109.0,25,M,down,0.8603787000174634,1.6613260234100728,,experiment,emotion,0.0,,,,1128.5041513000033,171,23,female,True,11284,11293,False,False,expiration,expiration
341,112.0,25,M,down,0.8524783999891952,1.4490504325429063,,experiment,emotion,0.0,,,,1131.1040460000222,171,23,female,True,11310,11319,False,False,inspiration,expiration
342,0.42841695155632703,25,up,up,0.8790780999988783,1.864641491849939,,experiment,cRDM,1.0,,,,1138.020460300002,171,23,female,True,11380,11389,False,False,inspiration,expiration
343,0.42841695155632703,25,up,up,0.6029529999941587,1.9412120962704942,,experiment,cRDM,1.0,,,,1141.1035919999995,171,23,female,True,11410,11416,False,False,inspiration,inspiration
344,0.42841695155632703,25,down,down,0.6096640999894589,0.9279968866757756,,experiment,cRDM,1.0,,,,1142.8868850000144,171,23,female,True,11428,11434,False,False,expiration,expiration
345,0.42841695155632703,25,down,down,0.9946457000041846,0.8140547374440794,,experiment,cRDM,1.0,,,,1144.5868389000245,171,23,female,True,11445,11455,False,False,inspiration,expiration
346,0.42841695155632703,25,up,up,0.8967743999965023,1.7374152156928675,,experiment,cRDM,1.0,,,,1147.5867269000155,171,23,female,True,11475,11484,False,False,expiration,expiration
347,0.42841695155632703,25,down,down,0.4855552999943029,1.4236899797416482,,experiment,cRDM,1.0,,,,1150.1699627000196,171,23,female,True,11501,11506,False,False,expiration,inspiration
348,0.42841695155632703,25,up,up,0.4987039999978151,0.9542497091813285,,experiment,cRDM,1.0,,,,1151.8699075000184,171,23,female,True,11518,11523,False,False,expiration,expiration
349,0.42841695155632703,25,up,up,0.9649753000121564,0.3070942507601752,,experiment,cRDM,1.0,,,,1152.9365671000267,171,23,female,True,11529,11539,False,False,expiration,expiration
350,0.42841695155632703,25,down,down,0.7374390000186395,1.1536553349791898,,experiment,cRDM,1.0,,,,1155.3200797000027,171,23,female,True,11553,11560,False,False,peak,expiration
351,0.42841695155632703,25,down,up,0.8361201999941841,0.5715456639280765,,experiment,cRDM,1.0,,,,1156.8863883000158,171,23,female,True,11568,11576,False,False,expiration,expiration
352,0.42841695155632703,25,down,down,0.5365450000099372,0.6592701550345158,,experiment,cRDM,1.0,,,,1158.6529787000036,171,23,female,True,11586,11591,False,False,inspiration,inspiration
353,0.42841695155632703,25,down,down,0.9165833999868482,0.5105462200645022,,experiment,cRDM,1.0,,,,1159.95293270002,171,23,female,True,11599,11608,False,False,expiration,expiration
354,0.42841695155632703,25,down,down,0.6217296000104398,1.2759000057627232,,experiment,cRDM,1.0,,,,1162.402813699999,171,23,female,True,11623,11629,False,False,inspiration,inspiration
355,0.42841695155632703,25,down,down,0.6874121000000741,1.2870511181820228,,experiment,cRDM,1.0,,,,1164.5861054999987,171,23,female,True,11645,11652,False,False,expiration,expiration
356,0.42841695155632703,25,up,up,0.6471645999990869,1.0372611006533408,,experiment,cRDM,1.0,,,,1166.5693593000176,171,23,female,True,11665,11671,False,False,inspiration,expiration
357,0.42841695155632703,25,up,up,1.6009314999973867,0.4200495224842691,,experiment,cRDM,1.0,,,,1167.9026325000161,171,23,female,True,11678,11694,False,False,expiration,inspiration
358,0.42841695155632703,25,up,up,0.6673166000109632,0.3670438840008398,,experiment,cRDM,1.0,,,,1170.1192050000245,171,23,female,True,11701,11708,False,False,inspiration,expiration
359,0.42841695155632703,25,up,up,0.6416664000134915,1.2882272886646784,,experiment,cRDM,1.0,,,,1172.3358501000039,171,23,female,True,11723,11729,False,False,expiration,inspiration
360,0.42841695155632703,25,down,down,0.5678044000233058,1.7878063368734702,,experiment,cRDM,1.0,,,,1175.0357327000238,171,23,female,True,11750,11756,False,False,expiration,expiration
361,0.42841695155632703,25,up,up,0.4982216999924276,0.5367932238779624,,experiment,cRDM,1.0,,,,1176.4023106000095,171,23,female,True,11763,11768,False,False,trough,inspiration
362,0.42841695155632703,25,up,up,0.6278726999880746,0.3724236959536164,,experiment,cRDM,1.0,,,,1177.5356478000176,171,23,female,True,11775,11781,False,False,expiration,expiration
363,0.42841695155632703,25,down,down,0.6346345999918412,0.5564108080703742,,experiment,cRDM,1.0,,,,1178.9688928000105,171,23,female,True,11789,11795,False,False,expiration,expiration
364,0.42841695155632703,25,up,up,0.5124142999993637,1.9349296941480767,,experiment,cRDM,1.0,,,,1181.8021015000122,171,23,female,True,11817,11822,False,False,expiration,expiration
365,0.42841695155632703,25,down,down,0.4687881999998354,1.029564462454223,,experiment,cRDM,1.0,,,,1183.618725200009,171,23,female,True,11836,11841,False,False,trough,inspiration
366,0.42841695155632703,25,down,down,0.6072640999918804,1.634607715389044,,experiment,cRDM,1.0,,,,1185.985290200013,171,23,female,True,11859,11865,False,False,expiration,expiration
367,0.42841695155632703,25,up,up,0.4466533999948297,1.4464158893373067,,experiment,cRDM,1.0,,,,1188.3018606000114,171,23,female,True,11882,11886,False,False,inspiration,expiration
368,0.42841695155632703,25,up,up,0.4737618000071962,1.6920175348384314,,experiment,cRDM,1.0,,,,1190.7017840000044,171,23,female,True,11906,11911,False,False,expiration,expiration
369,0.42841695155632703,25,down,down,0.5991859000059776,0.9787096757955304,,experiment,cRDM,1.0,,,,1192.418403800024,171,23,female,True,11924,11930,False,False,inspiration,expiration
370,0.42841695155632703,25,up,up,0.5109270999964792,1.4214835815657234,,experiment,cRDM,1.0,,,,1194.701636200014,171,23,female,True,11946,11951,False,False,expiration,inspiration
371,0.42841695155632703,25,down,down,0.40028169998549856,0.3471601009672331,,experiment,cRDM,1.0,,,,1195.8182772000146,171,23,female,True,11958,11962,False,False,inspiration,expiration
372,0.42841695155632703,25,down,down,0.8213044999865815,0.8145093722798689,,experiment,cRDM,1.0,,,,1197.318219400011,171,23,female,True,11973,11981,False,False,expiration,expiration
373,0.42841695155632703,25,down,down,0.8033811000059359,0.3177769816022457,,experiment,cRDM,1.0,,,,1198.7181781000106,171,23,female,True,11987,11995,False,False,inspiration,inspiration
374,0.42841695155632703,25,up,up,0.5911369000095874,1.7819646919325205,,experiment,cRDM,1.0,,,,1201.5513753000125,171,23,female,True,12015,12021,False,False,expiration,inspiration
375,0.42841695155632703,25,up,up,1.0152076000231318,1.1455661672603543,,experiment,cRDM,1.0,,,,1203.5513309000235,171,23,female,True,12035,12045,False,False,expiration,expiration
376,0.42841695155632703,25,up,up,0.4427223000093363,1.796538259250965,,experiment,cRDM,1.0,,,,1206.6177928000104,171,23,female,True,12066,12070,False,False,expiration,expiration
377,0.42841695155632703,25,down,down,0.6120648999931291,1.037914440891819,,experiment,cRDM,1.0,,,,1208.384453400009,171,23,female,True,12083,12089,False,False,expiration,expiration
378,0.42841695155632703,25,down,up,0.7287843000085559,0.7066196572268063,,experiment,cRDM,1.0,,,,1209.9677577000114,171,23,female,True,12099,12106,False,False,inspiration,expiration
379,0.42841695155632703,25,up,up,0.7678392000088934,1.558173070704877,,experiment,cRDM,1.0,,,,1212.517651800008,171,23,female,True,12125,12133,False,False,expiration,inspiration
380,0.42841695155632703,25,down,down,0.4832692000200041,1.0354779899646571,,experiment,cRDM,1.0,,,,1214.5842475000245,171,23,female,True,12145,12150,False,False,expiration,expiration
381,0.42841695155632703,25,up,up,0.3505010000080801,1.0843381812425448,,experiment,cRDM,1.0,,,,1216.4174768000084,171,23,female,True,12164,12168,False,False,inspiration,inspiration
382,0.42841695155632703,25,up,up,0.6217172000033315,1.1946146321788058,,experiment,cRDM,1.0,,,,1218.3007660000005,171,23,female,True,12182,12188,False,False,expiration,expiration
383,0.42841695155632703,25,up,up,0.4731896000157576,1.5326406310550906,,experiment,cRDM,1.0,,,,1220.717379400012,171,23,female,True,12207,12212,False,False,expiration,expiration
384,0.42841695155632703,25,down,down,0.6152325000148267,0.9260101531409852,,experiment,cRDM,1.0,,,,1222.3672985000012,171,23,female,True,12223,12229,False,False,expiration,inspiration
385,0.42841695155632703,25,down,down,0.5892855999991298,1.2794529170119242,,experiment,cRDM,1.0,,,,1224.5172211000172,171,23,female,True,12245,12251,False,False,expiration,expiration
386,0.42841695155632703,25,up,up,0.4854406999947969,1.3372297507587771,,experiment,cRDM,1.0,,,,1226.7171166000192,171,23,female,True,12267,12272,False,False,inspiration,peak
387,0.42841695155632703,25,down,up,1.4477347999927588,0.3723485650210821,,experiment,cRDM,1.0,,,,1227.8338066000142,171,23,female,True,12278,12292,False,False,expiration,trough
388,0.42841695155632703,25,down,down,0.5618702000065241,1.0525855693812836,,experiment,cRDM,1.0,,,,1230.5836647000106,171,23,female,True,12305,12311,False,False,expiration,expiration
389,0.42841695155632703,25,up,up,0.6582517999922857,0.7988135193376489,,experiment,cRDM,1.0,,,,1232.2002555000074,171,23,female,True,12321,12328,False,False,expiration,inspiration
390,0.42841695155632703,25,up,up,0.7126608999969903,0.7394272239720621,,experiment,cRDM,1.0,,,,1233.8668651000191,171,23,female,True,12338,12345,False,False,expiration,expiration
391,0.42841695155632703,25,down,down,0.7920379999850411,0.9791468913269668,,experiment,cRDM,1.0,,,,1235.833508300013,171,23,female,True,12358,12366,False,False,inspiration,inspiration
392,0.42841695155632703,25,up,up,0.4002576000057161,1.7050222539690587,,experiment,cRDM,1.0,,,,1238.583352000016,171,23,female,True,12385,12389,False,False,expiration,expiration
393,0.42841695155632703,25,down,down,0.3671105000248645,1.9372928375783756,,experiment,cRDM,1.0,,,,1241.216624200024,171,23,female,True,12412,12416,False,False,expiration,expiration
394,0.42841695155632703,25,down,up,0.9952860999910628,0.6014368813896325,,experiment,cRDM,1.0,,,,1242.4832301000133,171,23,female,True,12424,12434,False,False,expiration,expiration
395,0.42841695155632703,25,down,down,0.6627003999892622,0.8652097284343951,,experiment,cRDM,1.0,,,,1244.5998061000134,171,23,female,True,12445,12452,False,False,inspiration,expiration
396,0.42841695155632703,25,up,up,0.4538035999867134,0.8683713151967754,,experiment,cRDM,1.0,,,,1246.3997357000192,171,23,female,True,12463,12468,False,False,expiration,expiration
397,0.42841695155632703,25,up,up,0.6181925999990199,1.248944810151797,,experiment,cRDM,1.0,,,,1248.3663520000118,171,23,female,True,12483,12489,False,False,inspiration,expiration
398,0.42841695155632703,25,down,down,0.5156258000060916,1.9821448383298117,,experiment,cRDM,1.0,,,,1251.2329245000144,171,23,female,True,12512,12517,False,False,inspiration,inspiration
399,0.42841695155632703,25,down,down,0.7143398000043817,0.9098898764259484,,experiment,cRDM,1.0,,,,1252.9161655000062,171,23,female,True,12529,12536,False,False,expiration,expiration
400,0.42841695155632703,25,up,up,0.590444799978286,1.6724287758642955,,experiment,cRDM,1.0,,,,1255.5660653000232,171,23,female,True,12555,12561,False,False,expiration,expiration
401,0.42841695155632703,25,up,up,0.6241849999933038,1.0890031376079978,,experiment,cRDM,1.0,,,,1257.4993258000175,171,23,female,True,12574,12580,False,False,expiration,inspiration
402,0.42841695155632703,25,up,up,1.3062138000095729,1.2470397894627234,,experiment,cRDM,1.0,,,,1259.6492994000146,171,23,female,True,12596,12609,False,False,expiration,expiration
403,0.42841695155632703,25,up,up,0.5029586000018753,0.5028541160892328,,experiment,cRDM,1.0,,,,1261.7325531000095,171,23,female,True,12617,12622,False,False,inspiration,inspiration
404,0.42841695155632703,25,up,up,0.5440407999849413,1.7313967139539417,,experiment,cRDM,1.0,,,,1264.2324578000114,171,23,female,True,12642,12647,False,False,expiration,expiration
405,0.42841695155632703,25,down,down,0.5625432999804616,0.9027206021902928,,experiment,cRDM,1.0,,,,1265.9490218000135,171,23,female,True,12659,12665,False,False,inspiration,expiration
406,0.42841695155632703,25,down,down,1.162640399998054,0.5508275119718002,,experiment,cRDM,1.0,,,,1267.3159275000214,171,23,female,True,12673,12685,False,False,expiration,expiration
407,0.42841695155632703,25,up,up,0.4356166000070516,0.4621113313533476,,experiment,cRDM,1.0,,,,1269.1988945000048,171,23,female,True,12691,12695,False,False,inspiration,inspiration
408,0.42841695155632703,25,down,down,0.4720605000038631,1.1104446681855191,,experiment,cRDM,1.0,,,,1271.015477600013,171,23,female,True,12710,12715,False,False,expiration,expiration
409,0.42841695155632703,25,down,down,0.4508083000255283,1.7593052228589507,,experiment,cRDM,1.0,,,,1273.4987187000224,171,23,female,True,12734,12739,False,False,expiration,expiration
410,0.42841695155632703,25,down,down,0.6924876999983098,1.2578995983690338,,experiment,cRDM,1.0,,,,1275.4820116000192,171,23,female,True,12754,12761,False,False,expiration,inspiration
411,0.42841695155632703,25,up,up,0.437892699992517,1.3159843192253409,,experiment,cRDM,1.0,,,,1277.748591200012,171,23,female,True,12777,12781,False,False,expiration,expiration
412,0.42841695155632703,25,down,down,0.4533518000098411,1.6213216916845248,,experiment,cRDM,1.0,,,,1280.0651600000274,171,23,female,True,12800,12805,False,False,expiration,expiration
413,0.42841695155632703,25,down,down,0.4169794000044931,1.957741201134004,,experiment,cRDM,1.0,,,,1282.7317784000188,171,23,female,True,12827,12831,False,False,expiration,expiration
414,0.42841695155632703,25,down,down,0.5538455999922007,1.9782195761109889,,experiment,cRDM,1.0,,,,1285.3816417000196,171,23,female,True,12853,12859,False,False,inspiration,expiration
415,0.42841695155632703,25,up,up,0.7099088999966625,0.5867536377670751,,experiment,cRDM,1.0,,,,1286.7815904000015,171,23,female,True,12867,12874,False,False,expiration,expiration
416,0.42841695155632703,25,up,up,0.6044266000099014,1.7967160238650548,,experiment,cRDM,1.0,,,,1289.5481370000052,171,23,female,True,12895,12901,False,False,expiration,expiration
417,0.42841695155632703,25,down,down,0.6217725999886171,0.3535553753891495,,experiment,cRDM,1.0,,,,1290.7647898000141,171,23,female,True,12907,12913,False,False,expiration,expiration
418,0.42841695155632703,25,up,up,0.540153600013582,1.7346189213103462,,experiment,cRDM,1.0,,,,1293.381349000003,171,23,female,True,12933,12938,False,False,inspiration,inspiration
419,0.42841695155632703,25,down,down,0.4698521999816876,0.6371771303027,,experiment,cRDM,1.0,,,,1294.8146349000162,171,23,female,True,12948,12953,False,False,expiration,expiration
420,0.42841695155632703,25,up,up,0.3339098999858834,1.311109370346116,,experiment,cRDM,1.0,,,,1296.84788440002,171,23,female,True,12968,12971,False,False,trough,inspiration
421,0.42841695155632703,25,up,down,0.3505072999978438,0.8472100576296406,,experiment,cRDM,1.0,,,,1298.3644977000074,171,23,female,True,12983,12987,False,False,expiration,expiration
422,120.0,25,M,down,1.2647624000092037,0.5251992537459758,,experiment,emotion,1.0,,,,1302.747731600015,171,23,female,True,13027,13040,False,False,expiration,expiration
423,109.0,25,M,down,0.6915271000179928,1.6049626425538872,,experiment,emotion,1.0,,,,1305.88096770001,171,23,female,True,13058,13065,False,False,expiration,expiration
424,116.0,25,F,down,0.6272629000013694,1.1175954035030504,,experiment,emotion,1.0,,,,1307.964213500003,171,23,female,True,13079,13085,False,False,inspiration,inspiration
425,120.0,25,F,down,0.7220273000129964,1.1917872120068125,,experiment,emotion,1.0,,,,1310.047490500001,171,23,female,True,13100,13107,False,False,expiration,expiration
426,116.0,25,M,down,1.4894144000136291,0.3326582317126565,,experiment,emotion,1.0,,,,1311.3640935000149,171,23,female,True,13113,13128,False,False,inspiration,expiration
427,112.0,25,F,down,0.9515162000025156,1.233297127828746,,experiment,emotion,1.0,,,,1314.3639807,171,23,female,True,13143,13153,False,False,trough,inspiration
428,109.0,25,M,down,0.7423200999910478,1.4683290800690907,,experiment,emotion,1.0,,,,1317.0472094000145,171,23,female,True,13170,13177,False,False,expiration,inspiration
429,112.0,25,M,down,0.436386199988192,1.175918027708943,,experiment,emotion,1.0,,,,1319.2471362000215,171,23,female,True,13192,13196,False,False,expiration,expiration
430,120.0,25,F,down,0.4170111999846995,1.264093690371771,,experiment,emotion,1.0,,,,1321.2137078000233,171,23,female,True,13212,13216,False,False,inspiration,inspiration
431,112.0,25,F,down,0.5838234999973793,0.9724345509133964,,experiment,emotion,1.0,,,,1322.863676000008,171,23,female,True,13228,13234,False,False,expiration,expiration
432,116.0,25,F,down,0.6962644000013825,1.2867227742753375,,experiment,emotion,1.0,,,,1325.0302472000185,171,23,female,True,13250,13257,False,False,inspiration,expiration
433,120.0,25,F,down,0.6713190000155009,1.2300307343533634,,experiment,emotion,1.0,,,,1327.2301829000062,171,23,female,True,13272,13279,False,False,inspiration,inspiration
434,116.0,25,F,down,0.7743629000033252,0.9519740266961674,,experiment,emotion,1.0,,,,1329.1301090000195,171,23,female,True,13291,13299,False,False,inspiration,expiration
435,109.0,25,F,down,0.5951468000130262,1.7719366610777063,,experiment,emotion,1.0,,,,1331.963334800006,171,23,female,True,13319,13325,False,False,expiration,expiration
436,112.0,25,M,down,0.5382833999756258,1.232300403619522,,experiment,emotion,1.0,,,,1334.0632418000025,171,23,female,True,13340,13345,False,False,inspiration,expiration
437,109.0,25,M,down,0.5789747999806423,0.624730694279604,,experiment,emotion,1.0,,,,1335.496532500023,171,23,female,True,13354,13360,False,False,expiration,expiration
438,120.0,25,M,down,0.5427350999962073,1.1831395012023076,,experiment,emotion,1.0,,,,1337.5297789000033,171,23,female,True,13375,13380,False,False,inspiration,expiration
439,109.0,25,M,down,0.6534271000127774,1.2695796853490195,,experiment,emotion,1.0,,,,1339.6130619000178,171,23,female,True,13396,13403,False,False,expiration,expiration
440,116.0,25,F,down,1.1488618000003044,1.2361093861111516,,experiment,emotion,1.0,,,,1341.7796297000025,171,23,female,True,13417,13428,False,False,peak,expiration
441,116.0,25,M,down,0.7809674000018276,1.7449400641201904,,experiment,emotion,1.0,,,,1344.9295332000186,171,23,female,True,13449,13457,False,False,inspiration,expiration
442,112.0,25,M,up,1.48003940001945,0.8926909528713953,,experiment,emotion,1.0,,,,1346.8794352000114,171,23,female,True,13468,13483,False,False,expiration,inspiration
443,112.0,25,F,down,0.7051445000106469,0.7015086027567294,,experiment,emotion,1.0,,,,1349.3293528000067,171,23,female,True,13493,13500,False,False,expiration,expiration
444,109.0,25,M,down,1.9189207000017632,1.4584601782616924,,experiment,emotion,1.0,,,,1351.7626049000246,171,23,female,True,13517,13536,False,False,inspiration,expiration
445,120.0,25,F,,,0.9517928080531564,,experiment,emotion,1.0,,,,1354.91249040002,171,23,female,True,13549,0,False,False,inspiration,0
446,116.0,25,F,down,0.5834506999817677,0.4652747759875057,,experiment,emotion,1.0,,,,1358.0790339000232,171,23,female,True,13580,13586,False,False,inspiration,peak
447,109.0,25,M,up,1.3842245999840088,1.065956571369619,,experiment,emotion,1.0,,,,1360.0122832000195,171,23,female,True,13600,13614,False,False,expiration,inspiration
448,120.0,25,M,up,0.983024600020144,1.8146840606245895,,experiment,emotion,1.0,,,,1363.4954873000095,171,23,female,True,13634,13644,False,False,expiration,expiration
449,120.0,25,F,up,0.7807527999975719,1.6703875032998865,,experiment,emotion,1.0,,,,1366.4287377000146,171,23,female,True,13664,13672,False,False,expiration,expiration
450,112.0,25,M,up,1.436181500001112,1.4506780086790536,,experiment,emotion,1.0,,,,1368.945310500014,171,23,female,True,13689,13703,False,False,inspiration,expiration
451,109.0,25,F,down,1.1136770999873988,1.7078714941420496,,experiment,emotion,1.0,,,,1372.3618475000258,171,23,female,True,13723,13734,False,False,inspiration,expiration
452,112.0,25,F,down,1.2390791999932844,1.3864189548272474,,experiment,emotion,1.0,,,,1375.1284085000225,171,23,female,True,13751,13763,False,False,inspiration,expiration
453,116.0,25,F,up,1.0288801999995485,1.7620389834176446,,experiment,emotion,1.0,,,,1378.4116084999987,171,23,female,True,13784,13794,False,False,inspiration,expiration
454,109.0,25,M,down,1.1582917000050656,1.4047659488592537,,experiment,emotion,1.0,,,,1381.1281984000234,171,23,female,True,13811,13823,False,False,expiration,inspiration
455,120.0,25,M,down,1.056769599992549,1.5782284939189832,,experiment,emotion,1.0,,,,1384.1447589000165,171,23,female,True,13841,13852,False,False,expiration,inspiration
456,116.0,25,M,down,1.105847900005756,1.2858240246719357,,experiment,emotion,1.0,,,,1386.744642100006,171,23,female,True,13867,13878,False,False,expiration,expiration
457,120.0,25,F,down,1.515039699996123,1.3705713199452412,,experiment,emotion,1.0,,,,1389.4945427000055,171,23,female,True,13894,13909,False,False,inspiration,expiration
458,109.0,25,F,down,0.7130307999905199,1.1640234216400558,,experiment,emotion,1.0,,,,1392.4444446000268,171,23,female,True,13924,13931,False,False,inspiration,inspiration
459,116.0,25,M,down,0.7861804999993183,1.565588298023535,,experiment,emotion,1.0,,,,1394.9943285000045,171,23,female,True,13949,13957,False,False,expiration,trough
460,112.0,25,F,down,0.6998750999919139,0.9636520407221271,,experiment,emotion,1.0,,,,1397.0276086000085,171,23,female,True,13970,13977,False,False,expiration,expiration
461,112.0,25,M,down,0.6886590999783948,1.073601933566873,,experiment,emotion,1.0,,,,1399.0608594000225,171,23,female,True,13990,13997,False,False,expiration,inspiration
462,116.0,25,M,down,0.7440528000006452,1.907834113636859,,experiment,emotion,1.0,,,,1401.9274169999992,171,23,female,True,14019,14026,False,False,expiration,expiration
463,120.0,25,M,down,0.9267906000022776,0.469803149115874,,experiment,emotion,1.0,,,,1403.410691600002,171,23,female,True,14034,14043,False,False,inspiration,expiration
464,112.0,25,F,down,1.6125410000095144,1.988875220778708,,experiment,emotion,1.0,,,,1406.5938970000134,171,23,female,True,14066,14082,False,False,inspiration,expiration
465,109.0,25,F,down,1.2644308999879286,1.9879636988642821,,experiment,emotion,1.0,,,,1410.4771151000168,171,23,female,True,14104,14117,False,False,expiration,expiration
466,109.0,25,M,down,1.0958704999939073,1.9426954374557892,,experiment,emotion,1.0,,,,1413.9436436000103,171,23,female,True,14139,14150,False,False,expiration,expiration
467,112.0,25,F,down,1.5046143000072334,1.9729090481905869,,experiment,emotion,1.0,,,,1417.2768670000075,171,23,female,True,14172,14187,False,False,expiration,expiration
468,120.0,25,F,up,1.0684311999939382,1.3271102669315449,,experiment,emotion,1.0,,,,1420.4100528999988,171,23,female,True,14204,14215,False,False,expiration,expiration
469,116.0,25,M,down,0.7094922999967821,0.7956107196590823,,experiment,emotion,1.0,,,,1422.5599901000094,171,23,female,True,14225,14232,False,False,inspiration,inspiration
470,109.0,25,M,down,0.8378917000081856,1.177566907220173,,experiment,emotion,1.0,,,,1424.7265900000054,171,23,female,True,14247,14255,False,False,expiration,trough
471,120.0,25,F,down,1.0250215999840293,1.906602199950632,,experiment,emotion,1.0,,,,1427.7264847000185,171,23,female,True,14277,14287,False,False,inspiration,expiration
472,116.0,25,M,down,0.7868674000201281,1.574810391048728,,experiment,emotion,1.0,,,,1430.6096161000025,171,23,female,True,14306,14314,False,False,expiration,expiration
473,116.0,25,F,down,0.6798601000045892,1.402107785507408,,experiment,emotion,1.0,,,,1433.0596183000016,171,23,female,True,14330,14337,False,False,peak,expiration
474,109.0,25,F,down,0.7726033999933861,1.7274700295739671,,experiment,emotion,1.0,,,,1435.7428492000033,171,23,female,True,14357,14365,False,False,inspiration,expiration
475,112.0,25,F,,,1.5253770890932683,,experiment,emotion,1.0,,,,1438.3427558000255,171,23,female,True,14383,0,False,False,expiration,0
476,120.0,25,M,down,1.4525624999951106,1.589344405281486,,experiment,emotion,1.0,,,,1442.6259111000106,171,23,female,True,14426,14441,False,False,expiration,expiration
477,112.0,25,M,down,0.7470570000004955,1.5949061958231947,,experiment,emotion,1.0,,,,1445.9424755000216,171,23,female,True,14459,14466,False,False,inspiration,inspiration
478,112.0,25,F,down,0.7264702000247779,1.0562808788947715,,experiment,emotion,1.0,,,,1448.0090206000025,171,23,female,True,14480,14487,False,False,expiration,expiration
479,112.0,25,F,down,0.5785848000086844,0.7999935130052827,,experiment,emotion,1.0,,,,1449.8088969000091,171,23,female,True,14498,14504,False,False,trough,inspiration
480,120.0,25,M,down,0.8553115999966394,1.5297306228096526,,experiment,emotion,1.0,,,,1452.192172800016,171,23,female,True,14521,14530,False,False,expiration,expiration
481,116.0,25,M,down,0.5083376000111457,1.0759341454069409,,experiment,emotion,1.0,,,,1454.3921397000086,171,23,female,True,14543,14548,False,False,inspiration,peak
482,109.0,25,M,down,0.8531164999876637,1.7918981378729664,,experiment,emotion,1.0,,,,1456.9753802000196,171,23,female,True,14569,14578,False,False,trough,inspiration
483,109.0,25,M,down,0.6438900000066496,0.7973864523951413,,experiment,emotion,1.0,,,,1458.9086023000127,171,23,female,True,14589,14595,False,False,expiration,expiration
484,116.0,25,M,down,0.7083007000037469,1.86554341807764,,experiment,emotion,1.0,,,,1461.6752104000186,171,23,female,True,14616,14623,False,False,expiration,expiration
485,120.0,25,F,down,0.5523506999888923,1.5578468078933445,,experiment,emotion,1.0,,,,1464.225138400012,171,23,female,True,14642,14648,False,False,inspiration,peak
486,120.0,25,F,up,1.229073199996492,0.8148090118262847,,experiment,emotion,1.0,,,,1465.8584310000006,171,23,female,True,14658,14670,False,False,expiration,inspiration
487,109.0,25,M,down,0.9095345000096132,0.4239566988231865,,experiment,emotion,1.0,,,,1467.7749752000088,171,23,female,True,14677,14686,False,False,inspiration,peak
488,120.0,25,F,down,1.1349343999754635,1.3936506402739133,,experiment,emotion,1.0,,,,1470.341563599999,171,23,female,True,14703,14714,False,False,expiration,expiration
489,112.0,25,F,down,0.8449948999914341,0.3946938378293015,,experiment,emotion,1.0,,,,1472.1415074000254,171,23,female,True,14721,14729,False,False,inspiration,expiration
490,116.0,25,F,down,0.7887132999894675,1.5507669903337968,,experiment,emotion,1.0,,,,1474.8247296000188,171,23,female,True,14748,14756,False,False,expiration,inspiration
491,112.0,25,M,down,0.986185799993109,1.9649683994824476,,experiment,emotion,1.0,,,,1477.8412915000226,171,23,female,True,14778,14788,False,False,expiration,expiration
492,109.0,25,F,up,1.1805661000253167,0.3554958859524496,,experiment,emotion,1.0,,,,1479.4578954000024,171,23,female,True,14794,14806,False,False,trough,expiration
493,116.0,25,F,down,0.8043437000014819,1.4417000941765958,,experiment,emotion,1.0,,,,1482.3411266000187,171,23,female,True,14823,14831,False,False,expiration,inspiration
494,112.0,25,F,up,1.0354527000163216,0.732088492086807,,experiment,emotion,1.0,,,,1484.141061900009,171,23,female,True,14841,14851,False,False,expiration,expiration
495,116.0,25,M,down,1.16617040001438,0.9221844265379402,,experiment,emotion,1.0,,,,1486.374301200005,171,23,female,True,14863,14875,False,False,expiration,peak
496,109.0,25,M,down,0.7489466999832075,1.7504867031006546,,experiment,emotion,1.0,,,,1489.5575222000186,171,23,female,True,14895,14902,False,False,expiration,inspiration
497,120.0,25,F,down,1.1796365000191145,0.3536461297098333,,experiment,emotion,1.0,,,,1490.9408070000063,171,23,female,True,14909,14921,False,False,inspiration,expiration
498,116.0,25,M,down,1.2480837999901269,0.3224931880242478,,experiment,emotion,1.0,,,,1492.707361700013,171,23,female,True,14927,14939,False,False,expiration,inspiration
499,120.0,25,F,up,1.3831581000122242,0.6440930202099477,,experiment,emotion,1.0,,,,1494.8573317000119,171,23,female,True,14948,14962,False,False,expiration,expiration
500,109.0,25,M,down,1.1432010999997146,0.6390080180559029,,experiment,emotion,1.0,,,,1497.1572516000015,171,23,female,True,14971,14982,False,False,expiration,inspiration
501,112.0,25,M,down,1.3706682000192814,1.230267976368625,,experiment,emotion,1.0,,,,1499.8238183000067,171,23,female,True,14998,15012,False,False,expiration,inspiration
502,0.42841695155632703,25,up,up,0.8672757000022102,0.6762808893479338,,experiment,cRDM,2.0,,,,1505.640190500009,171,23,female,True,15056,15065,False,False,expiration,expiration
503,0.42841695155632703,25,up,up,0.6705970999901183,0.5885123828970686,,experiment,cRDM,2.0,,,,1507.3568684000054,171,23,female,True,15073,15080,False,False,trough,inspiration
504,0.42841695155632703,25,down,down,0.5877294999954756,0.5747905870711727,,experiment,cRDM,2.0,,,,1508.856736900023,171,23,female,True,15088,15094,False,False,expiration,expiration
505,0.42841695155632703,25,down,down,0.7454244999971706,0.4381060693745218,,experiment,cRDM,2.0,,,,1510.1400269000148,171,23,female,True,15101,15108,False,False,expiration,expiration
506,0.42841695155632703,25,up,up,0.5261678000097163,0.7888974554390921,,experiment,cRDM,2.0,,,,1511.9233209000085,171,23,female,True,15119,15124,False,False,inspiration,inspiration
507,0.42841695155632703,25,down,down,0.4501921000191942,0.5256334714919583,,experiment,cRDM,2.0,,,,1513.2233015000238,171,23,female,True,15132,15137,False,False,inspiration,expiration
508,0.42841695155632703,25,up,up,0.6496270000061486,0.5383904181551347,,experiment,cRDM,2.0,,,,1514.489844100026,171,23,female,True,15144,15150,False,False,expiration,expiration
509,0.42841695155632703,25,up,up,0.6023637000180315,1.5170586469749936,,experiment,cRDM,2.0,,,,1516.9231513000268,171,23,female,True,15169,15175,False,False,inspiration,inspiration
510,0.42841695155632703,25,down,down,0.5337444000178948,0.6534199749161989,,experiment,cRDM,2.0,,,,1518.4397241000258,171,23,female,True,15184,15189,False,False,expiration,expiration
511,0.42841695155632703,25,down,up,0.3671217999944929,0.6864497812432028,,experiment,cRDM,2.0,,,,1519.9230347000118,171,23,female,True,15199,15203,False,False,expiration,inspiration
512,0.42841695155632703,25,down,down,0.8598859999910928,0.9940953667936998,,experiment,cRDM,2.0,,,,1521.5895807000052,171,23,female,True,15215,15224,False,False,inspiration,expiration
513,0.42841695155632703,25,down,up,1.537243300001137,0.6997918560350941,,experiment,cRDM,2.0,,,,1523.4062156,171,23,female,True,15234,15249,False,False,expiration,inspiration
514,0.42841695155632703,25,down,down,1.2296620999986771,0.6328601871482198,,experiment,cRDM,2.0,,,,1525.8228211000094,171,23,female,True,15258,15270,False,False,expiration,expiration
515,0.42841695155632703,25,down,up,0.8787783999869134,0.7510247534516512,,experiment,cRDM,2.0,,,,1528.0727040000202,171,23,female,True,15280,15289,False,False,inspiration,inspiration
516,0.42841695155632703,25,up,down,1.5038130000175445,1.1230145367075992,,experiment,cRDM,2.0,,,,1530.3226511000248,171,23,female,True,15303,15318,False,False,expiration,inspiration
517,0.42841695155632703,25,up,up,0.6216294000041671,1.3580544424239007,,experiment,cRDM,2.0,,,,1533.455850600003,171,23,female,True,15334,15340,False,False,expiration,expiration
518,0.42841695155632703,25,up,down,1.5003384999872649,0.7092146918790647,,experiment,cRDM,2.0,,,,1535.0391057000088,171,23,female,True,15350,15365,False,False,inspiration,expiration
519,0.42841695155632703,25,up,up,0.677059100009501,0.3380647179008445,,experiment,cRDM,2.0,,,,1537.1224008999998,171,23,female,True,15371,15378,False,False,expiration,expiration
520,0.42841695155632703,25,down,down,0.5634685999830253,0.3733118359863459,,experiment,cRDM,2.0,,,,1538.4389856000198,171,23,female,True,15384,15390,False,False,inspiration,peak
521,0.42841695155632703,25,up,up,0.7359069999947678,1.5873445618659958,,experiment,cRDM,2.0,,,,1540.8555567000005,171,23,female,True,15408,15415,False,False,expiration,expiration
522,0.42841695155632703,25,up,up,0.7993312999897171,1.1242289066994589,,experiment,cRDM,2.0,,,,1542.9721273000173,171,23,female,True,15429,15437,False,False,expiration,expiration
523,0.42841695155632703,25,down,down,0.5547212999954354,1.6018109757277768,,experiment,cRDM,2.0,,,,1545.6387411000032,171,23,female,True,15456,15462,False,False,inspiration,peak
524,0.42841695155632703,25,up,up,0.6518599000119139,1.6237024705693883,,experiment,cRDM,2.0,,,,1548.0886048000248,171,23,female,True,15480,15487,False,False,expiration,inspiration
525,0.42841695155632703,25,down,down,0.7844952000014018,1.4183539403647183,,experiment,cRDM,2.0,,,,1550.421916500025,171,23,female,True,15504,15512,False,False,expiration,expiration
526,0.42841695155632703,25,down,up,1.0793120000162162,0.43479084387805694,,experiment,cRDM,2.0,,,,1551.9051446000228,171,23,female,True,15519,15530,False,False,expiration,inspiration
527,0.42841695155632703,25,up,up,1.2700328000064474,1.5992444417756964,,experiment,cRDM,2.0,,,,1554.8383801000018,171,23,female,True,15548,15561,False,False,expiration,inspiration
528,0.42841695155632703,25,up,up,1.7828326000017114,1.3598030173249849,,experiment,cRDM,2.0,,,,1557.7216421000196,171,23,female,True,15577,15595,False,False,expiration,inspiration
529,0.42841695155632703,25,down,down,2.1559785999997985,1.6497741353300526,,experiment,cRDM,2.0,,,,1561.4214852000007,171,23,female,True,15614,15636,False,False,expiration,expiration
530,0.42841695155632703,25,up,up,0.5731089000182692,0.8284056284630281,,experiment,cRDM,2.0,,,,1564.6713509000256,171,23,female,True,15646,15652,False,False,expiration,expiration
531,0.42841695155632703,25,down,up,2.010910900018644,1.7859221503654883,,experiment,cRDM,2.0,,,,1567.3045883000011,171,23,female,True,15673,15693,False,False,expiration,inspiration
532,0.42841695155632703,25,down,down,0.9069432999822312,0.8148828952661025,,experiment,cRDM,2.0,,,,1570.4045067000259,171,23,female,True,15704,15713,False,False,expiration,expiration
