,stimLvl,stimTime,rand,response,rt,precedingITI,trialNumber,trialType,stimuli,block,estIntens,estThres,estSlope,trialStart,subject,age,gender,headRest,onset,responsI,manBadOnset,manBadRespons,onset_phase,respons_phase
0,150.0,100,F,,,1.0833435480829403,,introTrial,emotion,,,,,137.02914410000085,179,22,female,True,1369,0,False,False,inspiration,0
1,0.9,100,down,up,1.4671186999985366,1.895890062700259,,introTrial,cRDM,,,,,142.84560229999985,179,22,female,True,1427,1442,False,False,inspiration,expiration
2,0.9,25,down,down,0.990144399998826,1.3719711706969189,,tutorial,cRDM,,,,,177.6275999999998,179,22,female,True,1775,1785,False,False,expiration,expiration
3,0.9,25,down,down,0.6378613999986555,0.5162986132539825,,tutorial,cRDM,,,,,179.41089009999996,179,22,female,True,1793,1799,False,False,inspiration,expiration
4,0.9,25,up,up,0.4246629000008397,0.3239099452024071,,tutorial,cRDM,,,,,180.6441701000004,179,22,female,True,1805,1809,False,False,expiration,expiration
5,0.9,25,down,up,0.7615312999987509,0.8383332791690916,,tutorial,cRDM,,,,,182.1772612999994,179,22,female,True,1821,1829,False,False,inspiration,expiration
6,0.9,25,down,up,0.4234421000001021,0.6300811590037485,,tutorial,cRDM,,,,,183.8273732000016,179,22,female,True,1837,1841,False,False,inspiration,inspiration
7,0.9,25,down,down,0.4775632000018959,1.7080380685235887,,tutorial,cRDM,,,,,186.2272696,179,22,female,True,1861,1866,False,False,inspiration,inspiration
8,0.9,25,up,down,0.41729760000089294,1.9095342376739308,,tutorial,cRDM,,,,,188.87744310000198,179,22,female,True,1888,1892,False,False,inspiration,expiration
9,0.9,25,up,down,1.3957505999969726,1.743086335796279,,tutorial,cRDM,,,,,191.32707890000165,179,22,female,True,1912,1926,False,False,inspiration,expiration
10,0.9,25,up,down,0.6135128999994777,0.3955187930347168,,tutorial,cRDM,,,,,193.37730329999974,179,22,female,True,1933,1939,False,False,inspiration,inspiration
11,0.9,25,up,up,1.1615112999970734,0.804265254072414,,tutorial,cRDM,,,,,195.06028890000016,179,22,female,True,1949,1961,False,False,expiration,inspiration
12,200.0,25,M,up,0.8564718000016001,1.4493590471868925,,tutorial,emotion,,,,,204.39328880000176,179,22,female,True,2043,2052,False,False,expiration,expiration
13,200.0,25,M,up,0.4756097000026784,0.9080373273870791,,tutorial,emotion,,,,,206.44314880000093,179,22,female,True,2063,2068,False,False,inspiration,expiration
14,200.0,25,F,up,0.38350580000042106,1.9183798572850044,,tutorial,emotion,,,,,209.10974859999988,179,22,female,True,2090,2094,False,False,peak,expiration
15,0.0,25,F,down,0.4267517999978736,1.1089604760057956,,tutorial,emotion,,,,,210.94299089999916,179,22,female,True,2108,2112,False,False,inspiration,inspiration
16,0.0,25,M,down,0.4168126000004122,1.9401828629106732,,tutorial,emotion,,,,,213.59290229999897,179,22,female,True,2135,2139,False,False,inspiration,peak
17,200.0,25,F,down,0.4001897999987705,1.91277185576044,,tutorial,emotion,,,,,216.2094585000013,179,22,female,True,2161,2165,False,False,inspiration,expiration
18,0.0,25,M,down,0.5690854000022227,1.2516496055401276,,tutorial,emotion,,,,,218.15966269999993,179,22,female,True,2181,2187,False,False,inspiration,peak
19,200.0,25,M,up,0.42619550000017625,1.5609680015024767,,tutorial,emotion,,,,,220.55956259999945,179,22,female,True,2205,2209,False,False,inspiration,peak
20,0.0,25,F,down,0.4724787999984983,0.5841858118745,,tutorial,emotion,,,,,221.8592652000006,179,22,female,True,2218,2223,False,False,expiration,inspiration
21,0.0,25,F,down,0.4178500999987591,0.7817664103133046,,tutorial,emotion,,,,,223.3758651999997,179,22,female,True,2233,2237,False,False,peak,expiration
22,0.29,25,up,down,0.8947425999976986,0.9948026433023982,,psi_staircase_training,cRDM,,0.25,0.25693124029946324,0.10500000000000002,227.6599681000007,179,22,female,True,2276,2285,False,False,inspiration,expiration
23,0.39,25,up,down,0.9817945999966468,0.6295377780062066,,psi_staircase_training,cRDM,,0.3546095744690497,0.36161092129536426,0.10606203002656786,229.45895400000157,179,22,female,True,2294,2304,False,False,inspiration,expiration
24,0.45,25,down,down,0.6621797000007064,1.9051618079675148,,psi_staircase_training,cRDM,,0.4150689485921841,0.4216473382772667,0.09965473524084284,232.62552299999882,179,22,female,True,2325,2332,False,False,inspiration,expiration
25,0.44,25,down,down,0.6809393000003183,0.6394588217331665,,psi_staircase_training,cRDM,,0.4054457120615717,0.4121127131824852,0.10099709250451644,234.2087850999997,179,22,female,True,2341,2348,False,False,inspiration,inspiration
26,0.43,25,up,down,0.6426809000004141,1.4754660298060764,,psi_staircase_training,cRDM,,0.3958107273700079,0.4025120380008885,0.10151684054251513,236.64204439999958,179,22,female,True,2365,2371,False,False,trough,inspiration
27,0.46,25,down,up,0.7527339000007487,0.4385994137525605,,psi_staircase_training,cRDM,,0.4310053600809398,0.43764659464030736,0.10060675991677713,237.99197020000062,179,22,female,True,2379,2387,False,False,expiration,expiration
28,0.48,25,up,down,0.5781840000017837,0.781861194566902,,psi_staircase_training,cRDM,,0.4533049667951992,0.4600314922295604,0.10189881465552572,239.8085936999996,179,22,female,True,2397,2403,False,False,inspiration,expiration
29,0.52,25,down,down,1.0405713000000103,1.381828345159432,,psi_staircase_training,cRDM,,0.4678944128238445,0.4743004204244534,0.09704335284927626,242.0251462000015,179,22,female,True,2419,2429,False,False,inspiration,expiration
30,0.47,25,down,down,0.7002572000019427,0.8252446121974983,,psi_staircase_training,cRDM,,0.4680623452523526,0.4740648205654978,0.09093032136384756,244.15842989999874,179,22,female,True,2441,2448,False,False,inspiration,peak
31,0.47,25,up,down,0.6157193000035477,0.9703381433822424,,psi_staircase_training,cRDM,,0.4627325021499482,0.4694445120198811,0.10167892121667316,246.12497770000118,179,22,female,True,2460,2466,False,False,expiration,inspiration
32,0.52,25,down,up,1.126448300001357,1.2031013337423988,,psi_staircase_training,cRDM,,0.4748074578283651,0.4801619830309733,0.08111465220984868,248.20823050000038,179,22,female,True,2481,2492,False,False,expiration,inspiration
33,0.52,25,down,down,0.5629707000007329,0.864132944637604,,psi_staircase_training,cRDM,,0.4707233762855734,0.4794708592657341,0.1325139041836424,250.4746822999987,179,22,female,True,2504,2510,False,False,expiration,inspiration
34,0.52,25,down,down,0.7560727000018233,0.5753093518598785,,psi_staircase_training,cRDM,,0.4701525009674172,0.4786580631121971,0.12884909289193774,251.87463560000103,179,22,female,True,2518,2526,False,False,expiration,expiration
35,0.52,25,up,down,0.7260385999979917,1.6159110470282882,,psi_staircase_training,cRDM,,0.4696681780149014,0.4779069112899406,0.12480695467247198,254.52470240000184,179,22,female,True,2544,2551,False,False,expiration,expiration
36,0.63,25,up,up,1.093462400000135,1.4320740047035465,,psi_staircase_training,cRDM,,0.4716086751601935,0.4813303976121847,0.1472724668827488,256.9412491000003,179,22,female,True,2568,2579,False,False,expiration,expiration
37,0.53,25,down,down,0.6078409000001557,1.2052398771323891,,psi_staircase_training,cRDM,,0.4713538314612855,0.4809539854116205,0.145430849492152,259.50781189999907,179,22,female,True,2594,2600,False,False,expiration,expiration
38,0.53,25,down,down,0.6032712999985961,1.8262699821217667,,psi_staircase_training,cRDM,,0.4705212696275177,0.4800139108675803,0.1438021605287234,262.22437680000075,179,22,female,True,2621,2627,False,False,expiration,expiration
39,0.53,25,up,down,0.6413843000009365,1.118025807643127,,psi_staircase_training,cRDM,,0.4696922410758349,0.4790677632189461,0.14202794629742066,264.2243099000006,179,22,female,True,2641,2647,False,False,inspiration,expiration
40,0.65,25,up,down,0.5994390999985626,1.4903151737869242,,psi_staircase_training,cRDM,,0.4735076484208932,0.4834797208399314,0.15106496943701395,266.62422180000067,179,22,female,True,2665,2671,False,False,inspiration,expiration
41,0.66,25,up,down,0.5742079000010563,1.6961858520802051,,psi_staircase_training,cRDM,,0.4754947408692653,0.4866468022371934,0.16894039061423533,269.2074508000005,179,22,female,True,2691,2697,False,False,inspiration,expiration
42,0.66,25,up,down,1.1349501000004238,1.1212248464949657,,psi_staircase_training,cRDM,,0.4776699693895701,0.4897582747733661,0.18312336760231346,271.19070400000055,179,22,female,True,2711,2722,False,False,inspiration,expiration
43,0.65,25,down,down,0.6160081999987597,1.3018385065597131,,psi_staircase_training,cRDM,,0.4800758728296374,0.4927279495425422,0.19166382890489053,273.8906414000012,179,22,female,True,2738,2744,False,False,inspiration,expiration
44,0.65,25,down,down,0.8510916999985056,0.6575219003439929,,psi_staircase_training,cRDM,,0.4797783000255954,0.4923942861516681,0.19111709968275264,275.4405563,179,22,female,True,2753,2762,False,False,trough,inspiration
45,0.65,25,down,down,0.6022355000022799,1.634405166844063,,psi_staircase_training,cRDM,,0.4794795715576073,0.4920574728602721,0.19054016016182224,278.1904369000004,179,22,female,True,2781,2787,False,False,inspiration,peak
46,0.65,25,up,down,0.4949544000010064,0.5559260243988964,,psi_staircase_training,cRDM,,0.4791800501930421,0.4917178058064421,0.18993200098818547,279.62371429999985,179,22,female,True,2795,2800,False,False,expiration,inspiration
47,0.65,25,up,down,0.4682709999979125,0.6148837743092823,,psi_staircase_training,cRDM,,0.4815633969763208,0.4944370508570471,0.19502045796636688,280.9903775999992,179,22,female,True,2809,2814,False,False,inspiration,expiration
48,0.64,25,down,down,0.5891388999989431,1.5503605948940502,,psi_staircase_training,cRDM,,0.4837112294167985,0.4967555389406968,0.19760568683722968,283.27346240000037,179,22,female,True,2832,2838,False,False,inspiration,expiration
49,0.64,25,down,down,0.6464484999996785,1.7013511041213567,,psi_staircase_training,cRDM,,0.4834422785389795,0.4964750588929668,0.1974310337032517,285.84014450000177,179,22,female,True,2857,2863,False,False,peak,expiration
50,0.64,25,up,down,0.6025634999969043,0.7882562431233037,,psi_staircase_training,cRDM,,0.4831690013770154,0.4961894653618186,0.1972444554418652,287.54009560000117,179,22,female,True,2874,2880,False,False,inspiration,inspiration
51,0.63,25,up,down,0.5765883999993093,1.5589963308381807,,psi_staircase_training,cRDM,,0.4850886437267141,0.49820005871401796,0.19862225434220127,289.99003119999907,179,22,female,True,2899,2905,False,False,inspiration,inspiration
52,100.0,25,M,down,0.9282891000002564,1.3275074801194504,,psi_staircase_training,emotion,,100.0,100.0,25.00050000000001,297.5733099999997,179,22,female,True,2975,2984,False,False,inspiration,inspiration
53,145.0,25,M,up,0.9458765999988828,1.326244228116393,,psi_staircase_training,emotion,,145.25719053245996,145.25719053245996,25.000500000000283,300.1727640999997,179,22,female,True,3001,3010,False,False,expiration,expiration
54,121.0,25,F,up,0.5323895000001357,0.3752131027857146,,psi_staircase_training,emotion,,120.36392901436103,120.36392901436103,25.71326925488699,301.8562042000013,179,22,female,True,3017,3022,False,False,expiration,expiration
55,97.0,25,F,down,0.6004577999992762,0.5144821452421935,,psi_staircase_training,emotion,,102.38876106084959,102.38876106084959,26.14633372628729,303.25617409999904,179,22,female,True,3031,3037,False,False,inspiration,expiration
56,113.0,25,M,down,0.661184200002026,0.32801205651701965,,psi_staircase_training,emotion,,114.01123255420406,114.01123255420406,23.003056417783352,304.5394505000004,179,22,female,True,3044,3051,False,False,expiration,expiration
57,127.0,25,F,up,0.6582916000006662,1.6650905354817838,,psi_staircase_training,emotion,,123.15505271238727,123.15505271238727,23.86267166612523,307.23933359999864,179,22,female,True,3071,3078,False,False,expiration,expiration
58,117.0,25,M,up,0.5767306999987339,1.846544278254524,,psi_staircase_training,emotion,,116.72664759921038,116.72664759921038,20.612160618334435,310.10590800000136,179,22,female,True,3100,3106,False,False,inspiration,expiration
59,107.0,25,F,up,0.8051085999977659,1.0857085437477216,,psi_staircase_training,emotion,,111.41772370799677,111.41772370799677,20.39996786109954,312.1225061000005,179,22,female,True,3120,3128,False,False,inspiration,peak
60,91.0,25,F,down,0.8795623000005435,1.1619143976967456,,psi_staircase_training,emotion,,104.32443105099111,104.32443105099111,26.32628876540062,314.4390695000002,179,22,female,True,3143,3152,False,False,inspiration,inspiration
61,93.0,25,M,down,0.5259767000025022,1.4967472882867199,,psi_staircase_training,emotion,,107.92512315738632,107.92512315738632,23.700331269421763,317.15560739999995,179,22,female,True,3170,3175,False,False,inspiration,inspiration
62,124.0,25,F,down,0.5317778999997245,1.1854022212495865,,psi_staircase_training,emotion,,110.22796413543165,110.22796413543165,21.45892762814926,319.2388867000009,179,22,female,True,3191,3196,False,False,inspiration,inspiration
63,136.0,25,F,up,0.7777793000022939,0.8296490369578762,,psi_staircase_training,emotion,,116.16830498100494,116.16830498100494,28.222669225882395,320.9388375000017,179,22,female,True,3208,3216,False,False,expiration,inspiration
64,135.0,25,F,up,0.8337716999994882,0.34186795931219205,,psi_staircase_training,emotion,,114.08183245391676,114.08183245391676,26.53317734822661,322.4388303999985,179,22,female,True,3223,3231,False,False,inspiration,expiration
65,93.0,25,M,down,0.595259999998234,0.7008783450279289,,psi_staircase_training,emotion,,112.53840227939777,112.53840227939777,25.007941771224502,324.3053513000013,179,22,female,True,3242,3248,False,False,inspiration,inspiration
66,133.0,25,M,down,1.1840166000001773,1.8390078277804431,,psi_staircase_training,emotion,,114.04009940438408,114.04009940438408,23.369363775219664,327.0885608999997,179,22,female,True,3270,3282,False,False,inspiration,expiration
67,143.0,25,F,down,0.5470322000001033,0.6665286141026112,,psi_staircase_training,emotion,,118.82296656559922,118.82296656559922,29.302244053370643,329.28853439999875,179,22,female,True,3292,3297,False,False,inspiration,inspiration
68,150.0,25,F,up,0.5962194999992789,1.7495285200865396,,psi_staircase_training,emotion,,124.17810929752319,124.17810929752319,34.27637309971249,331.9383978000005,179,22,female,True,3318,3324,False,False,inspiration,inspiration
69,150.0,25,M,down,0.9863220999977784,1.91698177102932,,psi_staircase_training,emotion,,122.54840332431884,122.54840332431884,33.27326122925509,334.78831649999853,179,22,female,True,3347,3357,False,False,inspiration,expiration
70,155.0,25,M,up,0.5191281000006711,0.9392284881664624,,psi_staircase_training,emotion,,127.59736250701164,127.59736250701164,36.874013416526154,337.0714599999992,179,22,female,True,3370,3375,False,False,inspiration,inspiration
71,154.0,25,M,up,0.646476600002643,1.3313414727995359,,psi_staircase_training,emotion,,126.069414269007,126.069414269007,36.12985103236058,339.2881245999997,179,22,female,True,3392,3398,False,False,expiration,inspiration
72,96.0,25,M,down,0.588881700001366,0.7586154030917298,,psi_staircase_training,emotion,,124.72448787910902,124.72448787910902,35.40474290308282,341.05470409999907,179,22,female,True,3409,3415,False,False,peak,expiration
73,155.0,25,F,up,0.8103983000000881,1.6919976660654912,,psi_staircase_training,emotion,,125.92914949042192,125.92914949042192,34.6737222592096,343.6711590999985,179,22,female,True,3436,3444,False,False,expiration,expiration
74,95.0,25,F,down,0.5016605000018899,0.34195053687315624,,psi_staircase_training,emotion,,124.80961714767416,124.80961714767416,33.905992780508534,345.18790029999946,179,22,female,True,3451,3456,False,False,inspiration,inspiration
75,155.0,25,F,down,0.6597283000010066,0.3620370268903901,,psi_staircase_training,emotion,,125.81181734143995,125.81181734143995,33.140291098946406,346.38786360000086,179,22,female,True,3463,3470,False,False,expiration,expiration
76,160.0,25,M,down,0.44020730000193,0.9648434848969032,,psi_staircase_training,emotion,,129.7874567204951,129.7874567204951,36.434290046478075,348.3713672000012,179,22,female,True,3483,3487,False,False,expiration,expiration
77,163.0,25,M,up,0.3499015999987023,1.4120676124014897,,psi_staircase_training,emotion,,133.78116020347485,133.78116020347485,38.89598643368301,350.5712851999997,179,22,female,True,3505,3508,False,False,inspiration,expiration
78,163.0,25,F,up,0.5689587999986543,1.070676964184178,,psi_staircase_training,emotion,,132.6055986486529,132.6055986486529,38.3645221422492,352.3876230999995,179,22,female,True,3523,3529,False,False,expiration,expiration
79,163.0,25,F,down,0.5790545999989263,1.740759839899579,,psi_staircase_training,emotion,,131.55344965768688,131.55344965768688,37.84062531713931,355.03751689999984,179,22,female,True,3549,3555,False,False,expiration,expiration
80,164.0,25,M,down,0.4771213999993051,0.8570641328503488,,psi_staircase_training,emotion,,135.10092541884796,135.10092541884796,39.77755715412212,356.83744560000196,179,22,female,True,3567,3572,False,False,inspiration,expiration
81,165.0,25,M,down,0.5727703000011388,0.3534956481765376,,psi_staircase_training,emotion,,138.48013844591586,138.48013844591586,41.13315111196364,358.0207345999988,179,22,female,True,3579,3585,False,False,expiration,inspiration
82,0.29,25,up,down,0.6248271999975259,1.7937919132631526,,psi_staircase,cRDM,,0.25,0.25693124029946324,0.10500000000000002,376.1367037999989,179,22,female,True,3760,3766,False,False,inspiration,inspiration
83,0.39,25,up,down,0.49743769999986404,0.5543318139720221,,psi_staircase,cRDM,,0.3546095744690497,0.36161092129536426,0.10606203002656786,377.57003149999946,179,22,female,True,3775,3780,False,False,expiration,expiration
84,0.45,25,down,down,0.454388400001335,0.8236465236981836,,psi_staircase,cRDM,,0.4150689485921841,0.4216473382772667,0.09965473524084284,379.1531246000013,179,22,female,True,3791,3796,False,False,inspiration,expiration
85,0.44,25,down,down,0.5797452000006159,1.6495659927610244,,psi_staircase,cRDM,,0.4054457120615717,0.4121127131824852,0.10099709250451644,381.5198563000012,179,22,female,True,3814,3820,False,False,inspiration,peak
86,0.43,25,up,up,0.6256211999971129,0.490585079738529,,psi_staircase,cRDM,,0.3958107273700079,0.4025120380008885,0.10151684054251513,382.8529507999992,179,22,female,True,3828,3834,False,False,expiration,trough
87,0.43,25,down,up,1.25292879999688,1.2174112522420997,,psi_staircase,cRDM,,0.3860412409781549,0.3927592277984973,0.1017694648662767,384.96957929999917,179,22,female,True,3849,3862,False,False,expiration,inspiration
88,0.46,25,up,down,0.6188901000023179,0.530112473577838,,psi_staircase,cRDM,,0.4227691215316404,0.4298901011346566,0.10787432349944658,387.01964260000017,179,22,female,True,3869,3875,False,False,peak,expiration
89,0.47,25,down,down,0.5622829999992973,0.9179895425799992,,psi_staircase,cRDM,,0.4468582608104146,0.4542972616066916,0.11269196418851235,388.8362409000002,179,22,female,True,3887,3893,False,False,inspiration,inspiration
90,0.47,25,down,down,0.4906903999981296,0.3395556075856811,,psi_staircase,cRDM,,0.44123851204991105,0.44893540451445857,0.11659871449559775,390.00284960000135,179,22,female,True,3899,3904,False,False,expiration,expiration
91,0.45,25,up,up,0.5460554999990563,1.0645151873973129,,psi_staircase,cRDM,,0.4359515752506168,0.443784941938978,0.11866613574797273,391.8194551000015,179,22,female,True,3917,3922,False,False,inspiration,expiration
92,0.45,25,down,down,0.5393881000018155,1.2496905669102247,,psi_staircase,cRDM,,0.4293706093391092,0.4375472206252553,0.12386588084557106,393.88608290000053,179,22,female,True,3938,3943,False,False,inspiration,expiration
93,0.46,25,down,down,0.5945843999979843,1.552272024842536,,psi_staircase,cRDM,,0.422910061602014,0.4313132718405997,0.127298583937397,396.23593980000084,179,22,female,True,3961,3967,False,False,inspiration,expiration
94,0.47,25,down,down,0.6299790000011853,1.5251464941454391,,psi_staircase,cRDM,,0.4174032680408066,0.42581537920031703,0.12743342224291276,398.6025339000007,179,22,female,True,3985,3991,False,False,inspiration,expiration
95,0.43,25,up,down,0.5857347999990452,1.1503903706839933,,psi_staircase,cRDM,,0.4129747730381843,0.4212429769970827,0.12525340028271206,400.6357734000012,179,22,female,True,4005,4011,False,False,inspiration,inspiration
96,0.48,25,up,down,0.4638046000000031,0.7082415087686542,,psi_staircase,cRDM,,0.43382248887947866,0.44123617808804333,0.112308523910155,402.1857067000019,179,22,female,True,4021,4026,False,False,expiration,trough
97,0.47,25,down,down,0.6728417000012996,1.4230593616417424,,psi_staircase,cRDM,,0.4464837456767473,0.4553900754125055,0.134920242532499,404.3356375000003,179,22,female,True,4042,4049,False,False,expiration,expiration
98,0.47,25,down,down,0.6059176000017032,0.7532360894263526,,psi_staircase,cRDM,,0.4425833894957391,0.4515977541948896,0.13655684300601986,406.0355892000007,179,22,female,True,4059,4065,False,False,inspiration,expiration
99,0.48,25,up,up,0.6959577999987232,0.8335802802912566,,psi_staircase,cRDM,,0.43880862255792863,0.4478634751113309,0.1371701855699421,407.7355107000003,179,22,female,True,4076,4083,False,False,expiration,inspiration
100,0.48,25,up,down,0.6565187999985937,0.6637729863447049,,psi_staircase,cRDM,,0.4355726688194814,0.4445496398438463,0.13599037356002533,409.3519789999992,179,22,female,True,4093,4100,False,False,expiration,expiration
101,0.46,25,up,down,0.5667963999985659,1.6423734307133824,,psi_staircase,cRDM,,0.4482797298411905,0.4577311733487247,0.1431780641580032,411.9186823000018,179,22,female,True,4118,4124,False,False,expiration,expiration
102,0.52,25,up,down,0.4789057000016328,1.6532343327990129,,psi_staircase,cRDM,,0.4586495417580117,0.4676402111686626,0.13619788772746105,414.4185757000014,179,22,female,True,4143,4148,False,False,expiration,expiration
103,0.63,25,down,up,0.7298274999993737,1.3871926764925722,,psi_staircase,cRDM,,0.4637670507777936,0.4737501799529749,0.1512324660674662,416.55167480000085,179,22,female,True,4165,4172,False,False,inspiration,expiration
104,0.64,25,down,down,0.5013438999994833,0.835407100259626,,psi_staircase,cRDM,,0.4680911539405611,0.4792267608244267,0.1686911248620874,418.38510769999993,179,22,female,True,4183,4188,False,False,inspiration,inspiration
105,0.64,25,down,up,0.8938030999997864,1.4632415568580908,,psi_staircase,cRDM,,0.4676745306455158,0.4787146707118314,0.16724491676517286,420.60167870000083,179,22,female,True,4205,4214,False,False,inspiration,expiration
106,0.65,25,up,down,0.4782656999996106,1.0024193026487032,,psi_staircase,cRDM,,0.4715505617127114,0.483511621192503,0.18119574435694707,422.76827780000167,179,22,female,True,4227,4232,False,False,inspiration,inspiration
107,0.64,25,up,up,0.7566528999996079,1.567047451982175,,psi_staircase,cRDM,,0.4751246394348948,0.4876913156579253,0.19037011363181075,425.08485429999934,179,22,female,True,4250,4258,False,False,trough,inspiration
108,0.65,25,down,down,0.6463812000001781,1.362464468043831,,psi_staircase,cRDM,,0.4747001278414895,0.4872257311242048,0.1897479077138543,427.46810209999967,179,22,female,True,4274,4280,False,False,expiration,inspiration
109,0.65,25,down,up,0.6183119000015722,1.5839996020711278,,psi_staircase,cRDM,,0.4742998771839488,0.4867831549790661,0.1891067272027505,429.9511816000013,179,22,female,True,4299,4305,False,False,expiration,trough
110,0.64,25,up,down,0.4556995999992069,1.2195539823755763,,psi_staircase,cRDM,,0.4776028330071147,0.4904516891958143,0.19464480259296815,432.06782060000114,179,22,female,True,4320,4325,False,False,expiration,expiration
111,0.63,25,up,down,0.4299747000004572,1.329958178302458,,psi_staircase,cRDM,,0.4804648116332806,0.4934902775236826,0.19732022832884927,434.1344888999992,179,22,female,True,4340,4344,False,False,inspiration,expiration
112,0.62,25,down,down,0.3672454000006837,0.9341878856442548,,psi_staircase,cRDM,,0.4828531175090994,0.4959631124916055,0.19860074296799915,435.7511025999993,179,22,female,True,4356,4360,False,False,inspiration,inspiration
113,0.62,25,up,down,0.7188502999997581,0.3249972977546643,,psi_staircase,cRDM,,0.4825275577715359,0.4956307173662433,0.1984971950187351,436.76757670000006,179,22,female,True,4367,4374,False,False,expiration,expiration
114,0.6,25,down,down,1.227765100000397,0.9685414300144772,,psi_staircase,cRDM,,0.48454939686790793,0.4976970221369496,0.19917079679899,438.71769090000083,179,22,female,True,4386,4398,False,False,inspiration,expiration
115,0.6,25,up,up,0.6002189999999246,0.3295631466387619,,psi_staircase,cRDM,,0.4842383124194505,0.4973820164792906,0.19911139516979032,440.53424649999937,179,22,female,True,4404,4410,False,False,expiration,inspiration
116,0.61,25,down,down,0.4798719000027632,0.4318234884486076,,psi_staircase,cRDM,,0.4839195796510363,0.4970590935911066,0.19904791986713047,441.8175416999984,179,22,female,True,4417,4422,False,False,peak,expiration
117,0.61,25,up,up,0.5126478999991377,1.2896904793589772,,psi_staircase,cRDM,,0.4836073916507899,0.4967423022237724,0.19897818436188916,443.85078830000197,179,22,female,True,4437,4442,False,False,inspiration,inspiration
118,0.61,25,down,down,0.4193190000005416,0.4623168193767745,,psi_staircase,cRDM,,0.4832880195707832,0.4964180051629482,0.19890357679333295,445.0840973000013,179,22,female,True,4450,4454,False,False,expiration,expiration
119,0.61,25,up,up,0.5710951999972167,1.9486400675307995,,psi_staircase,cRDM,,0.4829613281263375,0.4960860464586122,0.19882378410622584,447.71733070000124,179,22,female,True,4476,4482,False,False,expiration,expiration
120,0.61,25,up,up,0.8163486999983434,1.8171078730713923,,psi_staircase,cRDM,,0.4826271849576187,0.4957462719703449,0.1987384763507516,450.3670741999995,179,22,female,True,4503,4511,False,False,expiration,expiration
121,0.61,25,down,down,0.4335108000013861,0.5187974336639534,,psi_staircase,cRDM,,0.4822854613057308,0.4953985300090121,0.1986473061612312,451.966950500002,179,22,female,True,4519,4523,False,False,inspiration,inspiration
122,0.62,25,down,down,0.4407080999990285,0.7371934997344103,,psi_staircase,cRDM,,0.4819360327451127,0.4950426720371165,0.1985499082706696,453.38378899999947,179,22,female,True,4533,4537,False,False,expiration,expiration
123,0.62,25,down,down,0.4887348000011116,1.1439844169064664,,psi_staircase,cRDM,,0.4815956153493342,0.4946952838027648,0.19844430840418675,455.23368860000124,179,22,female,True,4551,4556,False,False,expiration,expiration
124,0.62,25,up,down,0.3672092999986489,1.0325974718402446,,psi_staircase,cRDM,,0.4812481655584545,0.4943403854656626,0.19833147183821004,457.01695299999847,179,22,female,True,4569,4573,False,False,inspiration,inspiration
125,0.6,25,up,down,0.3840816000010818,1.291579264278927,,psi_staircase,cRDM,,0.4834220421954404,0.4965630403511651,0.19907040395900674,458.9835884999993,179,22,female,True,4589,4593,False,False,expiration,inspiration
126,0.59,25,down,down,0.435925199999474,1.0628028461178187,,psi_staircase,cRDM,,0.4852036145516391,0.4983676223656108,0.19941897275932866,460.73348289999916,179,22,female,True,4606,4610,False,False,expiration,expiration
127,0.59,25,down,down,0.4196654000006674,1.1879808170965416,,psi_staircase,cRDM,,0.4849040920017614,0.4980654994912473,0.19937958095364774,462.61674639999916,179,22,female,True,4625,4629,False,False,inspiration,expiration
128,0.59,25,down,down,0.5891827000014018,0.7343612854257489,,psi_staircase,cRDM,,0.4845971148693314,0.4977557534991609,0.1993376360417176,464.0502885999995,179,22,female,True,4640,4646,False,False,expiration,inspiration
129,0.59,25,up,up,0.6777894000006199,1.5074868156949215,,psi_staircase,cRDM,,0.4842824981395514,0.4974381892732404,0.1992929850007233,466.4166088999992,179,22,female,True,4663,4670,False,False,expiration,trough
130,0.6,25,up,up,0.5558763000008184,1.0077301056208707,,psi_staircase,cRDM,,0.4839600550551885,0.4971126094378167,0.19924546697405607,468.366524699999,179,22,female,True,4683,4689,False,False,expiration,expiration
131,0.6,25,up,down,0.5843160999975225,1.7486356383673085,,psi_staircase,cRDM,,0.4836433788123833,0.4967924392633367,0.19919253808831594,470.9331198,179,22,female,True,4708,4714,False,False,expiration,expiration
132,100.0,25,M,down,0.6421802999975625,0.6240022891130071,,psi_staircase,emotion,,100.0,100.0,25.00050000000001,476.96622729999945,179,22,female,True,4769,4775,False,False,expiration,inspiration
133,145.0,25,M,down,0.7240438000007998,0.4687002669686338,,psi_staircase,emotion,,145.25719053245996,145.25719053245996,25.000500000000283,478.4493681999993,179,22,female,True,4784,4791,False,False,expiration,expiration
134,168.0,25,F,up,0.3835287000001699,0.8245560654995365,,psi_staircase,emotion,,168.03875363226317,168.03875363226317,24.34819504815532,480.33276040000055,179,22,female,True,4802,4806,False,False,inspiration,peak
135,155.0,25,F,down,0.4833810000018275,0.8688532951839796,,psi_staircase,emotion,,155.004436652377,155.004436652377,25.558429500416704,481.96601699999877,179,22,female,True,4819,4824,False,False,expiration,inspiration
136,170.0,25,M,up,0.4454440000008617,0.4161642595434009,,psi_staircase,emotion,,165.44574296022685,165.44574296022685,24.967885397748628,483.21596700000015,179,22,female,True,4831,4835,False,False,peak,expiration
137,160.0,25,F,up,0.4523651999988942,0.890427761718541,,psi_staircase,emotion,,159.52669485581492,159.52669485581492,22.495191219702527,484.89924280000196,179,22,female,True,4848,4853,False,False,inspiration,inspiration
138,147.0,25,M,up,0.3834664999994857,1.6235615972930448,,psi_staircase,emotion,,153.1208070803471,153.1208070803471,23.19092239554965,487.29918480000197,179,22,female,True,4872,4876,False,False,inspiration,inspiration
139,131.0,25,F,up,0.35015410000050906,0.6485653391931742,,psi_staircase,emotion,,144.11172588590583,144.11172588590583,29.605855662144407,488.7157656999989,179,22,female,True,4886,4890,False,False,expiration,expiration
140,118.0,25,F,up,0.4168212000004132,1.5025457661482946,,psi_staircase,emotion,,133.8520861314293,133.8520861314293,34.35131506104172,490.98233940000136,179,22,female,True,4909,4913,False,False,expiration,expiration
141,108.0,25,M,down,1.014781399997446,1.5588851198058875,,psi_staircase,emotion,,123.68937544939743,123.68937544939743,37.32430622361097,493.315590000002,179,22,female,True,4932,4942,False,False,inspiration,expiration
142,113.0,25,F,down,0.5831659000032232,0.3957567424767868,,psi_staircase,emotion,,128.71838529850842,128.71838529850842,36.320703000281625,495.0821827,179,22,female,True,4950,4956,False,False,inspiration,inspiration
143,117.0,25,F,down,0.4666186000031303,0.6750845576587686,,psi_staircase,emotion,,132.69658451350887,132.69658451350887,35.39782691370229,496.69879690000016,179,22,female,True,4966,4971,False,False,expiration,expiration
144,116.0,25,F,down,0.4001867000006314,0.6842883657720091,,psi_staircase,emotion,,136.04160300639012,136.04160300639012,34.577639978321315,498.23206080000085,179,22,female,True,4981,4985,False,False,inspiration,expiration
145,161.0,25,M,down,0.5473525000015798,1.890983916102816,,psi_staircase,emotion,,138.60010578601015,138.60010578601015,33.7693054271839,500.88200539999883,179,22,female,True,5008,5013,False,False,inspiration,peak
146,168.0,25,M,down,0.4168208000010054,0.5179702292100821,,psi_staircase,emotion,,144.9923147494499,144.9923147494499,36.57303167087746,502.29856849999845,179,22,female,True,5022,5026,False,False,expiration,trough
147,173.0,25,F,up,0.8913713000001735,0.8790534909311154,,psi_staircase,emotion,,151.12857111616714,151.12857111616714,38.71600006601373,503.9650115000004,179,22,female,True,5039,5048,False,False,expiration,expiration
148,172.0,25,F,up,0.8946207999979379,1.4201883045068204,,psi_staircase,emotion,,148.75197127269197,148.75197127269197,38.06462405880853,506.6317506000014,179,22,female,True,5065,5074,False,False,expiration,expiration
149,171.0,25,M,down,0.6450360999988334,1.3224356420885552,,psi_staircase,emotion,,146.68420200396127,146.68420200396127,37.43686810686989,509.1983116000009,179,22,female,True,5091,5097,False,False,expiration,expiration
150,175.0,25,M,down,0.5937568000008469,1.0684001178696156,,psi_staircase,emotion,,151.71911830826147,151.71911830826147,39.10896388927578,511.2815799000018,179,22,female,True,5112,5118,False,False,inspiration,expiration
151,178.0,25,M,up,0.8141808999971545,0.6748256690776393,,psi_staircase,emotion,,156.49503697501356,156.49503697501356,40.43112035757493,512.8981447000006,179,22,female,True,5128,5136,False,False,trough,inspiration
152,177.0,25,M,up,0.5838503999984823,1.1286416321820811,,psi_staircase,emotion,,154.54454281450666,154.54454281450666,39.982322849862335,515.1814387000013,179,22,female,True,5151,5157,False,False,expiration,inspiration
153,130.0,25,F,down,0.5247041000002355,1.4136584061560646,,psi_staircase,emotion,,152.77642061720738,152.77642061720738,39.54600064273646,517.5146557000007,179,22,female,True,5174,5179,False,False,expiration,inspiration
154,181.0,25,F,up,0.4184021000000939,0.7055312904645321,,psi_staircase,emotion,,154.41407548585894,154.41407548585894,39.11540274562204,519.0979306000008,179,22,female,True,5190,5194,False,False,expiration,expiration
155,127.0,25,F,up,0.749153100001422,1.9032503654972768,,psi_staircase,emotion,,152.99598974405072,152.99598974405072,38.62135402213395,521.7811676999992,179,22,female,True,5217,5224,False,False,expiration,expiration
156,125.0,25,M,up,0.8326583000016399,1.1482345292981386,,psi_staircase,emotion,,149.1050896466164,149.1050896466164,40.044479525415724,524.0477299000013,179,22,female,True,5239,5247,False,False,inspiration,expiration
157,123.0,25,M,down,0.7963761999999406,1.6020303410950123,,psi_staircase,emotion,,145.4486801526325,145.4486801526325,41.089624064231735,526.8309807000005,179,22,female,True,5267,5275,False,False,expiration,expiration
158,123.0,25,F,down,0.6511317000004055,1.5487939982231775,,psi_staircase,emotion,,146.92011206613662,146.92011206613662,40.73860679890389,529.5142104000006,179,22,female,True,5294,5301,False,False,expiration,expiration
159,174.0,25,F,up,0.7668618999996397,1.3796369371865749,,psi_staircase,emotion,,148.2574474050161,148.2574474050161,40.39010801510295,531.8974603999994,179,22,female,True,5318,5326,False,False,peak,expiration
160,120.0,25,M,up,0.7233152999979211,1.3906030316515288,,psi_staircase,emotion,,147.03311151055854,147.03311151055854,40.01311731436434,534.4140239000009,179,22,female,True,5343,5350,False,False,inspiration,expiration
161,118.0,25,M,down,0.38354039999830997,1.2160871087158662,,psi_staircase,emotion,,143.7587980438434,143.7587980438434,41.14891420324634,536.6972916000013,179,22,female,True,5366,5370,False,False,inspiration,peak
162,119.0,25,F,down,0.3668536000004679,0.4898314225820191,,psi_staircase,emotion,,144.9328286936925,144.9328286936925,40.81126557997217,537.9472043999995,179,22,female,True,5378,5382,False,False,expiration,expiration
163,175.0,25,M,down,0.4001570000000356,1.5859577434681689,,psi_staircase,emotion,,146.03998074899104,146.03998074899104,40.47762237027533,540.2971392000001,179,22,female,True,5402,5406,False,False,expiration,expiration
164,175.0,25,F,down,0.7369736000000557,0.7095884187326734,,psi_staircase,emotion,,149.11930475378642,149.11930475378642,41.619225135644115,541.7473419999988,179,22,female,True,5417,5424,False,False,inspiration,expiration
165,175.0,25,M,up,0.6376679999993939,0.8927111092110471,,psi_staircase,emotion,,152.0117739578104,152.0117739578104,42.45235655074911,543.7136782000016,179,22,female,True,5436,5442,False,False,inspiration,inspiration
166,175.0,25,F,down,0.8334986000008939,1.569880566424624,,psi_staircase,emotion,,150.8492509482703,150.8492509482703,42.181256953710786,546.2468224000004,179,22,female,True,5462,5470,False,False,inspiration,peak
167,176.0,25,M,down,0.5615097999980208,0.5772033952928959,,psi_staircase,emotion,,153.50499203005683,153.50499203005683,42.8477939204815,547.996834900001,179,22,female,True,5479,5485,False,False,expiration,inspiration
168,176.0,25,F,up,0.5266224999977567,0.5530487905858934,,psi_staircase,emotion,,156.04725325886557,156.04725325886557,43.39893635343543,549.4467789000008,179,22,female,True,5494,5499,False,False,inspiration,expiration
169,176.0,25,M,up,0.5836097000028531,1.0820019726069088,,psi_staircase,emotion,,154.8773094440331,154.8773094440331,43.18396052202317,551.3967061000003,179,22,female,True,5513,5519,False,False,inspiration,inspiration
170,175.0,25,M,up,0.6352867999994487,0.4194877392205055,,psi_staircase,emotion,,153.7820855778863,153.7820855778863,42.96863566530258,552.7299863000006,179,22,female,True,5526,5532,False,False,expiration,expiration
171,130.0,25,F,up,0.4780343999991601,1.5526796834761658,,psi_staircase,emotion,,152.7310874464407,152.7310874464407,42.75680296382051,555.2632414,179,22,female,True,5552,5557,False,False,expiration,expiration
172,130.0,25,F,up,0.4001720999985992,1.3949906681779631,,psi_staircase,emotion,,150.48033725081382,150.48033725081382,43.25027921916668,557.4631444000006,179,22,female,True,5574,5578,False,False,expiration,expiration
173,129.0,25,F,up,0.3672035000017786,0.3504445210244012,,psi_staircase,emotion,,148.34526906752086,148.34526906752086,43.651542555668485,558.5797719000002,179,22,female,True,5585,5589,False,False,expiration,inspiration
174,128.0,25,M,up,0.3834835000016028,1.949772231921833,,psi_staircase,emotion,,146.2867992285732,146.2867992285732,44.00522983513359,561.2963329999984,179,22,female,True,5612,5616,False,False,inspiration,inspiration
175,127.0,25,M,up,0.3834874000021955,1.5740927086051253,,psi_staircase,emotion,,144.29838117268247,144.29838117268247,44.320616040900696,563.6295824000008,179,22,female,True,5635,5639,False,False,expiration,inspiration
176,126.0,25,F,up,0.4002771999985271,0.7148880519566367,,psi_staircase,emotion,,142.3741983421803,142.3741983421803,44.60452227636665,565.0961845999991,179,22,female,True,5650,5654,False,False,expiration,expiration
177,125.0,25,F,up,0.6191361000019242,1.1315673697283888,,psi_staircase,emotion,,140.50906044931054,140.50906044931054,44.86211259127785,566.9961146999995,179,22,female,True,5669,5675,False,False,inspiration,inspiration
178,123.0,25,F,up,0.4649133999992046,0.7020798480977692,,psi_staircase,emotion,,138.69831979385734,138.69831979385734,45.09738834273879,568.679379600002,179,22,female,True,5686,5691,False,False,inspiration,inspiration
179,122.0,25,M,up,0.5170180999994045,1.337961620125669,,psi_staircase,emotion,,136.91049716553465,136.91049716553465,45.32640254007136,570.8292827000006,179,22,female,True,5707,5712,False,False,expiration,inspiration
180,121.0,25,M,up,0.30016609999802313,1.4701531206084288,,psi_staircase,emotion,,135.17031466208434,135.17031466208434,45.536391884315755,573.1625533000006,179,22,female,True,5731,5734,False,False,expiration,expiration
181,120.0,25,M,up,0.6981152000007569,0.4090617093672261,,psi_staircase,emotion,,133.47432726653645,133.47432726653645,45.729870179730405,574.3291502999999,179,22,female,True,5742,5749,False,False,inspiration,peak
182,0.4853698961504133,25,down,up,0.6537779999998747,0.5651058113960538,,experiment,cRDM,0.0,,,,583.7454690999984,179,22,female,True,5837,5844,True,True,expiration,expiration
183,0.4853698961504133,25,up,down,0.41666519999853335,1.7758721005068174,,experiment,cRDM,0.0,,,,586.4453853000014,179,22,female,True,5863,5867,False,False,expiration,expiration
184,0.4853698961504133,25,down,up,0.5469601000004332,1.011471543678079,,experiment,cRDM,0.0,,,,588.1452992999984,179,22,female,True,5880,5885,False,False,inspiration,inspiration
185,0.4853698961504133,25,up,down,0.5193768999997701,1.6590828479326087,,experiment,cRDM,0.0,,,,590.6118849999984,179,22,female,True,5905,5910,False,False,inspiration,inspiration
186,0.4853698961504133,25,down,up,0.9197910999973828,1.7294048983977406,,experiment,cRDM,0.0,,,,593.1284558000008,179,22,female,True,5930,5939,False,False,peak,expiration
187,0.4853698961504133,25,down,down,0.8828622000000905,0.3176041055969183,,experiment,cRDM,0.0,,,,594.6283801999998,179,22,female,True,5945,5954,False,False,expiration,inspiration
188,0.4853698961504133,25,up,up,0.7742693000000145,1.9313416700583157,,experiment,cRDM,0.0,,,,597.6949615000012,179,22,female,True,5976,5984,False,False,inspiration,expiration
189,0.4853698961504133,25,down,down,0.6690505000005942,0.5057335932033962,,experiment,cRDM,0.0,,,,599.2282092999994,179,22,female,True,5991,5998,False,False,expiration,inspiration
190,0.4853698961504133,25,up,up,0.6195174000022234,1.4709765833215145,,experiment,cRDM,0.0,,,,601.6281173999996,179,22,female,True,6015,6021,False,False,expiration,inspiration
191,0.4853698961504133,25,up,up,0.7572041000021272,1.7697188459437398,,experiment,cRDM,0.0,,,,604.2780569999994,179,22,female,True,6042,6050,False,False,expiration,inspiration
192,0.4853698961504133,25,down,down,0.5837181999995664,0.5034646408932764,,experiment,cRDM,0.0,,,,605.7946396000008,179,22,female,True,6057,6063,False,False,expiration,expiration
193,0.4853698961504133,25,up,up,0.8337290000017674,1.024294353297354,,experiment,cRDM,0.0,,,,607.661495700002,179,22,female,True,6076,6084,False,False,inspiration,expiration
194,0.4853698961504133,25,up,up,1.1744161999995413,1.362367894286243,,experiment,cRDM,0.0,,,,610.1278012000002,179,22,female,True,6100,6112,False,False,inspiration,expiration
195,0.4853698961504133,25,up,down,0.8235109000015655,0.9079805193085062,,experiment,cRDM,0.0,,,,612.4777272999999,179,22,female,True,6124,6132,False,False,inspiration,expiration
196,0.4853698961504133,25,down,down,0.5325459999985469,1.2488863351315476,,experiment,cRDM,0.0,,,,614.8276864000001,179,22,female,True,6147,6152,False,False,inspiration,expiration
197,0.4853698961504133,25,down,down,0.38387579999835,0.39369253368418056,,experiment,cRDM,0.0,,,,616.027574300002,179,22,female,True,6159,6163,False,False,expiration,expiration
198,0.4853698961504133,25,up,up,0.547804099998757,0.6239904710272168,,experiment,cRDM,0.0,,,,617.3274592999987,179,22,female,True,6172,6177,False,False,inspiration,expiration
199,0.4853698961504133,25,up,up,0.5867766000010306,0.9449778882139032,,experiment,cRDM,0.0,,,,619.0774544000013,179,22,female,True,6190,6196,False,False,trough,inspiration
200,0.4853698961504133,25,down,down,0.5315493999987666,1.5370748995345531,,experiment,cRDM,0.0,,,,621.4607104999994,179,22,female,True,6214,6219,False,False,expiration,inspiration
201,0.4853698961504133,25,down,up,0.6939586000007694,1.17766086628689,,experiment,cRDM,0.0,,,,623.4273022999988,179,22,female,True,6233,6240,False,False,expiration,expiration
202,0.4853698961504133,25,up,up,0.6499742000014521,0.5078894820535751,,experiment,cRDM,0.0,,,,624.8772562999984,179,22,female,True,6248,6254,False,False,inspiration,inspiration
203,0.4853698961504133,25,down,down,0.6184245000004012,1.8053048804881784,,experiment,cRDM,0.0,,,,627.5937946999984,179,22,female,True,6275,6281,False,False,inspiration,expiration
204,0.4853698961504133,25,up,up,0.9091482000003452,1.2757381152115803,,experiment,cRDM,0.0,,,,629.7439889000016,179,22,female,True,6297,6306,False,False,inspiration,expiration
205,0.4853698961504133,25,down,up,0.5999449000009918,1.2029810020317693,,experiment,cRDM,0.0,,,,632.1102948000008,179,22,female,True,6320,6326,False,False,expiration,inspiration
206,0.4853698961504133,25,down,down,0.5659657000032894,1.2850851171004374,,experiment,cRDM,0.0,,,,634.2602488000011,179,22,female,True,6342,6348,False,False,expiration,expiration
207,0.4853698961504133,25,up,up,0.5519872999975632,0.9676173961473196,,experiment,cRDM,0.0,,,,636.0601824000005,179,22,female,True,6360,6366,False,False,inspiration,expiration
208,0.4853698961504133,25,up,up,0.5261116000001493,1.885633196862042,,experiment,cRDM,0.0,,,,638.7600424000011,179,22,female,True,6387,6392,False,False,inspiration,expiration
209,0.4853698961504133,25,down,up,0.40024279999852297,0.8122821868448009,,experiment,cRDM,0.0,,,,640.3600188000019,179,22,female,True,6403,6407,False,False,inspiration,inspiration
210,0.4853698961504133,25,up,up,0.4182193999986339,1.324097958903435,,experiment,cRDM,0.0,,,,642.3599352000019,179,22,female,True,6423,6427,False,False,expiration,expiration
211,0.4853698961504133,25,down,up,0.6213004999990517,0.9205679897586334,,experiment,cRDM,0.0,,,,643.9599043999988,179,22,female,True,6439,6445,False,False,inspiration,expiration
212,0.4853698961504133,25,up,up,0.4002459999974235,1.9846424140306895,,experiment,cRDM,0.0,,,,646.826409199999,179,22,female,True,6467,6471,False,False,expiration,expiration
213,0.4853698961504133,25,down,up,0.41793329999927664,1.6314742759584413,,experiment,cRDM,0.0,,,,649.1432544000018,179,22,female,True,6491,6495,False,False,peak,expiration
214,0.4853698961504133,25,up,up,0.7152516999994987,0.4787584716314926,,experiment,cRDM,0.0,,,,650.2929382000002,179,22,female,True,6502,6509,False,False,expiration,inspiration
215,0.4853698961504133,25,down,up,1.2990279999976335,0.9679097759949781,,experiment,cRDM,0.0,,,,652.2431295999995,179,22,female,True,6522,6535,False,False,expiration,expiration
216,0.4853698961504133,25,up,up,0.6076792999992904,1.0276028709684641,,experiment,cRDM,0.0,,,,654.8094758000008,179,22,female,True,6547,6553,False,False,inspiration,peak
217,0.4853698961504133,25,down,down,0.4498822999994445,1.9741638106117831,,experiment,cRDM,0.0,,,,657.6593226000006,179,22,female,True,6576,6580,False,False,inspiration,peak
218,0.4853698961504133,25,up,down,0.3505274000017381,1.2259531015709968,,experiment,cRDM,0.0,,,,659.6092413000006,179,22,female,True,6595,6599,False,False,inspiration,inspiration
219,0.4853698961504133,25,down,up,0.6283523000020068,1.9310000351527858,,experiment,cRDM,0.0,,,,662.2258135000011,179,22,female,True,6621,6627,False,False,expiration,expiration
220,0.4853698961504133,25,up,up,0.6180810000005295,0.44360630769681975,,experiment,cRDM,0.0,,,,663.5590883000003,179,22,female,True,6635,6641,False,False,inspiration,inspiration
221,0.4853698961504133,25,down,up,0.4485429000014847,0.41028414229457577,,experiment,cRDM,0.0,,,,664.8426471999992,179,22,female,True,6648,6652,False,False,expiration,expiration
222,0.4853698961504133,25,down,up,0.4166732999983651,0.3721713947995489,,experiment,cRDM,0.0,,,,665.9256762000006,179,22,female,True,6658,6662,False,False,expiration,inspiration
223,0.4853698961504133,25,up,down,0.5346076999994693,1.2727107218218658,,experiment,cRDM,0.0,,,,667.875609900002,179,22,female,True,6678,6683,False,False,expiration,expiration
224,0.4853698961504133,25,down,up,0.4276479000000109,0.6423404961019545,,experiment,cRDM,0.0,,,,669.3255075000015,179,22,female,True,6692,6696,False,False,inspiration,inspiration
225,0.4853698961504133,25,up,up,0.637320699999691,1.5367351721666394,,experiment,cRDM,0.0,,,,671.5588467000016,179,22,female,True,6715,6721,False,False,inspiration,inspiration
226,0.4853698961504133,25,up,down,0.6091035000026751,1.636158433296884,,experiment,cRDM,0.0,,,,674.0920315000002,179,22,female,True,6740,6746,False,False,inspiration,inspiration
227,0.4853698961504133,25,down,down,0.5457314999985101,1.795568703020879,,experiment,cRDM,0.0,,,,676.7584356000008,179,22,female,True,6767,6772,False,False,inspiration,inspiration
228,0.4853698961504133,25,down,down,0.4445560000021942,1.5973920460652395,,experiment,cRDM,0.0,,,,679.1585496000008,179,22,female,True,6791,6795,False,False,inspiration,inspiration
229,0.4853698961504133,25,up,down,0.4387661000000662,1.1879211732424917,,experiment,cRDM,0.0,,,,681.0582814000009,179,22,female,True,6810,6814,False,False,expiration,expiration
230,0.4853698961504133,25,down,down,0.534794499999407,0.30516708537618137,,experiment,cRDM,0.0,,,,682.0583110000008,179,22,female,True,6820,6825,False,False,inspiration,inspiration
231,0.4853698961504133,25,up,down,0.5048419000013382,1.6582099757448934,,experiment,cRDM,0.0,,,,684.5083000000012,179,22,female,True,6844,6849,False,False,inspiration,inspiration
232,0.4853698961504133,25,up,down,0.4966032999982417,1.0194453744819256,,experiment,cRDM,0.0,,,,686.2915605999988,179,22,female,True,6862,6867,False,False,expiration,expiration
233,0.4853698961504133,25,up,down,0.5950837000018511,1.5610703220508562,,experiment,cRDM,0.0,,,,688.6081330999988,179,22,female,True,6885,6891,False,False,expiration,expiration
234,0.4853698961504133,25,up,up,0.6027424999992945,1.3412401660353703,,experiment,cRDM,0.0,,,,690.791384600001,179,22,female,True,6907,6913,False,False,inspiration,expiration
235,0.4853698961504133,25,up,up,0.4641133999975864,0.3709614379561109,,experiment,cRDM,0.0,,,,692.0080139999991,179,22,female,True,6919,6924,False,False,expiration,inspiration
236,0.4853698961504133,25,down,down,0.8035142999979143,1.2936106268513707,,experiment,cRDM,0.0,,,,694.0245919000008,179,22,female,True,6939,6947,False,False,expiration,expiration
237,0.4853698961504133,25,down,up,0.6238986999996996,1.3814057762832408,,experiment,cRDM,0.0,,,,696.4911769999999,179,22,female,True,6964,6970,False,False,expiration,expiration
238,0.4853698961504133,25,down,down,0.4360395000003337,1.3790164106302958,,experiment,cRDM,0.0,,,,698.7580613999999,179,22,female,True,6987,6991,False,False,peak,expiration
239,0.4853698961504133,25,up,down,0.4538556000006793,1.9677448584133372,,experiment,cRDM,0.0,,,,701.4243276999988,179,22,female,True,7013,7018,False,False,expiration,expiration
240,0.4853698961504133,25,down,down,0.7542098000012629,0.41798341410071294,,experiment,cRDM,0.0,,,,702.5578845999989,179,22,female,True,7025,7033,False,False,expiration,inspiration
241,0.4853698961504133,25,down,up,0.4598949999999604,1.4545322255867192,,experiment,cRDM,0.0,,,,705.0241805000005,179,22,female,True,7049,7054,False,False,expiration,inspiration
242,0.4853698961504133,25,down,down,0.4002562999994552,1.8335302873415331,,experiment,cRDM,0.0,,,,707.5907531000012,179,22,female,True,7075,7079,False,False,expiration,expiration
243,0.4853698961504133,25,up,down,0.31718610000098124,1.0764210177976148,,experiment,cRDM,0.0,,,,709.3573553999995,179,22,female,True,7093,7096,False,False,expiration,expiration
244,0.4853698961504133,25,down,down,0.7938115999968431,1.8691550993436947,,experiment,cRDM,0.0,,,,711.9072493999993,179,22,female,True,7118,7126,False,False,inspiration,expiration
245,0.4853698961504133,25,up,up,0.5546013999992283,0.33673172646099003,,experiment,cRDM,0.0,,,,713.2905371999988,179,22,female,True,7132,7138,False,False,expiration,inspiration
246,0.4853698961504133,25,up,down,0.4796623000002001,1.18562257903001,,experiment,cRDM,0.0,,,,715.2904516999988,179,22,female,True,7152,7157,False,False,expiration,expiration
247,0.4853698961504133,25,down,up,0.4168857999975444,0.8883202471092673,,experiment,cRDM,0.0,,,,716.9237446000006,179,22,female,True,7168,7172,False,False,inspiration,expiration
248,0.4853698961504133,25,up,down,0.4212239000007685,0.4512004734854167,,experiment,cRDM,0.0,,,,718.0568487000019,179,22,female,True,7180,7184,False,False,expiration,expiration
249,0.4853698961504133,25,down,up,0.44180929999856733,1.8652781106872625,,experiment,cRDM,0.0,,,,720.5902657000006,179,22,female,True,7205,7209,False,False,expiration,expiration
250,0.4853698961504133,25,up,down,0.4295072999993863,0.7919847847428727,,experiment,cRDM,0.0,,,,722.0735644999986,179,22,female,True,7220,7224,False,False,inspiration,expiration
251,0.4853698961504133,25,down,up,0.4590908999998646,1.7751968325460592,,experiment,cRDM,0.0,,,,724.5399682999997,179,22,female,True,7245,7250,False,False,inspiration,peak
252,0.4853698961504133,25,up,down,0.4003386000003957,0.3497061102231072,,experiment,cRDM,0.0,,,,725.6067223999999,179,22,female,True,7255,7259,False,False,expiration,expiration
253,0.4853698961504133,25,down,down,0.577353900000162,0.9240547001600294,,experiment,cRDM,0.0,,,,727.2066814999997,179,22,female,True,7271,7277,False,False,inspiration,expiration
254,0.4853698961504133,25,down,up,0.7340822000005573,0.4544200482556161,,experiment,cRDM,0.0,,,,728.4899656000017,179,22,female,True,7284,7291,False,False,expiration,inspiration
255,0.4853698961504133,25,down,up,0.6198942000009993,0.4487760925379718,,experiment,cRDM,0.0,,,,729.9232283999991,179,22,female,True,7298,7304,False,False,inspiration,expiration
256,0.4853698961504133,25,down,down,0.5874116000013601,0.34232938083263864,,experiment,cRDM,0.0,,,,731.1396939000006,179,22,female,True,7311,7317,False,False,expiration,inspiration
257,0.4853698961504133,25,down,up,0.6436027999989165,0.8272382945948684,,experiment,cRDM,0.0,,,,732.8064496000006,179,22,female,True,7327,7333,False,False,expiration,expiration
258,0.4853698961504133,25,up,up,0.9497037000001,1.649494095430058,,experiment,cRDM,0.0,,,,735.3563806999991,179,22,female,True,7353,7362,False,False,expiration,expiration
259,0.4853698961504133,25,up,up,0.7374136999969778,0.6217131772631534,,experiment,cRDM,0.0,,,,737.1896229999983,179,22,female,True,7371,7378,False,False,inspiration,expiration
260,0.4853698961504133,25,up,up,0.6231450000013865,1.9392010882071145,,experiment,cRDM,0.0,,,,740.122854199999,179,22,female,True,7400,7406,False,False,inspiration,expiration
261,0.4853698961504133,25,up,up,0.5783009000006132,1.2957298780097393,,experiment,cRDM,0.0,,,,742.322757400001,179,22,female,True,7422,7428,False,False,inspiration,expiration
262,149.0,25,M,up,0.6217956000000413,0.721548469482016,,experiment,emotion,0.0,,,,755.7722624000016,179,22,female,True,7557,7563,False,False,inspiration,inspiration
263,113.0,25,M,down,0.7528892000009364,1.4846802651532094,,experiment,emotion,0.0,,,,758.1721612000001,179,22,female,True,7581,7589,False,False,expiration,expiration
264,137.0,25,F,up,0.6256573000027856,0.6955673017813582,,experiment,emotion,0.0,,,,759.9054351999985,179,22,female,True,7598,7604,False,False,expiration,expiration
265,149.0,25,F,up,0.6643650000005437,0.7854047856578451,,experiment,emotion,0.0,,,,761.5887164999987,179,22,female,True,7615,7622,False,False,expiration,expiration
266,137.0,25,M,up,0.41709439999976894,1.5490647476160504,,experiment,emotion,0.0,,,,764.0719453999991,179,22,female,True,7640,7644,False,False,expiration,expiration
267,125.0,25,F,down,0.7028782999987016,1.8860049142542108,,experiment,emotion,0.0,,,,766.6552025000018,179,22,female,True,7666,7673,False,False,expiration,expiration
268,113.0,25,M,down,0.5185873000009451,0.36719831902848793,,experiment,emotion,0.0,,,,767.9884506999988,179,22,female,True,7679,7684,False,False,inspiration,inspiration
269,125.0,25,M,up,0.7455637999992177,1.611105921575554,,experiment,emotion,0.0,,,,770.3883897000014,179,22,female,True,7703,7710,False,False,inspiration,inspiration
270,149.0,25,F,up,0.3835060000019439,1.6545466648114109,,experiment,emotion,0.0,,,,773.0715928999997,179,22,female,True,7730,7734,False,False,inspiration,inspiration
271,125.0,25,F,up,0.3333345999999437,0.5407637366661017,,experiment,emotion,0.0,,,,774.3048922000016,179,22,female,True,7742,7745,False,False,expiration,expiration
272,137.0,25,F,up,0.3335045999992872,0.9889669882516784,,experiment,emotion,0.0,,,,775.9714993000017,179,22,female,True,7759,7762,False,False,inspiration,expiration
273,149.0,25,F,up,0.3668187000002945,1.5548714310752094,,experiment,emotion,0.0,,,,778.2047377999987,179,22,female,True,7781,7785,False,False,inspiration,peak
274,137.0,25,F,up,0.465995100003056,0.3022704262970893,,experiment,emotion,0.0,,,,779.1880251000003,179,22,female,True,7791,7796,False,False,expiration,expiration
275,113.0,25,F,up,0.4624478000005183,1.833995757037036,,experiment,emotion,0.0,,,,781.7545986000005,179,22,female,True,7817,7822,False,False,expiration,expiration
276,125.0,25,M,up,1.0258579000001191,1.335831128627246,,experiment,emotion,0.0,,,,783.8211636999986,179,22,female,True,7837,7847,False,False,expiration,expiration
277,113.0,25,M,down,0.5872578999988036,1.062567986390642,,experiment,emotion,0.0,,,,786.1877649000016,179,22,female,True,7861,7867,False,False,peak,expiration
278,149.0,25,M,down,0.6939982000003511,0.6748912160239275,,experiment,emotion,0.0,,,,787.721021100002,179,22,female,True,7876,7883,False,False,inspiration,inspiration
279,113.0,25,M,down,0.7783777000004193,1.562398716867346,,experiment,emotion,0.0,,,,790.2542743000013,179,22,female,True,7902,7910,False,False,inspiration,inspiration
280,137.0,25,F,down,0.5494699000009861,0.6286292829061368,,experiment,emotion,0.0,,,,791.9375131000015,179,22,female,True,7919,7924,False,False,expiration,expiration
281,137.0,25,M,down,0.7428663999999117,1.996912785416329,,experiment,emotion,0.0,,,,794.7540999000012,179,22,female,True,7947,7954,False,False,expiration,trough
282,125.0,25,M,down,0.6399514000004274,1.1951993542140575,,experiment,emotion,0.0,,,,796.9540230999993,179,22,female,True,7969,7975,False,False,expiration,expiration
283,125.0,25,F,down,0.5598331000001053,1.2739538579933507,,experiment,emotion,0.0,,,,799.1371196,179,22,female,True,7991,7997,False,False,inspiration,expiration
284,113.0,25,M,down,0.4501001999997243,1.1303426495233904,,experiment,emotion,0.0,,,,801.1038673000003,179,22,female,True,8010,8015,False,False,inspiration,inspiration
285,149.0,25,F,down,0.3836303000025509,1.282284834651355,,experiment,emotion,0.0,,,,803.1369902000006,179,22,female,True,8031,8035,False,False,inspiration,inspiration
286,137.0,25,F,down,0.7302234000017052,0.7287940447861516,,experiment,emotion,0.0,,,,804.5537478000006,179,22,female,True,8045,8052,False,False,expiration,expiration
287,113.0,25,M,up,0.4997007999991183,1.1830333509804387,,experiment,emotion,0.0,,,,806.7202881000012,179,22,female,True,8066,8071,False,False,inspiration,expiration
288,149.0,25,M,up,0.3669177000010677,1.683391789443592,,experiment,emotion,0.0,,,,809.186890000001,179,22,female,True,8091,8095,False,False,inspiration,inspiration
289,149.0,25,F,up,0.2834925999995903,1.385074408604308,,experiment,emotion,0.0,,,,811.2701622999994,179,22,female,True,8112,8115,False,False,inspiration,inspiration
290,125.0,25,M,up,0.23354299999846265,1.3388062299490782,,experiment,emotion,0.0,,,,813.2867384000018,179,22,female,True,8132,8134,False,False,expiration,expiration
291,113.0,25,F,up,0.3002388999993855,1.4631128314288262,,experiment,emotion,0.0,,,,815.4364593999999,179,22,female,True,8154,8157,False,False,expiration,expiration
292,125.0,25,F,up,0.487670700000308,1.8360839917488259,,experiment,emotion,0.0,,,,817.9532378000004,179,22,female,True,8179,8184,False,False,expiration,expiration
293,137.0,25,F,up,0.30018289999861736,0.7641933439904934,,experiment,emotion,0.0,,,,819.486490700001,179,22,female,True,8194,8197,False,False,inspiration,inspiration
294,113.0,25,M,up,0.2667700999991212,0.7001115964749598,,experiment,emotion,0.0,,,,820.8697801000017,179,22,female,True,8208,8211,False,False,expiration,expiration
295,149.0,25,M,up,0.2503156000020681,1.0801136460972165,,experiment,emotion,0.0,,,,822.6362183000018,179,22,female,True,8226,8229,False,False,inspiration,inspiration
296,137.0,25,M,up,0.233515100000659,1.5793057098125014,,experiment,emotion,0.0,,,,824.8862837000015,179,22,female,True,8248,8250,False,False,inspiration,inspiration
297,149.0,25,F,up,0.30012530000021803,0.33899625408301004,,experiment,emotion,0.0,,,,825.9196268000014,179,22,female,True,8258,8261,False,False,expiration,expiration
298,113.0,25,F,up,1.2437351999978998,0.7723219209566281,,experiment,emotion,0.0,,,,827.386199200002,179,22,female,True,8273,8285,False,False,inspiration,expiration
299,137.0,25,M,up,0.28348949999781325,0.613195874600693,,experiment,emotion,0.0,,,,829.5027934999997,179,22,female,True,8294,8297,False,False,expiration,inspiration
300,125.0,25,F,up,0.31693430000086664,1.7224937387664188,,experiment,emotion,0.0,,,,831.9193414000001,179,22,female,True,8318,8321,False,False,expiration,trough
301,125.0,25,M,up,0.6699435000009544,0.8632170834747008,,experiment,emotion,0.0,,,,833.4859847000008,179,22,female,True,8334,8341,False,False,expiration,expiration
302,137.0,25,M,up,0.28354299999773497,0.8074593208340726,,experiment,emotion,0.0,,,,835.2358343000013,179,22,female,True,8352,8355,False,False,inspiration,inspiration
303,149.0,25,M,up,0.23352359999989855,1.372076187527836,,experiment,emotion,0.0,,,,837.3191312999987,179,22,female,True,8372,8374,False,False,trough,inspiration
304,125.0,25,F,up,0.33348969999860856,0.7792680910743195,,experiment,emotion,0.0,,,,838.7857642000017,179,22,female,True,8387,8390,False,False,expiration,expiration
305,113.0,25,F,up,0.3669558000001416,1.9569490317376328,,experiment,emotion,0.0,,,,841.4355527000008,179,22,female,True,8414,8418,False,False,expiration,expiration
306,113.0,25,M,up,0.4001974999991944,1.7731014244937682,,experiment,emotion,0.0,,,,843.9022260999991,179,22,female,True,8438,8442,False,False,expiration,expiration
307,125.0,25,F,up,0.4474503999990702,0.9516268253254672,,experiment,emotion,0.0,,,,845.5355138000014,179,22,female,True,8455,8459,False,False,inspiration,expiration
308,149.0,25,F,up,0.473955900000874,1.5100200953502934,,experiment,emotion,0.0,,,,847.7519395999989,179,22,female,True,8477,8482,False,False,inspiration,inspiration
309,137.0,25,M,up,0.4932379999991099,1.0413407646781996,,experiment,emotion,0.0,,,,849.5517380999989,179,22,female,True,8495,8500,False,False,expiration,inspiration
310,113.0,25,M,up,0.2334407999987889,0.4021899514525816,,experiment,emotion,0.0,,,,850.7186532000014,179,22,female,True,8506,8508,False,False,inspiration,peak
311,149.0,25,F,up,1.6762866999997643,0.4579764992204405,,experiment,emotion,0.0,,,,851.8686132000003,179,22,female,True,8518,8535,False,False,expiration,peak
312,137.0,25,M,up,0.3668523999986064,1.8608718006853533,,experiment,emotion,0.0,,,,855.6684539999987,179,22,female,True,8556,8560,False,False,inspiration,peak
313,137.0,25,F,up,0.4864756999995734,0.6990419378265439,,experiment,emotion,0.0,,,,857.0684222999989,179,22,female,True,8570,8575,False,False,expiration,expiration
314,113.0,25,F,up,0.18339329999798792,0.4319997292587423,,experiment,emotion,0.0,,,,858.251686200001,179,22,female,True,8582,8584,False,False,inspiration,inspiration
315,125.0,25,F,up,0.33351439999751165,1.8004375280898688,,experiment,emotion,0.0,,,,860.7682602999994,179,22,female,True,8607,8610,False,False,inspiration,inspiration
316,149.0,25,M,up,0.40016479999758303,1.727930519908101,,experiment,emotion,0.0,,,,863.201510400002,179,22,female,True,8631,8635,False,False,trough,inspiration
317,125.0,25,M,up,0.3668997999993735,1.8837842590937293,,experiment,emotion,0.0,,,,865.7680700999989,179,22,female,True,8657,8661,False,False,expiration,inspiration
318,125.0,25,F,up,0.4929019999981392,0.3675928745020609,,experiment,emotion,0.0,,,,866.8180400999989,179,22,female,True,8667,8672,False,False,inspiration,expiration
319,125.0,25,F,up,0.30017450000013923,1.5997832973610981,,experiment,emotion,0.0,,,,869.1846052000002,179,22,female,True,8691,8694,False,False,inspiration,inspiration
320,149.0,25,M,up,0.30015740000089863,0.8259336505674949,,experiment,emotion,0.0,,,,870.6845443999991,179,22,female,True,8706,8709,False,False,expiration,expiration
321,137.0,25,M,up,0.33348430000114604,1.896243005719377,,experiment,emotion,0.0,,,,873.2677786999992,179,22,female,True,8732,8735,False,False,expiration,expiration
322,113.0,25,M,up,0.3001716999970085,1.1964036687933313,,experiment,emotion,0.0,,,,875.1677105999988,179,22,female,True,8751,8754,False,False,peak,expiration
323,113.0,25,M,up,0.5438227000013285,0.5385886757398499,,experiment,emotion,0.0,,,,876.4009981000016,179,22,female,True,8763,8768,False,False,expiration,inspiration
324,137.0,25,M,up,0.400187499999447,0.3704339990421295,,experiment,emotion,0.0,,,,877.5842889999984,179,22,female,True,8775,8779,False,False,inspiration,expiration
325,149.0,25,F,up,0.3168364000011934,1.9213801893881104,,experiment,emotion,0.0,,,,880.1841988999986,179,22,female,True,8801,8804,False,False,inspiration,peak
326,149.0,25,F,up,0.33351609999954235,0.8247171979802821,,experiment,emotion,0.0,,,,881.7008059000001,179,22,female,True,8816,8819,False,False,expiration,inspiration
327,113.0,25,M,up,0.3333764999988489,1.024480028190958,,experiment,emotion,0.0,,,,883.4007265,179,22,female,True,8833,8836,False,False,expiration,expiration
328,149.0,25,F,up,0.4167895999999017,1.8885541657242333,,experiment,emotion,0.0,,,,885.9673003999997,179,22,female,True,8859,8863,False,False,expiration,expiration
329,125.0,25,F,up,0.3668645000034303,0.5332526030670335,,experiment,emotion,0.0,,,,887.2172262999992,179,22,female,True,8871,8875,False,False,inspiration,inspiration
330,137.0,25,F,up,0.33351330000004964,0.496349082205482,,experiment,emotion,0.0,,,,888.4171964000017,179,22,female,True,8883,8886,False,False,expiration,expiration
331,125.0,25,M,down,0.6573977000007291,1.4959480410696355,,experiment,emotion,0.0,,,,890.6004431000001,179,22,female,True,8905,8912,False,False,inspiration,expiration
332,113.0,25,F,down,0.5124538999989454,0.8301423312774465,,experiment,emotion,0.0,,,,892.3503989000018,179,22,female,True,8923,8928,False,False,expiration,inspiration
333,137.0,25,F,up,0.4513532999990275,1.1744006391944668,,experiment,emotion,0.0,,,,894.3175607000012,179,22,female,True,8943,8948,False,False,expiration,expiration
334,125.0,25,F,up,0.7296158999997715,1.505196689248108,,experiment,emotion,0.0,,,,896.5502321999992,179,22,female,True,8965,8972,False,False,expiration,expiration
335,137.0,25,M,up,0.6425293000029342,1.9712063910994304,,experiment,emotion,0.0,,,,899.5333135000002,179,22,female,True,8995,9001,False,False,expiration,expiration
336,113.0,25,M,,,1.9461431428851823,,experiment,emotion,0.0,,,,902.4000349000016,179,22,female,True,9023,0,False,False,expiration,0
337,149.0,25,F,up,0.538293400000839,0.6221959146821519,,experiment,emotion,0.0,,,,905.7165458000017,179,22,female,True,9056,9061,False,False,expiration,expiration
338,137.0,25,M,up,0.30017320000115433,0.8007873844682436,,experiment,emotion,0.0,,,,907.3331024,179,22,female,True,9073,9076,False,False,inspiration,expiration
339,149.0,25,F,up,0.4453920000014477,0.8976080323156885,,experiment,emotion,0.0,,,,908.9164155,179,22,female,True,9088,9092,False,False,expiration,expiration
340,113.0,25,M,up,0.3169049999996787,1.3443673799856806,,experiment,emotion,0.0,,,,910.9829807999997,179,22,female,True,9109,9112,False,False,expiration,expiration
341,125.0,25,M,up,0.31702839999707066,1.3413734082673026,,experiment,emotion,0.0,,,,913.0327763999994,179,22,female,True,9130,9133,False,False,expiration,expiration
342,0.4853698961504133,25,up,up,0.6037232999988191,0.8891062972689814,,experiment,cRDM,1.0,,,,918.2160584000012,179,22,female,True,9181,9187,False,False,expiration,expiration
343,0.4853698961504133,25,up,down,0.4634986000019126,0.8255568247437517,,experiment,cRDM,1.0,,,,919.8993226999993,179,22,female,True,9198,9203,False,False,inspiration,peak
344,0.4853698961504133,25,down,down,0.4455049999996845,1.27348181069608,,experiment,cRDM,1.0,,,,921.8992647000014,179,22,female,True,9218,9222,False,False,inspiration,inspiration
345,0.4853698961504133,25,down,up,0.4833106000005501,1.77469937855479,,experiment,cRDM,1.0,,,,924.3824994999997,179,22,female,True,9243,9248,False,False,inspiration,inspiration
346,0.4853698961504133,25,up,down,0.43207709999842336,0.9911379069540054,,experiment,cRDM,1.0,,,,926.115761699999,179,22,female,True,9261,9265,False,False,expiration,expiration
347,0.4853698961504133,25,down,up,0.4507702999981121,1.84282396164747,,experiment,cRDM,1.0,,,,928.6490314000004,179,22,female,True,9286,9291,False,False,expiration,expiration
348,0.4853698961504133,25,up,down,0.4717793000017991,0.3906774335382349,,experiment,cRDM,1.0,,,,929.7490088000012,179,22,female,True,9297,9302,False,False,inspiration,inspiration
349,0.4853698961504133,25,up,up,0.317141299998184,0.3859534818781086,,experiment,cRDM,1.0,,,,930.8489412000017,179,22,female,True,9308,9311,False,False,expiration,expiration
350,0.4853698961504133,25,down,down,0.4166754999969271,1.6031241334897308,,experiment,cRDM,1.0,,,,933.1155043,179,22,female,True,9330,9334,False,False,inspiration,peak
351,0.4853698961504133,25,down,up,0.3504400999991049,0.8584163493485342,,experiment,cRDM,1.0,,,,934.6488250000003,179,22,female,True,9346,9350,False,False,expiration,inspiration
352,0.4853698961504133,25,down,up,0.4168064000004961,1.2385741463515023,,experiment,cRDM,1.0,,,,936.5820077999997,179,22,female,True,9365,9369,False,False,expiration,expiration
353,0.4853698961504133,25,down,up,0.5604599999969649,0.6442992367356175,,experiment,cRDM,1.0,,,,937.9153117999997,179,22,female,True,9378,9384,False,False,inspiration,peak
354,0.4853698961504133,25,down,down,0.4666354000000865,1.9712421637433168,,experiment,cRDM,1.0,,,,940.7151988000003,179,22,female,True,9406,9411,False,False,inspiration,expiration
355,0.4853698961504133,25,down,down,0.4603677999984938,0.5581829304313957,,experiment,cRDM,1.0,,,,941.9984323999997,179,22,female,True,9419,9424,False,False,expiration,inspiration
356,0.4853698961504133,25,up,down,0.4990675000008196,1.9510937988278143,,experiment,cRDM,1.0,,,,944.6817037,179,22,female,True,9446,9451,False,False,expiration,inspiration
357,0.4853698961504133,25,up,down,0.5382481999986339,0.59228398564963,,experiment,cRDM,1.0,,,,946.0315297999988,179,22,female,True,9460,9465,False,False,expiration,expiration
358,0.4853698961504133,25,up,down,0.4688395000011951,1.041761374357994,,experiment,cRDM,1.0,,,,947.8649369999983,179,22,female,True,9478,9483,False,False,inspiration,inspiration
359,0.4853698961504133,25,up,down,0.4769378999990295,1.8192795033578368,,experiment,cRDM,1.0,,,,950.4148324000017,179,22,female,True,9503,9508,False,False,inspiration,inspiration
360,0.4853698961504133,25,down,down,0.5017203999996127,1.1902833070023302,,experiment,cRDM,1.0,,,,952.3481299000014,179,22,female,True,9523,9528,False,False,expiration,inspiration
361,0.4853698961504133,25,up,down,0.4890806999974302,0.3056449872602095,,experiment,cRDM,1.0,,,,953.4147135999992,179,22,female,True,9533,9538,False,False,inspiration,expiration
362,0.4853698961504133,25,up,down,0.5728051000005507,1.7788937164867948,,experiment,cRDM,1.0,,,,955.9479987999983,179,22,female,True,9559,9565,False,False,inspiration,expiration
363,0.4853698961504133,25,down,down,0.6261701000003086,0.7384055899157221,,experiment,cRDM,1.0,,,,957.5145564000012,179,22,female,True,9574,9580,False,False,expiration,inspiration
364,0.4853698961504133,25,up,down,1.234317700000247,0.7676405603206768,,experiment,cRDM,1.0,,,,959.1645157999992,179,22,female,True,9591,9603,False,False,expiration,expiration
365,0.4853698961504133,25,down,down,0.4296719999983907,0.5238329569187266,,experiment,cRDM,1.0,,,,961.1811148000016,179,22,female,True,9611,9615,False,False,inspiration,inspiration
366,0.4853698961504133,25,down,down,0.4389325000011013,1.1547264759793,,experiment,cRDM,1.0,,,,963.0308532999987,179,22,female,True,9630,9634,False,False,expiration,inspiration
367,0.4853698961504133,25,up,down,0.3671109999995679,1.1058154432278078,,experiment,cRDM,1.0,,,,964.8476456999997,179,22,female,True,9648,9652,False,False,expiration,expiration
368,0.4853698961504133,25,up,up,0.6805425000020477,1.98069292321832,,experiment,cRDM,1.0,,,,967.5141895000016,179,22,female,True,9674,9681,False,False,expiration,expiration
369,0.4853698961504133,25,down,up,0.4836570000006759,1.3524272027730042,,experiment,cRDM,1.0,,,,969.8141131000012,179,22,female,True,9697,9702,False,False,peak,expiration
370,0.4853698961504133,25,up,down,0.4943084999977145,0.8814108448076834,,experiment,cRDM,1.0,,,,971.4473944000019,179,22,female,True,9714,9719,False,False,inspiration,inspiration
371,0.4853698961504133,25,down,up,0.608452300002682,1.1904746311350511,,experiment,cRDM,1.0,,,,973.3972840999998,179,22,female,True,9733,9739,False,False,expiration,expiration
372,0.4853698961504133,25,down,up,0.7284970000000612,1.082760324190614,,experiment,cRDM,1.0,,,,975.3472595999992,179,22,female,True,9753,9760,False,False,expiration,expiration
373,0.4853698961504133,25,down,down,0.5884332000023278,1.0832240666337527,,experiment,cRDM,1.0,,,,977.4303454,179,22,female,True,9774,9780,False,False,inspiration,expiration
374,0.4853698961504133,25,up,up,0.6159468999976525,0.6253933179446162,,experiment,cRDM,1.0,,,,978.9137527999992,179,22,female,True,9788,9794,False,False,expiration,inspiration
375,0.4853698961504133,25,up,up,0.6330899999993562,1.8865048574515595,,experiment,cRDM,1.0,,,,981.6636311000003,179,22,female,True,9816,9822,False,False,expiration,trough
376,0.4853698961504133,25,up,up,0.4885201000033703,0.4240228589598234,,experiment,cRDM,1.0,,,,982.980284100002,179,22,female,True,9829,9834,False,False,inspiration,peak
377,0.4853698961504133,25,down,down,0.5468615999998292,0.7708817331345534,,experiment,cRDM,1.0,,,,984.4968708000017,179,22,female,True,9844,9849,False,False,expiration,expiration
378,0.4853698961504133,25,down,up,0.6089500000016415,1.7378946562179274,,experiment,cRDM,1.0,,,,987.0467970999997,179,22,female,True,9870,9876,False,False,expiration,expiration
379,0.4853698961504133,25,up,up,0.5364101999984996,1.7379976812191007,,experiment,cRDM,1.0,,,,989.6633321000007,179,22,female,True,9896,9901,False,False,expiration,expiration
380,0.4853698961504133,25,down,down,0.4363806000001205,1.1959306367505873,,experiment,cRDM,1.0,,,,991.6632691999984,179,22,female,True,9916,9920,False,False,inspiration,expiration
381,0.4853698961504133,25,up,up,0.6518472999996447,1.317977498480347,,experiment,cRDM,1.0,,,,993.6798573999986,179,22,female,True,9936,9943,False,False,inspiration,inspiration
382,0.4853698961504133,25,up,up,0.5676109999985783,1.1159641127215696,,experiment,cRDM,1.0,,,,995.7131173999987,179,22,female,True,9956,9962,False,False,expiration,inspiration
383,0.4853698961504133,25,up,up,0.5233402000012575,1.9142343643848363,,experiment,cRDM,1.0,,,,998.4463727000003,179,22,female,True,9984,9989,False,False,expiration,inspiration
384,0.4853698961504133,25,down,down,0.5263100999982271,0.40207340548434417,,experiment,cRDM,1.0,,,,999.6294488999993,179,22,female,True,9996,10001,False,False,peak,expiration
385,0.4853698961504133,25,down,down,0.6448536999996577,1.3067462504993652,,experiment,cRDM,1.0,,,,1001.712875199999,179,22,female,True,10016,10022,False,False,inspiration,peak
386,0.4853698961504133,25,up,up,0.6852792999998201,1.9614565190902615,,experiment,cRDM,1.0,,,,1004.5794633000003,179,22,female,True,10045,10052,False,False,inspiration,expiration
387,0.4853698961504133,25,down,up,0.4616516999994929,0.7625991773454702,,experiment,cRDM,1.0,,,,1006.2960409000008,179,22,female,True,10062,10067,False,False,trough,inspiration
388,0.4853698961504133,25,down,up,0.5087218000007852,0.4707826047708348,,experiment,cRDM,1.0,,,,1007.4959334999983,179,22,female,True,10074,10079,False,False,expiration,expiration
389,0.4853698961504133,25,up,up,0.6024434999999357,1.1190287611240306,,experiment,cRDM,1.0,,,,1009.3792571999983,179,22,female,True,10093,10099,False,False,inspiration,peak
390,0.4853698961504133,25,up,up,0.5237568999982614,1.484289190394536,,experiment,cRDM,1.0,,,,1011.7289839000003,179,22,female,True,10117,10122,False,False,inspiration,inspiration
391,0.4853698961504133,25,down,up,0.4003275999966718,1.5034266420764788,,experiment,cRDM,1.0,,,,1014.0289057000008,179,22,female,True,10140,10144,False,False,inspiration,inspiration
392,0.4853698961504133,25,up,up,0.5060420000008891,1.4758030174282533,,experiment,cRDM,1.0,,,,1016.1956762000008,179,22,female,True,10161,10166,False,False,inspiration,inspiration
393,0.4853698961504133,25,down,up,0.4167433999973582,0.4860031815922961,,experiment,cRDM,1.0,,,,1017.4456833000003,179,22,female,True,10174,10178,False,False,expiration,expiration
394,0.4853698961504133,25,down,up,0.36725450000085397,0.8442520119962393,,experiment,cRDM,1.0,,,,1018.9788759000003,179,22,female,True,10189,10193,False,False,inspiration,inspiration
395,0.4853698961504133,25,down,up,0.31697609999901033,0.3624404962218937,,experiment,cRDM,1.0,,,,1020.0121806999997,179,22,female,True,10199,10202,False,False,expiration,expiration
396,0.4853698961504133,25,up,up,1.4585984999976065,1.9704484861783709,,experiment,cRDM,1.0,,,,1022.6620831,179,22,female,True,10226,10241,False,False,expiration,inspiration
397,0.4853698961504133,25,up,up,1.0851862999988953,1.4366015453263103,,experiment,cRDM,1.0,,,,1025.8284878999982,179,22,female,True,10258,10269,False,False,expiration,inspiration
398,0.4853698961504133,25,down,up,0.4968278999986069,0.4400204371714206,,experiment,cRDM,1.0,,,,1027.6118811000017,179,22,female,True,10275,10280,False,False,inspiration,inspiration
399,0.4853698961504133,25,down,up,0.4168564999999944,0.5809622263813601,,experiment,cRDM,1.0,,,,1028.9451513999993,179,22,female,True,10289,10293,False,False,expiration,expiration
400,0.4853698961504133,25,up,up,0.4273690999980317,1.4137818376864772,,experiment,cRDM,1.0,,,,1031.0283046000004,179,22,female,True,10310,10314,False,False,expiration,expiration
401,0.4853698961504133,25,up,up,0.42230320000089705,1.4771980233073585,,experiment,cRDM,1.0,,,,1033.1783596999994,179,22,female,True,10331,10335,False,False,inspiration,inspiration
402,0.4853698961504133,25,up,up,0.5296758999975282,0.8271931522051461,,experiment,cRDM,1.0,,,,1034.6949648000011,179,22,female,True,10346,10351,False,False,expiration,expiration
403,0.4853698961504133,25,up,up,0.4871192000027804,1.6613451588960853,,experiment,cRDM,1.0,,,,1037.1615410000013,179,22,female,True,10371,10376,False,False,expiration,expiration
404,0.4853698961504133,25,up,up,0.7486382999995841,1.6649367718538146,,experiment,cRDM,1.0,,,,1039.5781014999993,179,22,female,True,10395,10402,False,False,expiration,expiration
405,0.4853698961504133,25,down,up,0.5919478999967396,1.667723278373135,,experiment,cRDM,1.0,,,,1042.2447021000007,179,22,female,True,10422,10428,False,False,expiration,expiration
406,0.4853698961504133,25,down,up,0.4593610000010813,0.7095150456144086,,experiment,cRDM,1.0,,,,1043.811291500002,179,22,female,True,10437,10442,False,False,inspiration,inspiration
407,0.4853698961504133,25,up,up,0.4654795999995258,1.4693232050974396,,experiment,cRDM,1.0,,,,1046.0111781999983,179,22,female,True,10459,10464,False,False,expiration,inspiration
408,0.4853698961504133,25,down,down,0.43893929999831016,0.4791882270357771,,experiment,cRDM,1.0,,,,1047.2277065000017,179,22,female,True,10472,10476,False,False,expiration,expiration
409,0.4853698961504133,25,down,up,0.3171433999996225,0.6078741070598406,,experiment,cRDM,1.0,,,,1048.5444610999982,179,22,female,True,10485,10488,False,False,expiration,expiration
410,0.4853698961504133,25,down,up,0.3173080999986269,0.6502889212632306,,experiment,cRDM,1.0,,,,1049.8777082999986,179,22,female,True,10498,10501,False,False,inspiration,expiration
411,0.4853698961504133,25,up,up,0.2671580000023823,1.0872017702628594,,experiment,cRDM,1.0,,,,1051.644357600002,179,22,female,True,10516,10519,False,False,expiration,inspiration
412,0.4853698961504133,25,down,up,0.2838673000005656,0.9890974124929904,,experiment,cRDM,1.0,,,,1053.3109107000016,179,22,female,True,10532,10535,False,False,expiration,expiration
413,0.4853698961504133,25,down,up,0.3673472000009497,0.9363644120149766,,experiment,cRDM,1.0,,,,1054.9273839999987,179,22,female,True,10549,10553,False,False,inspiration,inspiration
414,0.4853698961504133,25,down,up,0.3337571999982174,1.382960974321389,,experiment,cRDM,1.0,,,,1056.994090600001,179,22,female,True,10569,10572,False,False,expiration,inspiration
415,0.4853698961504133,25,up,down,0.6422657000002799,1.4008598046281031,,experiment,cRDM,1.0,,,,1059.077378500002,179,22,female,True,10590,10596,False,False,expiration,expiration
416,0.4853698961504133,25,up,up,0.7176211999976658,1.0452716416376484,,experiment,cRDM,1.0,,,,1061.0440038999986,179,22,female,True,10610,10617,False,False,inspiration,expiration
417,0.4853698961504133,25,down,up,0.5774253999989014,0.4622919004850933,,experiment,cRDM,1.0,,,,1062.4772435999982,179,22,female,True,10624,10630,False,False,expiration,inspiration
418,0.4853698961504133,25,up,down,0.8414582000004884,0.548241463968937,,experiment,cRDM,1.0,,,,1063.8771779000017,179,22,female,True,10638,10646,False,False,expiration,expiration
419,0.4853698961504133,25,down,down,0.6752140000025975,1.8704618938183648,,experiment,cRDM,1.0,,,,1066.8604080000002,179,22,female,True,10668,10675,False,False,expiration,expiration
420,0.4853698961504133,25,up,down,0.5635483000005479,0.6843236947883541,,experiment,cRDM,1.0,,,,1068.4770223999983,179,22,female,True,10684,10690,False,False,inspiration,inspiration
421,0.4853698961504133,25,up,down,0.7523456999988412,0.8135295930164348,,experiment,cRDM,1.0,,,,1070.1102719000012,179,22,female,True,10700,10708,False,False,expiration,inspiration
422,149.0,25,M,down,1.019515500000125,0.9214032745587672,,experiment,emotion,1.0,,,,1074.9601014,179,22,female,True,10749,10759,False,False,expiration,expiration
423,113.0,25,M,up,0.5262879000001703,1.930844263280774,,experiment,emotion,1.0,,,,1078.193321499999,179,22,female,True,10781,10786,False,False,expiration,expiration
424,137.0,25,F,up,0.5900366999994731,1.7686863011513854,,experiment,emotion,1.0,,,,1080.7765451999983,179,22,female,True,10807,10813,False,False,expiration,expiration
425,149.0,25,F,up,0.31681120000212104,1.2775374594564894,,experiment,emotion,1.0,,,,1082.9097703000007,179,22,female,True,10828,10831,False,False,inspiration,peak
426,137.0,25,M,up,0.5925057000022207,0.4383404204989148,,experiment,emotion,1.0,,,,1084.043089400002,179,22,female,True,10840,10846,False,False,expiration,expiration
427,125.0,25,F,up,0.2835145999997621,0.3760417454246131,,experiment,emotion,1.0,,,,1085.2930285000002,179,22,female,True,10852,10855,False,False,inspiration,inspiration
428,113.0,25,M,up,0.2500857000013639,1.49734657279784,,experiment,emotion,1.0,,,,1087.4763080000012,179,22,female,True,10874,10877,False,False,expiration,expiration
429,125.0,25,M,up,0.5360486999998102,0.6472218612933576,,experiment,emotion,1.0,,,,1088.8095525999997,179,22,female,True,10887,10892,False,False,inspiration,inspiration
430,149.0,25,F,up,0.552095899998676,0.4466473912544024,,experiment,emotion,1.0,,,,1090.059512200001,179,22,female,True,10900,10906,False,False,inspiration,expiration
431,125.0,25,F,up,0.4331243000015093,0.5214283748562706,,experiment,emotion,1.0,,,,1091.4094503999986,179,22,female,True,10913,10917,False,False,inspiration,peak
432,137.0,25,F,up,0.2668234999982815,1.984985217435837,,experiment,emotion,1.0,,,,1094.0926986999982,179,22,female,True,10940,10943,False,False,expiration,inspiration
433,149.0,25,F,up,0.3001162000000477,1.2303151885452746,,experiment,emotion,1.0,,,,1096.0258270999984,179,22,female,True,10960,10963,False,False,expiration,expiration
434,137.0,25,F,up,0.36684899999818293,1.5084137919936669,,experiment,emotion,1.0,,,,1098.2091997999996,179,22,female,True,10981,10985,False,False,inspiration,inspiration
435,113.0,25,F,up,0.3667892000012216,1.5499518410785764,,experiment,emotion,1.0,,,,1100.4424676000017,179,22,female,True,11004,11008,False,False,inspiration,inspiration
436,125.0,25,M,up,0.4305753999979061,0.8846850847539256,,experiment,emotion,1.0,,,,1102.025987699999,179,22,female,True,11020,11024,False,False,inspiration,inspiration
437,113.0,25,M,up,0.4168231000003289,1.059702905051194,,experiment,emotion,1.0,,,,1103.7756585999996,179,22,female,True,11037,11041,False,False,inspiration,inspiration
438,149.0,25,M,up,0.4796042000016314,1.3895317412757655,,experiment,emotion,1.0,,,,1105.8589164000002,179,22,female,True,11058,11063,False,False,inspiration,inspiration
439,113.0,25,M,up,0.4772112999999081,1.4127496943272086,,experiment,emotion,1.0,,,,1108.025360399999,179,22,female,True,11080,11085,False,False,trough,inspiration
440,137.0,25,F,up,0.4001405999988492,0.9576189546553016,,experiment,emotion,1.0,,,,1109.725354000002,179,22,female,True,11097,11101,False,False,expiration,expiration
441,137.0,25,M,down,0.7022495999990497,1.860763628234809,,experiment,emotion,1.0,,,,1112.2753100000011,179,22,female,True,11122,11129,False,False,expiration,expiration
442,125.0,25,M,up,0.4001834000009694,1.1261530358552363,,experiment,emotion,1.0,,,,1114.4085959000004,179,22,female,True,11143,11147,False,False,expiration,expiration
443,125.0,25,F,up,0.4446987000010267,1.042576583003169,,experiment,emotion,1.0,,,,1116.1418680999998,179,22,female,True,11161,11165,False,False,inspiration,inspiration
444,113.0,25,M,up,0.3836233000001812,1.7652333704121776,,experiment,emotion,1.0,,,,1118.6249518000004,179,22,female,True,11186,11190,False,False,expiration,inspiration
445,149.0,25,F,up,0.5478376999999455,0.4601898092926011,,experiment,emotion,1.0,,,,1119.7917159999997,179,22,female,True,11197,11202,False,False,inspiration,expiration
446,137.0,25,F,up,0.4685755999998946,1.8226120880128909,,experiment,emotion,1.0,,,,1122.4249751999996,179,22,female,True,11224,11229,False,False,inspiration,expiration
447,113.0,25,M,up,0.4693766000018513,1.7370944456915007,,experiment,emotion,1.0,,,,1124.9081713999983,179,22,female,True,11248,11253,False,False,inspiration,expiration
448,149.0,25,M,up,0.3833740000009129,1.0801811194774054,,experiment,emotion,1.0,,,,1126.724792500001,179,22,female,True,11267,11271,False,False,trough,inspiration
449,149.0,25,F,up,0.4168114999993122,0.5051199172460881,,experiment,emotion,1.0,,,,1127.9247381999996,179,22,female,True,11279,11283,False,False,expiration,expiration
450,125.0,25,M,down,0.7598418000015954,0.9431783746480142,,experiment,emotion,1.0,,,,1129.5747014000008,179,22,female,True,11295,11303,False,False,inspiration,expiration
451,113.0,25,F,down,0.5133037000014156,0.3815279296135111,,experiment,emotion,1.0,,,,1130.9912943000018,179,22,female,True,11309,11314,False,False,expiration,expiration
452,125.0,25,F,up,0.4226603999995859,0.7823840366201469,,experiment,emotion,1.0,,,,1132.5579036000015,179,22,female,True,11325,11329,False,False,inspiration,expiration
453,137.0,25,F,up,0.4001642000002903,1.356916290942674,,experiment,emotion,1.0,,,,1134.624345799999,179,22,female,True,11346,11350,False,False,inspiration,inspiration
454,113.0,25,M,up,0.31684210000094026,1.6749300226551702,,experiment,emotion,1.0,,,,1136.9910744000008,179,22,female,True,11369,11372,False,False,trough,inspiration
455,149.0,25,M,up,0.4819270000007237,0.34186448939123026,,experiment,emotion,1.0,,,,1138.0076757999996,179,22,female,True,11379,11384,False,False,inspiration,expiration
456,137.0,25,M,up,0.3834937000028731,1.5913993660579235,,experiment,emotion,1.0,,,,1140.3576039000002,179,22,female,True,11403,11407,False,False,inspiration,peak
457,149.0,25,F,up,0.4376587999977346,1.1031432880457857,,experiment,emotion,1.0,,,,1142.1409052000015,179,22,female,True,11421,11425,False,False,expiration,inspiration
458,113.0,25,F,up,0.7543336999988242,0.3341965359219737,,experiment,emotion,1.0,,,,1143.1741599000015,179,22,female,True,11431,11439,False,False,inspiration,expiration
459,137.0,25,M,up,0.38351239999974496,1.3748934351280309,,experiment,emotion,1.0,,,,1145.574072200001,179,22,female,True,11455,11459,False,False,inspiration,expiration
460,125.0,25,F,up,0.4002163000004657,0.7839000669026785,,experiment,emotion,1.0,,,,1147.0407078999995,179,22,female,True,11470,11474,False,False,expiration,expiration
461,125.0,25,M,up,0.4996216999970784,1.6574719791705332,,experiment,emotion,1.0,,,,1149.3739443000013,179,22,female,True,11493,11498,False,False,expiration,expiration
462,137.0,25,M,up,0.4627586999995401,1.5872595275098211,,experiment,emotion,1.0,,,,1151.7237447000007,179,22,female,True,11517,11522,False,False,inspiration,expiration
463,149.0,25,M,up,0.5629306999981054,1.265059568510698,,experiment,emotion,1.0,,,,1153.723597799999,179,22,female,True,11537,11543,False,False,expiration,inspiration
464,125.0,25,F,up,0.4798987000031048,0.36943665342021614,,experiment,emotion,1.0,,,,1154.9235947999987,179,22,female,True,11549,11554,False,False,inspiration,expiration
465,113.0,25,F,up,0.31683930000144755,1.224219934009246,,experiment,emotion,1.0,,,,1156.906971100001,179,22,female,True,11568,11571,False,False,expiration,inspiration
466,113.0,25,M,up,0.3500118999982078,0.6769366316215526,,experiment,emotion,1.0,,,,1158.2735885000004,179,22,female,True,11582,11586,False,False,expiration,expiration
467,125.0,25,F,down,0.6048573999978544,1.1242276304778154,,experiment,emotion,1.0,,,,1160.106648699999,179,22,female,True,11601,11607,False,False,inspiration,inspiration
468,149.0,25,F,up,0.15018879999843193,1.0384719505404365,,experiment,emotion,1.0,,,,1162.0234439999986,179,22,female,True,11620,11622,False,False,expiration,expiration
469,137.0,25,M,up,0.480151299998397,1.4168911559601465,,experiment,emotion,1.0,,,,1164.1233686999985,179,22,female,True,11641,11646,False,False,expiration,expiration
470,113.0,25,M,up,0.3001850000000559,0.5948672599289648,,experiment,emotion,1.0,,,,1165.4566357000006,179,22,female,True,11654,11657,False,False,inspiration,inspiration
471,149.0,25,F,up,0.4170076999980665,0.9686576040654996,,experiment,emotion,1.0,,,,1167.1231040999992,179,22,female,True,11671,11675,False,False,expiration,expiration
472,137.0,25,M,up,0.4186781999997038,1.8654304910900807,,experiment,emotion,1.0,,,,1169.6898096000004,179,22,female,True,11696,11700,False,False,expiration,expiration
473,137.0,25,F,down,0.8177300999996078,0.6688851671686613,,experiment,emotion,1.0,,,,1171.0397795999995,179,22,female,True,11710,11718,False,False,inspiration,expiration
474,113.0,25,F,down,0.7958216999977594,1.6998065590635432,,experiment,emotion,1.0,,,,1173.8396643999986,179,22,female,True,11738,11746,False,False,inspiration,expiration
475,125.0,25,F,down,0.6349590999998327,1.877468788245402,,experiment,emotion,1.0,,,,1176.7895374000002,179,22,female,True,11767,11773,False,False,expiration,expiration
476,149.0,25,M,down,0.6639359000000695,1.6808881634760937,,experiment,emotion,1.0,,,,1179.3727857000013,179,22,female,True,11793,11800,False,False,expiration,expiration
477,125.0,25,M,down,0.5725038999989921,1.804778187405104,,experiment,emotion,1.0,,,,1182.1059944000008,179,22,female,True,11820,11826,False,False,expiration,expiration
478,125.0,25,F,down,0.5482511999980488,1.9427419415731173,,experiment,emotion,1.0,,,,1184.8892221999995,179,22,female,True,11848,11853,False,False,expiration,expiration
479,125.0,25,F,down,0.6382866999992984,1.6686974223835511,,experiment,emotion,1.0,,,,1187.3891637999984,179,22,female,True,11873,11879,False,False,expiration,expiration
480,149.0,25,M,up,0.4787641000002623,0.903984547025307,,experiment,emotion,1.0,,,,1189.2057036000006,179,22,female,True,11892,11897,False,False,inspiration,inspiration
481,137.0,25,M,up,0.7974708000001556,1.2582335999207928,,experiment,emotion,1.0,,,,1191.2389973999998,179,22,female,True,11912,11920,False,False,expiration,inspiration
482,113.0,25,M,up,0.5179588000028161,0.7897869348502877,,experiment,emotion,1.0,,,,1193.1054820999998,179,22,female,True,11931,11936,False,False,expiration,expiration
483,113.0,25,M,down,0.6416104000018095,1.2505993972476577,,experiment,emotion,1.0,,,,1195.1388521000008,179,22,female,True,11951,11957,False,False,peak,expiration
484,137.0,25,M,down,0.8893674999999348,0.8715868206970734,,experiment,emotion,1.0,,,,1196.9220902000015,179,22,female,True,11969,11978,False,False,inspiration,expiration
485,149.0,25,F,down,0.5940990000017337,0.8811370080793408,,experiment,emotion,1.0,,,,1198.9553629000004,179,22,female,True,11989,11995,False,False,expiration,inspiration
486,149.0,25,F,down,0.6585631999987527,0.9124870182992092,,experiment,emotion,1.0,,,,1200.7218787999989,179,22,female,True,12007,12014,False,False,expiration,expiration
487,113.0,25,M,down,0.6356037999976252,0.620682732158362,,experiment,emotion,1.0,,,,1202.2719077000004,179,22,female,True,12022,12028,False,False,inspiration,inspiration
488,149.0,25,F,down,0.6676207000018621,1.5953624679504572,,experiment,emotion,1.0,,,,1204.7718305000014,179,22,female,True,12047,12054,False,False,inspiration,inspiration
489,125.0,25,F,up,0.8933528999987175,0.3167723167396813,,experiment,emotion,1.0,,,,1206.0550933999984,179,22,female,True,12060,12069,False,False,expiration,expiration
490,137.0,25,F,up,0.5145340000017313,1.9796130875113471,,experiment,emotion,1.0,,,,1209.2049554000005,179,22,female,True,12091,12096,False,False,expiration,expiration
491,125.0,25,M,up,0.6958507000017562,1.1364493654272452,,experiment,emotion,1.0,,,,1211.1215919999995,179,22,female,True,12111,12118,False,False,peak,expiration
492,113.0,25,F,up,0.5223306000007142,1.4477920830237143,,experiment,emotion,1.0,,,,1213.5381272999985,179,22,female,True,12135,12140,False,False,inspiration,expiration
493,137.0,25,F,up,0.4213271000007808,0.6895899045625133,,experiment,emotion,1.0,,,,1215.038109000001,179,22,female,True,12150,12154,False,False,expiration,inspiration
494,125.0,25,F,up,0.33353180000267457,1.179753459810472,,experiment,emotion,1.0,,,,1216.9046457000004,179,22,female,True,12169,12172,False,False,expiration,expiration
495,137.0,25,M,up,0.31682070000169915,0.928656226439269,,experiment,emotion,1.0,,,,1218.521293400001,179,22,female,True,12185,12188,False,False,inspiration,inspiration
496,113.0,25,M,up,0.3500300999985484,0.33584060130246546,,experiment,emotion,1.0,,,,1219.554596500002,179,22,female,True,12195,12199,False,False,expiration,expiration
497,149.0,25,F,up,0.5146821999987878,1.9363139378344412,,experiment,emotion,1.0,,,,1222.1877940000013,179,22,female,True,12221,12226,False,False,expiration,expiration
498,137.0,25,M,up,0.5746882999992522,1.7100769811580931,,experiment,emotion,1.0,,,,1224.6877329999988,179,22,female,True,12246,12252,False,False,expiration,expiration
499,149.0,25,F,up,0.3333628000000317,1.0523834041378577,,experiment,emotion,1.0,,,,1226.5876599000005,179,22,female,True,12265,12268,False,False,inspiration,inspiration
500,113.0,25,M,up,0.3168279000019538,0.77163200914724,,experiment,emotion,1.0,,,,1228.0376017999988,179,22,female,True,12280,12283,False,False,expiration,expiration
501,125.0,25,M,down,0.8542643000000679,1.6673012733451162,,experiment,emotion,1.0,,,,1230.4041464000004,179,22,female,True,12303,12312,False,False,expiration,expiration
502,0.4853698961504133,25,up,up,0.5351519999967422,0.7791334765480036,,experiment,cRDM,2.0,,,,1254.6032344999985,179,22,female,True,12545,12550,False,False,expiration,expiration
503,0.4853698961504133,25,up,up,0.4698647000004712,1.0321684929922794,,experiment,cRDM,2.0,,,,1256.4365398000011,179,22,female,True,12564,12569,False,False,inspiration,peak
504,0.4853698961504133,25,down,up,0.4897123000009742,0.8442369859051249,,experiment,cRDM,2.0,,,,1258.0196997999992,179,22,female,True,12580,12585,False,False,expiration,expiration
505,0.4853698961504133,25,down,up,0.38384750000113854,1.7900576428119737,,experiment,cRDM,2.0,,,,1260.5696802999992,179,22,female,True,12605,12609,False,False,expiration,expiration
506,0.4853698961504133,25,up,up,0.7814276999997674,1.0949792301164778,,experiment,cRDM,2.0,,,,1262.3529488999993,179,22,female,True,12623,12631,False,False,inspiration,expiration
507,0.4853698961504133,25,down,up,0.48584709999704495,1.5680071949354115,,experiment,cRDM,2.0,,,,1264.9695170999985,179,22,female,True,12649,12654,False,False,inspiration,peak
508,0.4853698961504133,25,up,up,0.5883290000019771,1.889390620320116,,experiment,cRDM,2.0,,,,1267.5860697999994,179,22,female,True,12675,12681,False,False,inspiration,expiration
509,0.4853698961504133,25,up,up,0.35061279999717954,0.4843135034547052,,experiment,cRDM,2.0,,,,1268.9025647000014,179,22,female,True,12689,12693,False,False,expiration,trough
510,0.4853698961504133,25,down,up,0.4533833999994386,1.0623052811481783,,experiment,cRDM,2.0,,,,1270.6359780999992,179,22,female,True,12706,12711,False,False,expiration,expiration
511,0.4853698961504133,25,down,up,0.6050558999995701,0.7740595464290497,,experiment,cRDM,2.0,,,,1272.119275600002,179,22,female,True,12721,12727,False,False,inspiration,inspiration
512,0.4853698961504133,25,down,up,0.7418529000024137,1.4656194905962874,,experiment,cRDM,2.0,,,,1274.4524946999989,179,22,female,True,12744,12751,False,False,expiration,inspiration
513,0.4853698961504133,25,down,up,0.5856595000004745,0.8758801248306554,,experiment,cRDM,2.0,,,,1276.3357426000002,179,22,female,True,12763,12769,False,False,expiration,expiration
514,0.4853698961504133,25,down,up,0.7323646000004373,1.3976557595245742,,experiment,cRDM,2.0,,,,1278.5689865999993,179,22,female,True,12785,12792,False,False,inspiration,expiration
515,0.4853698961504133,25,down,up,0.4867683999982546,0.7683175013918991,,experiment,cRDM,2.0,,,,1280.3355833999995,179,22,female,True,12803,12808,False,False,inspiration,inspiration
516,0.4853698961504133,25,up,up,2.1601383999986865,1.746435706305525,,experiment,cRDM,2.0,,,,1282.8521986000014,179,22,female,True,12828,12850,False,False,expiration,expiration
517,0.4853698961504133,25,up,down,0.8566190999990795,0.9070927283481328,,experiment,cRDM,2.0,,,,1286.1687149999998,179,22,female,True,12861,12870,False,False,expiration,inspiration
518,0.4853698961504133,25,up,up,0.8453937999984191,1.212384021119504,,experiment,cRDM,2.0,,,,1288.5019456000011,179,22,female,True,12884,12892,False,False,expiration,inspiration
519,0.4853698961504133,25,up,up,0.6928168999984337,1.1586051680796523,,experiment,cRDM,2.0,,,,1290.7685175000004,179,22,female,True,12907,12914,False,False,expiration,expiration
520,0.4853698961504133,25,down,down,0.7332074000005377,1.2709069847505192,,experiment,cRDM,2.0,,,,1292.985123800001,179,22,female,True,12929,12936,False,False,inspiration,expiration
521,0.4853698961504133,25,up,up,0.6453054000012344,1.8403569353224127,,experiment,cRDM,2.0,,,,1295.8350219999993,179,22,female,True,12958,12964,False,False,expiration,expiration
522,0.4853698961504133,25,up,down,0.5470668999987538,1.874632813540125,,experiment,cRDM,2.0,,,,1298.6182713000014,179,22,female,True,12986,12991,False,False,expiration,expiration
523,0.4853698961504133,25,down,up,0.6187982999981614,0.31541536015596705,,experiment,cRDM,2.0,,,,1299.7515387999993,179,22,female,True,12997,13003,False,False,inspiration,inspiration
524,0.4853698961504133,25,up,up,0.7565557999987504,1.1414807817597306,,experiment,cRDM,2.0,,,,1301.784765200002,179,22,female,True,13017,13025,False,False,expiration,inspiration
525,0.4853698961504133,25,down,down,0.5950706000003265,0.7812262692624732,,experiment,cRDM,2.0,,,,1303.601185800002,179,22,female,True,13036,13042,False,False,expiration,expiration
526,0.4853698961504133,25,down,up,0.7633774999994785,1.7026262638203755,,experiment,cRDM,2.0,,,,1306.1679396,179,22,female,True,13061,13069,False,False,expiration,expiration
527,0.4853698961504133,25,up,up,0.5854780999979994,1.6728796899633278,,experiment,cRDM,2.0,,,,1308.867839999999,179,22,female,True,13088,13094,False,False,expiration,expiration
528,0.4853698961504133,25,up,up,0.5188725000007253,0.9513999456738016,,experiment,cRDM,2.0,,,,1310.6844404000005,179,22,female,True,13106,13111,False,False,inspiration,expiration
529,0.4853698961504133,25,down,down,0.6882899000011093,1.233613606267726,,experiment,cRDM,2.0,,,,1312.701017700001,179,22,female,True,13126,13133,False,False,inspiration,inspiration
530,0.4853698961504133,25,up,up,0.42597699999896577,0.7202214817281017,,experiment,cRDM,2.0,,,,1314.3842989000004,179,22,female,True,13143,13147,False,False,expiration,expiration
531,0.4853698961504133,25,down,up,0.5597711999980675,1.2276145171304826,,experiment,cRDM,2.0,,,,1316.3005956999987,179,22,female,True,13163,13169,False,False,expiration,expiration
532,0.4853698961504133,25,down,up,0.5656640999986848,1.88714137066722,,experiment,cRDM,2.0,,,,1319.0006314999991,179,22,female,True,13190,13196,False,False,expiration,expiration
533,0.4853698961504133,25,down,up,0.6235481000003347,1.1755796196885444,,experiment,cRDM,2.0,,,,1321.0007164000015,179,22,female,True,13210,13216,False,False,inspiration,expiration
534,0.4853698961504133,25,up,up,0.52936690000206,1.241755531206837,,experiment,cRDM,2.0,,,,1323.134000500002,179,22,female,True,13231,13236,False,False,inspiration,peak
535,0.4853698961504133,25,up,down,0.5630068999998912,0.5428870485233329,,experiment,cRDM,2.0,,,,1324.4672451000004,179,22,female,True,13244,13250,False,False,expiration,expiration
536,0.4853698961504133,25,up,up,0.43877160000192816,0.8472600546716558,,experiment,cRDM,2.0,,,,1326.1505217000013,179,22,female,True,13261,13265,False,False,inspiration,expiration
