,stimLvl,stimTime,rand,response,rt,precedingITI,trialNumber,trialType,stimuli,block,estIntens,estThres,estSlope,trialStart,subject,age,gender,headRest,onset,responsI,manBadOnset,manBadRespons,onset_phase,respons_phase
0,0.9,100,down,,,1.1166382763347469,,introTrial,cRDM,,,,,175.1461495999247,184,26,male,True,1750,0,False,False,inspiration,0
1,150.0,100,F,,,0.3203599559783808,,introTrial,emotion,,,,,179.41265549999665,184,26,male,True,1793,0,False,False,expiration,0
2,200.0,25,M,,,1.6006294736164035,,tutorial,emotion,,,,,223.2443485999247,184,26,male,True,2231,0,False,False,inspiration,0
3,200.0,25,M,up,0.6149508999660611,1.0899696750158718,,tutorial,emotion,,,,,227.0442053999286,184,26,male,True,2269,2275,False,False,inspiration,expiration
4,200.0,25,M,up,0.5341352999676019,0.5284202743172813,,tutorial,emotion,,,,,228.49405069998463,184,26,male,True,2284,2289,False,False,expiration,expiration
5,0.0,25,F,down,0.6443830999778584,1.5842573167334453,,tutorial,emotion,,,,,230.91076200001407,184,26,male,True,2308,2314,False,False,expiration,expiration
6,0.0,25,F,down,0.6504805999575183,1.4686773906972088,,tutorial,emotion,,,,,233.31065439991653,184,26,male,True,2332,2339,False,False,inspiration,expiration
7,200.0,25,F,up,1.1742363000521436,1.0857758799468435,,tutorial,emotion,,,,,235.3439315999858,184,26,male,True,2352,2364,False,False,inspiration,expiration
8,0.0,25,F,down,0.6296893999679014,1.1434523228507445,,tutorial,emotion,,,,,237.9604900999693,184,26,male,True,2378,2384,False,False,inspiration,inspiration
9,200.0,25,F,up,0.5947994999587536,1.7478832379198561,,tutorial,emotion,,,,,240.6103896999266,184,26,male,True,2405,2411,False,False,trough,inspiration
10,0.0,25,M,down,0.5222241999581456,1.6806667343391413,,tutorial,emotion,,,,,243.1769383999053,184,26,male,True,2430,2435,False,False,expiration,expiration
11,0.0,25,M,down,0.6124031000072137,1.703107586172785,,tutorial,emotion,,,,,245.69378049997613,184,26,male,True,2456,2462,False,False,expiration,expiration
12,0.9,25,up,up,0.6069582999916747,1.3270529387606715,,tutorial,cRDM,,,,,254.3432149,184,26,male,True,2542,2548,False,False,trough,inspiration
13,0.9,25,up,up,0.4688212999608368,1.0954607313461968,,tutorial,cRDM,,,,,256.32642970001325,184,26,male,True,2562,2567,False,False,expiration,expiration
14,0.9,25,down,down,0.4171114000491798,1.8046365875139052,,tutorial,cRDM,,,,,258.87635359994596,184,26,male,True,2587,2591,False,False,expiration,expiration
15,0.9,25,down,down,0.7038749000057578,0.5068831202922337,,tutorial,cRDM,,,,,260.0763241999084,184,26,male,True,2599,2606,False,False,expiration,inspiration
16,0.9,25,up,up,0.4796337999869138,1.7066849794350114,,tutorial,cRDM,,,,,262.7595580999041,184,26,male,True,2626,2631,False,False,expiration,expiration
17,0.9,25,down,down,0.4911492000101134,0.3786433233818308,,tutorial,cRDM,,,,,263.8760437999153,184,26,male,True,2638,2643,False,False,inspiration,inspiration
18,0.9,25,up,up,0.3838704000227153,0.4710279364326492,,tutorial,cRDM,,,,,265.1094615999609,184,26,male,True,2650,2654,False,False,expiration,expiration
19,0.9,25,up,up,0.40023090003523976,0.9067104596255188,,tutorial,cRDM,,,,,266.72608779999433,184,26,male,True,2666,2670,False,False,inspiration,inspiration
20,0.9,25,down,down,0.2672293999930844,1.2093256744161391,,tutorial,cRDM,,,,,268.6260196999647,184,26,male,True,2685,2688,False,False,expiration,expiration
21,0.9,25,down,down,0.5962231999728829,1.5970107040965542,,tutorial,cRDM,,,,,270.92592579999473,184,26,male,True,2708,2714,False,False,expiration,expiration
22,100.0,25,M,up,0.9057900999905542,0.4338342400190732,,psi_staircase_training,emotion,,100.0,100.0,25.00050000000001,283.57538689998916,184,26,male,True,2835,2844,False,False,expiration,expiration
23,55.0,25,M,down,0.57994329999201,0.5323726021202143,,psi_staircase_training,emotion,,54.742809467541896,54.742809467541896,25.00050000000011,285.3751989000011,184,26,male,True,2853,2859,False,False,inspiration,inspiration
24,79.0,25,F,down,0.5701923000160605,1.9798452854073996,,psi_staircase_training,emotion,,79.636070985635,79.636070985635,25.71326925488641,288.29197939997533,184,26,male,True,2882,2888,False,False,inspiration,inspiration
25,103.0,25,F,down,0.5256597000407055,1.7594408335859189,,psi_staircase_training,emotion,,97.61123893914808,97.61123893914808,26.1463337262867,290.95851719996426,184,26,male,True,2908,2913,False,False,inspiration,inspiration
26,127.0,25,M,down,1.0836876999819651,1.8583502838471413,,psi_staircase_training,emotion,,117.15641007867752,117.15641007867752,31.432291447829705,293.7084495999152,184,26,male,True,2936,2947,False,False,inspiration,inspiration
27,148.0,25,F,up,1.1728008999489248,0.3246276764649301,,psi_staircase_training,emotion,,137.43317204546622,137.43317204546622,34.340881921268554,295.45836980000604,184,26,male,True,2953,2965,False,False,expiration,expiration
28,132.0,25,M,down,1.667366600013338,1.4956601909638003,,psi_staircase_training,emotion,,125.26880931386356,125.26880931386356,34.38193433170599,298.4747991999611,184,26,male,True,2984,3001,False,False,expiration,expiration
29,141.0,25,F,down,1.1323611000552771,1.6235166737520252,,psi_staircase_training,emotion,,136.94927261923726,136.94927261923726,35.22297814081058,302.1247958999593,184,26,male,True,3020,3031,False,False,expiration,expiration
30,157.0,25,F,up,0.7368217000039294,1.9722133305116671,,psi_staircase_training,emotion,,146.84993969400895,146.84993969400895,35.95346412760786,305.59132140001753,184,26,male,True,3055,3062,False,False,expiration,expiration
31,135.0,25,M,down,0.9855757999466732,0.5306609749815088,,psi_staircase_training,emotion,,140.37904280512964,140.37904280512964,34.6741996565416,307.22460439999116,184,26,male,True,3071,3081,False,False,inspiration,expiration
32,157.0,25,F,up,0.7829431000864133,0.7142688736572358,,psi_staircase_training,emotion,,146.1810528074788,146.1810528074788,33.50806732685611,309.24118739995174,184,26,male,True,3091,3099,False,False,inspiration,inspiration
33,134.0,25,F,up,0.9403601000085472,0.4248106758876082,,psi_staircase_training,emotion,,141.72540830241292,141.72540830241292,31.39600934864873,310.8078044999856,184,26,male,True,3107,3116,False,False,inspiration,inspiration
34,123.0,25,F,up,2.2605121999513362,1.7705426348741498,,psi_staircase_training,emotion,,135.13015152466082,135.13015152466082,35.457997612433154,313.85766290000174,184,26,male,True,3137,3160,False,False,expiration,inspiration
35,111.0,25,M,up,1.0202638999326157,0.6246838573923151,,psi_staircase_training,emotion,,129.10446765557958,129.10446765557958,36.96872380595944,317.09089739993215,184,26,male,True,3170,3180,False,False,inspiration,expiration
36,103.0,25,M,down,1.050190900103189,0.5972847468425866,,psi_staircase_training,emotion,,123.15564946310545,123.15564946310545,38.39061191250243,319.0739895999432,184,26,male,True,3190,3201,False,False,expiration,inspiration
37,148.0,25,F,up,1.2600746999960393,1.353955184109254,,psi_staircase_training,emotion,,125.69552343391709,125.69552343391709,37.806084315146826,321.8240620999132,184,26,male,True,3217,3230,False,False,expiration,expiration
38,100.0,25,F,down,0.8809695000527427,1.64225475336521,,psi_staircase_training,emotion,,123.5046111969123,123.5046111969123,37.2033416899636,325.0741946999915,184,26,male,True,3250,3259,False,False,inspiration,expiration
39,151.0,25,M,up,0.8489731999579817,0.6668708251961953,,psi_staircase_training,emotion,,125.48274510159573,125.48274510159573,36.52900640888527,326.97414429998025,184,26,male,True,3269,3277,False,False,expiration,inspiration
40,98.0,25,M,down,0.8683167999843135,0.35289350617379395,,psi_staircase_training,emotion,,123.78206597435245,123.78206597435245,35.84562104305631,328.52382050000597,184,26,male,True,3284,3293,False,False,inspiration,inspiration
41,153.0,25,M,up,1.4896843000315132,0.4097558830486202,,psi_staircase_training,emotion,,125.37024473651873,125.37024473651873,35.10097129169936,330.1904501999961,184,26,male,True,3301,3316,False,False,expiration,expiration
42,97.0,25,M,down,0.8564787000650541,0.6928384286702509,,psi_staircase_training,emotion,,124.01259220360464,124.01259220360464,34.360111515176946,332.7236539999722,184,26,male,True,3326,3335,False,False,expiration,expiration
43,154.0,25,F,up,0.882552900002338,0.6843899924604109,,psi_staircase_training,emotion,,125.32661477940044,125.32661477940044,33.56431185884129,334.62359639990615,184,26,male,True,3345,3354,False,False,expiration,expiration
44,97.0,25,F,down,0.985039999941364,1.9080003497042604,,psi_staircase_training,emotion,,124.21096553524201,124.21096553524201,32.78642255704176,337.74015379999764,184,26,male,True,3376,3386,False,False,expiration,expiration
45,154.0,25,F,up,0.8760405000066385,0.33964369392103505,,psi_staircase_training,emotion,,125.33331961979937,125.33331961979937,31.956814034561454,339.39009509992314,184,26,male,True,3393,3402,False,False,expiration,expiration
46,97.0,25,M,down,1.0288230000296608,0.6351633883577419,,psi_staircase_training,emotion,,124.3868739891262,124.3868739891262,31.158865435518337,341.22333209996583,184,26,male,True,3411,3421,False,False,expiration,expiration
47,98.0,25,M,down,1.6635199999436736,0.6040124734779131,,psi_staircase_training,emotion,,125.34644543270522,125.34644543270522,30.318079831470136,343.20661499991553,184,26,male,True,3431,3448,False,False,inspiration,expiration
48,154.0,25,F,down,1.8313614000799132,1.3501064992117382,,psi_staircase_training,emotion,,126.19775248145427,126.19775248145427,29.5150176509018,346.53980389994103,184,26,male,True,3464,3482,False,False,peak,inspiration
49,160.0,25,F,up,0.7011341000907123,0.8684480191083301,,psi_staircase_training,emotion,,129.90165452945894,129.90165452945894,33.345616166172555,349.623035699944,184,26,male,True,3495,3502,False,False,inspiration,inspiration
50,159.0,25,M,up,0.725531299947761,1.5722896925719614,,psi_staircase_training,emotion,,129.01477114343086,129.01477114343086,32.60679882921508,352.2896005999064,184,26,male,True,3522,3529,False,False,inspiration,inspiration
51,99.0,25,M,up,0.6559795000357553,0.8061328830325696,,psi_staircase_training,emotion,,128.21669660499688,128.21669660499688,31.894893125134804,354.1561868999852,184,26,male,True,3540,3547,False,False,inspiration,inspiration
52,0.29,25,up,up,0.9267291000578552,1.4892068384190111,,psi_staircase_training,cRDM,,0.25,0.25693124029946324,0.10500000000000002,384.88843439996714,184,26,male,True,3848,3857,False,False,inspiration,inspiration
53,0.25,25,up,up,0.4802118999650702,0.9835387921524156,,psi_staircase_training,cRDM,,0.21910266653183127,0.2260132002683493,0.10468632033873933,387.0719189000083,184,26,male,True,3870,3875,False,False,inspiration,inspiration
54,0.21,25,down,down,0.3504847000585869,1.4689018581294857,,psi_staircase_training,cRDM,,0.1900540959403307,0.19684979615540016,0.10294672984249993,389.3048955999548,184,26,male,True,3892,3896,False,False,expiration,expiration
55,0.18,25,down,down,0.6103256000205874,1.0619766937360562,,psi_staircase_training,cRDM,,0.1635257589279754,0.1701521334256793,0.100381647756865,391.05482520000083,184,26,male,True,3909,3915,False,False,inspiration,inspiration
56,0.15,25,up,up,0.43637889996171003,0.9237961966123988,,psi_staircase_training,cRDM,,0.14018955742449365,0.14660133511875031,0.0971307628663642,392.8547777999193,184,26,male,True,3927,3931,False,False,expiration,expiration
57,0.13,25,down,down,0.4504311999771744,0.8441282894447983,,psi_staircase_training,cRDM,,0.11987606021454796,0.12605547676183335,0.09361076941961036,394.4047243999085,184,26,male,True,3943,3948,False,False,expiration,expiration
58,0.11,25,up,up,0.5131805000128224,1.6999383074601635,,psi_staircase_training,cRDM,,0.10257735236965487,0.10849103445698656,0.08958521019937955,396.83794729993684,184,26,male,True,3967,3972,False,False,expiration,expiration
59,0.09,25,down,down,0.4722956999903545,1.7011813909842284,,psi_staircase_training,cRDM,,0.08784432595859408,0.09348182153209693,0.08540131486476357,399.33785599994013,184,26,male,True,3992,3997,False,False,expiration,expiration
60,0.08,25,down,down,0.4736946999328211,0.7768725194504261,,psi_staircase_training,cRDM,,0.07518520921180863,0.0805556301471181,0.08135545354720439,400.8544579999289,184,26,male,True,4007,4012,False,False,inspiration,inspiration
61,0.06,25,up,down,0.4167897999286652,0.6454034697779395,,psi_staircase_training,cRDM,,0.06447903911685147,0.06954222446062751,0.0767012018235253,402.2377584999194,184,26,male,True,4021,4025,False,False,inspiration,inspiration
62,0.11,25,down,up,0.5904454999836162,0.6049279306511999,,psi_staircase_training,cRDM,,0.0948602595780939,0.10071627432598904,0.08871161898348927,403.5377213999163,184,26,male,True,4034,4040,False,False,expiration,expiration
63,0.17,25,down,down,0.4438782000215724,0.760351812840433,,psi_staircase_training,cRDM,,0.13766066685306916,0.1451601945720273,0.11360887467017745,405.1542954000179,184,26,male,True,4050,4054,False,False,inspiration,inspiration
64,0.16,25,down,down,0.6712401999393478,1.2607529378102758,,psi_staircase_training,cRDM,,0.12400767602847118,0.13125204886206426,0.1097435833506126,407.12090290000197,184,26,male,True,4070,4077,False,False,expiration,expiration
65,0.15,25,up,up,0.4509456999367103,0.5780864559944279,,psi_staircase_training,cRDM,,0.11316434660122375,0.12011637678816435,0.1053149419282566,408.65420310001366,184,26,male,True,4085,4090,False,False,expiration,inspiration
66,0.13,25,up,up,0.4570187999634072,1.16498430878382,,psi_staircase_training,cRDM,,0.1045113540539,0.11116350949797033,0.10077219825742777,410.5541399999056,184,26,male,True,4104,4109,False,False,inspiration,inspiration
67,0.1,25,down,down,0.4387321000685915,0.4566719834880402,,psi_staircase_training,cRDM,,0.09659483000685268,0.10308015618156244,0.09824493437303833,411.73742509994185,184,26,male,True,4116,4120,False,False,inspiration,inspiration
68,0.1,25,down,down,0.6154438001103699,0.6151044442027818,,psi_staircase_training,cRDM,,0.08798163601848659,0.094698922554329,0.10175885639372068,413.0707012999337,184,26,male,True,4130,4136,False,False,expiration,expiration
69,0.1,25,up,up,0.4185108999954537,0.7602129232985102,,psi_staircase_training,cRDM,,0.08030557065417228,0.08711071836557194,0.10308984811164268,414.7206150999992,184,26,male,True,4146,4150,False,False,inspiration,inspiration
70,0.1,25,up,up,0.4756133999908343,1.4987284250954038,,psi_staircase_training,cRDM,,0.07376976628931113,0.08053397281340674,0.10246963809421482,416.92057079996454,184,26,male,True,4168,4173,False,False,expiration,expiration
71,0.1,25,up,down,0.4708685000659898,1.4999108143518929,,psi_staircase_training,cRDM,,0.06840574039790369,0.07502402259601533,0.10025905909733562,419.17029469995765,184,26,male,True,4191,4196,False,False,expiration,expiration
72,0.13,25,up,down,0.5477567999623716,1.4999847602713632,,psi_staircase_training,cRDM,,0.08723765935347899,0.0948496625450415,0.11531274354691674,421.42040439997805,184,26,male,True,4213,4218,False,False,inspiration,inspiration
73,0.17,25,down,down,0.526147099910304,1.4887194636775092,,psi_staircase_training,cRDM,,0.10970297158860656,0.11833594468674795,0.13077921643764706,423.73697939992417,184,26,male,True,4236,4241,False,False,expiration,expiration
74,0.17,25,down,down,0.41678970004431903,0.3090532421519567,,psi_staircase_training,cRDM,,0.10337726494749072,0.1117786313727405,0.1272706523707653,424.853605399956,184,26,male,True,4247,4251,False,False,expiration,expiration
75,0.11,25,down,up,1.4808764000190422,0.5236460469327137,,psi_staircase_training,cRDM,,0.09843659539853523,0.10658548902556653,0.1234459914633952,426.07021639996674,184,26,male,True,4260,4275,False,False,inspiration,expiration
76,0.17,25,up,down,0.574314899975434,0.4484116130678653,,psi_staircase_training,cRDM,,0.11883423496640075,0.1261737221663227,0.11118445223309924,428.28682669997215,184,26,male,True,4282,4288,False,False,expiration,expiration
77,0.21,25,up,up,0.7137008999707177,1.3175988448184617,,psi_staircase_training,cRDM,,0.1438637177525451,0.1532809096389522,0.14265919306668864,430.45340619992925,184,26,male,True,4303,4310,False,False,trough,inspiration
78,0.2,25,down,down,0.6477938999887556,1.005348184132004,,psi_staircase_training,cRDM,,0.13536450147165194,0.14461833976943708,0.1401845815881868,432.45332490000885,184,26,male,True,4323,4329,False,False,inspiration,inspiration
79,0.19,25,down,up,0.5979014000622556,1.405317196176972,,psi_staircase_training,cRDM,,0.1282564044785995,0.13732687715339512,0.1374068117256431,434.803259999957,184,26,male,True,4347,4353,False,False,inspiration,inspiration
80,0.26,25,up,up,0.7773604000685737,1.385676003566641,,psi_staircase_training,cRDM,,0.15745238313895032,0.1674647582836717,0.15167550752455555,437.06980009994004,184,26,male,True,4369,4377,False,False,expiration,expiration
81,0.24,25,up,up,0.5110733000328764,1.0873216314653995,,psi_staircase_training,cRDM,,0.1496942530198722,0.15958403563920476,0.14981837739925624,439.2030861999374,184,26,male,True,4391,4396,False,False,inspiration,inspiration
82,100.0,25,M,down,0.9488438999978824,0.9936578669058248,,psi_staircase,emotion,,100.0,100.0,25.00050000000001,460.1523002999602,184,26,male,True,4600,4609,False,False,expiration,expiration
83,145.0,25,M,up,0.6322284999769181,1.0567569409538788,,psi_staircase,emotion,,145.25719053245996,145.25719053245996,25.000500000000283,462.5188839999028,184,26,male,True,4624,4630,False,False,expiration,expiration
84,121.0,25,F,up,0.8075710000703111,1.9789270114028439,,psi_staircase,emotion,,120.36392901436103,120.36392901436103,25.71326925488699,465.46857929998083,184,26,male,True,4654,4662,False,False,inspiration,inspiration
85,97.0,25,F,down,0.7392313999589533,1.9470379158556952,,psi_staircase,emotion,,102.38876106084959,102.38876106084959,26.14633372628729,468.5689184999792,184,26,male,True,4685,4692,False,False,inspiration,inspiration
86,113.0,25,M,down,0.7691876000026241,0.5575920345595653,,psi_staircase,emotion,,114.01123255420406,114.01123255420406,23.003056417783352,470.20192799996585,184,26,male,True,4701,4709,False,False,inspiration,inspiration
87,127.0,25,F,up,0.7917257000226527,1.755446854105686,,psi_staircase,emotion,,123.15505271238727,123.15505271238727,23.86267166612523,473.06838429998606,184,26,male,True,4730,4738,False,False,inspiration,expiration
88,117.0,25,M,up,0.6383642998989671,0.485734699956073,,psi_staircase,emotion,,116.72664759921038,116.72664759921038,20.612160618334435,474.7017698999262,184,26,male,True,4746,4752,False,False,expiration,expiration
89,107.0,25,F,up,0.7507776999846101,1.4359490345257506,,psi_staircase,emotion,,111.41772370799677,111.41772370799677,20.39996786109954,477.1183286999585,184,26,male,True,4770,4778,False,False,inspiration,inspiration
90,91.0,25,F,down,0.6095163999125361,0.4764227095653151,,psi_staircase,emotion,,104.32443105099111,104.32443105099111,26.32628876540062,478.7016177999322,184,26,male,True,4786,4792,False,False,expiration,inspiration
91,93.0,25,M,down,0.6991699999198318,0.5257158131983979,,psi_staircase,emotion,,107.92512315738632,107.92512315738632,23.700331269421763,480.1849369999254,184,26,male,True,4801,4808,False,False,peak,expiration
92,124.0,25,F,up,0.7737018000334501,1.9075235696123471,,psi_staircase,emotion,,110.22796413543165,110.22796413543165,21.45892762814926,483.1514361000154,184,26,male,True,4830,4838,False,False,inspiration,expiration
93,95.0,25,F,down,0.7133951999712735,0.8210871817767019,,psi_staircase,emotion,,108.403965494472,108.403965494472,19.38210143201049,485.08473519992555,184,26,male,True,4850,4857,False,False,expiration,inspiration
94,122.0,25,F,down,1.14652800001204,1.4786342675601911,,psi_staircase,emotion,,109.94368713509012,109.94368713509012,17.31191981424421,487.63461820001254,184,26,male,True,4875,4886,False,False,expiration,trough
95,133.0,25,M,up,0.7916132000973448,0.8967950048420497,,psi_staircase,emotion,,114.59314066093279,114.59314066093279,24.11292154222967,490.0345593999373,184,26,male,True,4899,4907,False,False,expiration,inspiration
96,132.0,25,M,up,0.984702599933371,1.4761685252676222,,psi_staircase,emotion,,113.11482960151436,113.11482960151436,22.3415717159731,492.6344498000108,184,26,male,True,4925,4935,False,False,expiration,expiration
97,95.0,25,F,down,0.8534827000694349,1.4208515444346346,,psi_staircase,emotion,,112.0421199076192,112.0421199076192,20.78866919367305,495.36766829993576,184,26,male,True,4953,4962,False,False,expiration,expiration
98,97.0,25,F,down,0.9765248999465256,1.156854889155867,,psi_staircase,emotion,,113.14858318163755,113.14858318163755,19.1899060262132,497.71759079990443,184,26,male,True,4976,4986,False,False,inspiration,expiration
99,130.0,25,M,up,1.0143133000237867,1.1164665367206321,,psi_staircase,emotion,,114.00913104773956,114.00913104773956,17.8067915036077,500.15083830000367,184,26,male,True,5000,5010,False,False,expiration,inspiration
100,99.0,25,M,down,0.6947777000023052,0.9503380942831524,,psi_staircase,emotion,,113.18131505702776,113.18131505702776,16.448035494338278,502.48433889995795,184,26,male,True,5024,5031,False,False,expiration,expiration
101,127.0,25,M,up,1.1291352999396622,1.311740424863983,,psi_staircase,emotion,,113.881547657974,113.881547657974,15.294028128063893,504.834000099916,184,26,male,True,5047,5058,False,False,inspiration,inspiration
102,103.0,25,M,down,0.8429554000031203,1.838641248494547,,psi_staircase,emotion,,113.17176259181299,113.17176259181299,14.17861268692099,508.167190899956,184,26,male,True,5080,5088,False,False,expiration,inspiration
103,125.0,25,F,down,0.7410344999516383,1.868011835616988,,psi_staircase,emotion,,113.90039185885715,113.90039185885715,13.267994517046231,511.2170840000035,184,26,male,True,5111,5118,False,False,expiration,expiration
104,134.0,25,F,up,0.7665164000354707,1.7339983914924018,,psi_staircase,emotion,,116.4917930857337,116.4917930857337,17.033132648995633,514.0336318999762,184,26,male,True,5139,5147,False,False,inspiration,peak
105,132.0,25,F,up,0.8055516000604257,0.4867998192598635,,psi_staircase,emotion,,115.94264776780027,115.94264776780027,15.969587833790431,515.633584599942,184,26,male,True,5155,5163,False,False,expiration,inspiration
106,102.0,25,M,down,1.056683300063014,0.909367796101202,,psi_staircase,emotion,,115.48167646427186,115.48167646427186,15.059597981755399,517.6834155999823,184,26,male,True,5176,5187,False,False,inspiration,expiration
107,103.0,25,M,down,0.8334138999925926,1.4827701345847062,,psi_staircase,emotion,,116.01012389406422,116.01012389406422,14.214975271322135,520.5667386999121,184,26,male,True,5204,5212,False,False,expiration,inspiration
108,130.0,25,F,down,0.5947708999738097,0.3832537165286271,,psi_staircase,emotion,,116.46511608999944,116.46511608999944,13.489624340040343,522.1333543999353,184,26,male,True,5220,5226,False,False,inspiration,inspiration
109,137.0,25,F,up,0.9431791000533848,1.8704274996501973,,psi_staircase,emotion,,118.65441155116386,118.65441155116386,17.191872227113453,524.9499227999477,184,26,male,True,5248,5257,False,False,inspiration,expiration
110,136.0,25,M,up,0.8672849999275059,1.7601509912669941,,psi_staircase,emotion,,118.20992278478563,118.20992278478563,16.300292036354413,527.9998177000089,184,26,male,True,5279,5288,False,False,expiration,expiration
111,103.0,25,M,down,0.7258506000507623,1.3745043645489503,,psi_staircase,emotion,,117.84545588300514,117.84545588300514,15.540254353697973,530.5662527999375,184,26,male,True,5305,5312,False,False,expiration,expiration
112,134.0,25,F,up,0.7811924999114126,1.5425666080353635,,psi_staircase,emotion,,118.24725539431282,118.24725539431282,14.85102125711776,533.1829480999148,184,26,male,True,5331,5339,False,False,inspiration,inspiration
113,104.0,25,M,down,0.7849773999769241,0.8521073486414643,,psi_staircase,emotion,,117.9169399150685,117.9169399150685,14.229204843636456,535.1661537999753,184,26,male,True,5351,5359,False,False,expiration,inspiration
114,106.0,25,F,up,1.1223031999543311,0.7855091300802384,,psi_staircase,emotion,,118.28143270027701,118.28143270027701,13.661700214380323,537.0828199000099,184,26,male,True,5370,5381,False,False,inspiration,expiration
115,134.0,25,M,up,0.8678264999762177,1.7225061669160848,,psi_staircase,emotion,,116.64347817375848,116.64347817375848,15.924976504387455,540.2662855999079,184,26,male,True,5402,5411,False,False,expiration,inspiration
116,100.0,25,F,down,1.1005025999620557,1.7159705965170533,,psi_staircase,emotion,,116.3427393208965,116.3427393208965,15.333287513304867,543.1825967999175,184,26,male,True,5431,5442,False,False,expiration,expiration
117,133.0,25,M,up,0.8053047000430524,1.0959896465104912,,psi_staircase,emotion,,116.63785057821501,116.63785057821501,14.797818597486575,545.7158260999713,184,26,male,True,5456,5464,False,False,expiration,inspiration
118,102.0,25,F,down,1.219467999995686,1.2803951940805756,,psi_staircase,emotion,,116.3672240908076,116.3672240908076,14.314505635665741,548.1656160999555,184,26,male,True,5481,5493,False,False,expiration,inspiration
119,131.0,25,M,up,0.8438054000725971,0.7469604990319456,,psi_staircase,emotion,,116.66394574088743,116.66394574088743,13.864505321281175,550.482321199961,184,26,male,True,5504,5512,False,False,expiration,expiration
120,103.0,25,M,down,1.6008541999617592,0.3669622713008278,,psi_staircase,emotion,,116.38997042071308,116.38997042071308,13.45591860269352,552.032278199913,184,26,male,True,5519,5535,False,False,expiration,expiration
121,130.0,25,F,up,0.7943140000570565,1.3803280363452577,,psi_staircase,emotion,,116.67150851180622,116.67150851180622,13.077811785683894,555.3487875999417,184,26,male,True,5552,5560,False,False,inspiration,inspiration
122,104.0,25,F,down,1.1928698000265283,1.880792555834456,,psi_staircase,emotion,,116.41036412841889,116.41036412841889,12.73331600854886,558.3652564999646,184,26,male,True,5583,5595,False,False,inspiration,expiration
123,129.0,25,F,up,0.7921426000539213,1.1756218241232264,,psi_staircase,emotion,,116.68316572378643,116.68316572378643,12.410278295382373,561.0819564999547,184,26,male,True,5610,5618,False,False,expiration,expiration
124,106.0,25,M,down,0.7542847000295296,1.9955619240469182,,psi_staircase,emotion,,116.42889640754284,116.42889640754284,12.114468113760164,564.2318189999787,184,26,male,True,5641,5649,False,False,expiration,expiration
125,106.0,25,M,down,1.075147100025788,0.9360582440770991,,psi_staircase,emotion,,116.72712066227385,116.72712066227385,11.832762158748764,566.2649618999567,184,26,male,True,5662,5673,False,False,inspiration,inspiration
126,127.0,25,F,down,0.8727513999911025,0.6066366727712522,,psi_staircase,emotion,,116.99399949947306,116.99399949947306,11.574865130159235,568.298350899946,184,26,male,True,5682,5691,False,False,expiration,expiration
127,106.0,25,F,down,0.6350718999747187,1.389128839412875,,psi_staircase,emotion,,118.12684503339176,118.12684503339176,12.5990851322742,570.8982297999319,184,26,male,True,5708,5714,False,False,expiration,inspiration
128,131.0,25,F,up,0.702627900056541,0.9443169240975824,,psi_staircase,emotion,,118.35786210205944,118.35786210205944,12.325851982964616,572.8314974999521,184,26,male,True,5727,5734,False,False,expiration,expiration
129,107.0,25,M,down,1.3663974000373855,1.071858788352125,,psi_staircase,emotion,,118.14151592342638,118.14151592342638,12.058342865172872,574.9647446000017,184,26,male,True,5749,5763,False,False,inspiration,expiration
130,130.0,25,M,down,2.155978299910202,1.8006802607257804,,psi_staircase,emotion,,118.3754995047266,118.3754995047266,11.814521456771148,578.481185499928,184,26,male,True,5784,5806,False,False,expiration,inspiration
131,134.0,25,M,up,0.9839448999846354,0.7341305839488694,,psi_staircase,emotion,,119.43142481019754,119.43142481019754,12.979119042457807,581.7311744999606,184,26,male,True,5816,5826,False,False,inspiration,inspiration
132,0.29,25,up,up,0.43855309998616576,1.5549706139206882,,psi_staircase,cRDM,,0.25,0.25693124029946324,0.10500000000000002,589.097574400017,184,26,male,True,5890,5894,False,False,inspiration,inspiration
133,0.25,25,up,up,0.4965955000370741,1.604847767992173,,psi_staircase,cRDM,,0.21910266653183127,0.2260132002683493,0.10468632033873933,591.3975014999742,184,26,male,True,5913,5918,False,False,inspiration,inspiration
134,0.21,25,down,down,0.8349789000349119,0.654705347861107,,psi_staircase,cRDM,,0.1900540959403307,0.19684979615540016,0.10294672984249993,592.8141056000022,184,26,male,True,5927,5935,False,False,inspiration,inspiration
135,0.18,25,down,down,0.5674766000593081,0.5089999192597914,,psi_staircase,cRDM,,0.1635257589279754,0.1701521334256793,0.100381647756865,594.4307067999616,184,26,male,True,5943,5949,False,False,inspiration,expiration
136,0.15,25,up,up,0.3838475000811741,1.1202722938744256,,psi_staircase,cRDM,,0.14018955742449365,0.14660133511875031,0.0971307628663642,596.3639372999314,184,26,male,True,5962,5966,False,False,expiration,trough
137,0.13,25,down,down,0.41674689995124936,1.8273969097119471,,psi_staircase,cRDM,,0.11987606021454796,0.12605547676183335,0.09361076941961036,598.8805665000109,184,26,male,True,5988,5992,False,False,expiration,expiration
138,0.11,25,up,down,0.8750027000205591,1.7852216978174975,,psi_staircase,cRDM,,0.10257735236965487,0.10849103445698656,0.08958521019937955,601.3471101999747,184,26,male,True,6012,6021,False,False,expiration,inspiration
139,0.18,25,down,down,0.7874376999679953,1.6440218826064057,,psi_staircase,cRDM,,0.15550416599619746,0.16241001844525527,0.10461540443305936,604.1136703999947,184,26,male,True,6040,6048,False,False,inspiration,peak
140,0.16,25,down,down,0.7432405999861658,1.899338980665946,,psi_staircase,cRDM,,0.13916584380818955,0.1457849300972332,0.10027124011317312,607.0468782999087,184,26,male,True,6069,6076,False,False,inspiration,inspiration
141,0.15,25,up,up,0.6553040000144392,1.399653936421319,,psi_staircase,cRDM,,0.12580327505455896,0.1321354728273346,0.0959252222423927,609.4468035999453,184,26,male,True,6093,6100,False,False,expiration,inspiration
142,0.15,25,down,down,0.6514159000944346,1.2822126551091808,,psi_staircase,cRDM,,0.11506994712599955,0.1211167653058565,0.0916020627555138,611.6467185999501,184,26,male,True,6115,6122,False,False,peak,expiration
143,0.13,25,down,up,0.4357587000122294,0.5471672633068818,,psi_staircase,cRDM,,0.10698819003606964,0.11270393797745792,0.08658674463966308,613.1133642999921,184,26,male,True,6130,6134,False,False,expiration,expiration
144,0.17,25,down,down,0.5654834000160918,0.4457489359042418,,psi_staircase,cRDM,,0.1375992308975301,0.14371438735532852,0.0926373059261205,614.2466268999269,184,26,male,True,6141,6147,False,False,expiration,expiration
145,0.17,25,up,up,0.5159945999039337,1.192395911641759,,psi_staircase,cRDM,,0.12937333768945958,0.1350671926308713,0.08625509187648961,616.2631083999295,184,26,male,True,6162,6167,False,False,inspiration,inspiration
146,0.16,25,up,down,1.3296539000002667,1.7439012223618902,,psi_staircase,cRDM,,0.12362427536518893,0.12889386756218682,0.07982801876420666,618.7964716999559,184,26,male,True,6187,6200,False,False,expiration,inspiration
147,0.19,25,down,down,0.6670612000161782,0.32446837253164473,,psi_staircase,cRDM,,0.15134805152884515,0.15905898592415876,0.11681143295098625,620.7130693999352,184,26,male,True,6206,6213,False,False,expiration,inspiration
148,0.19,25,down,down,0.919763799989596,1.3528912354607252,,psi_staircase,cRDM,,0.14159813387978834,0.14898039458227005,0.1118324196349968,622.9963129999816,184,26,male,True,6229,6238,False,False,expiration,expiration
149,0.19,25,up,up,0.6272186000132933,0.4183569362593602,,psi_staircase,cRDM,,0.13425572945601838,0.14127632382588212,0.10635360728912767,624.6129060999956,184,26,male,True,6245,6251,False,False,inspiration,inspiration
150,0.18,25,up,up,0.6162551000015811,0.9044737808667176,,psi_staircase,cRDM,,0.12888559206764327,0.1355300386135951,0.10065541767163498,626.4128567000153,184,26,male,True,6263,6269,False,False,expiration,expiration
151,0.14,25,up,up,0.5806482000043616,1.4360992959538592,,psi_staircase,cRDM,,0.12473197978399317,0.1310132248695424,0.09515334997601216,628.7294426999288,184,26,male,True,6286,6292,False,False,expiration,expiration
152,0.14,25,up,down,1.2871347999898717,1.3787380571826489,,psi_staircase,cRDM,,0.11683456525572425,0.12346997680376486,0.1005185482601452,630.9460030999035,184,26,male,True,6308,6321,False,False,inspiration,expiration
153,0.19,25,down,down,0.5094643998891115,0.4085016809209716,,psi_staircase,cRDM,,0.13859757424301705,0.14451839212690532,0.08969330898200256,632.9126462999266,184,26,male,True,6328,6333,False,False,expiration,inspiration
154,0.18,25,down,down,0.45024749997537583,0.9632886003470096,,psi_staircase,cRDM,,0.13562105646631556,0.14111834225886985,0.08327730438993698,634.6458550000098,184,26,male,True,6345,6350,False,False,expiration,expiration
155,0.15,25,down,down,0.4689597999677062,1.066411201724712,,psi_staircase,cRDM,,0.13339069428471587,0.13849746529777307,0.07736147257981077,636.4291514999933,184,26,male,True,6363,6368,False,False,expiration,trough
156,0.13,25,up,up,0.7134216000558808,1.98168526407264,,psi_staircase,cRDM,,0.1277465319585218,0.1330875499587409,0.08091003424977676,639.1457082999405,184,26,male,True,6390,6397,False,False,expiration,expiration
157,0.13,25,up,up,0.7291255000745878,1.002653422006489,,psi_staircase,cRDM,,0.11985677980473315,0.12594509240855908,0.09223065364668227,641.1289989999495,184,26,male,True,6410,6417,False,False,expiration,inspiration
158,0.12,25,down,down,0.6288799999747425,0.4872839955148087,,psi_staircase,cRDM,,0.11185111333689099,0.1186075241602222,0.10235154255216226,642.6122475999873,184,26,male,True,6425,6431,False,False,inspiration,inspiration
159,0.12,25,down,down,0.8010380000341684,0.8513310986933538,,psi_staircase,cRDM,,0.10359145383907373,0.11103120243604646,0.11270329247459945,644.3620731999399,184,26,male,True,6443,6451,False,False,expiration,expiration
160,0.12,25,up,up,0.5151104000397027,0.4938579390664121,,psi_staircase,cRDM,,0.09582742055786816,0.10381420675149944,0.12099025774596585,645.9121319999687,184,26,male,True,6458,6463,False,False,expiration,expiration
161,0.12,25,up,down,1.1976950999815017,0.8552798020777266,,psi_staircase,cRDM,,0.08881979083242737,0.09721395868438318,0.12716160259565845,647.5454093000153,184,26,male,True,6474,6486,False,False,expiration,inspiration
162,0.12,25,down,down,1.6807702000951394,1.779790865230528,,psi_staircase,cRDM,,0.10811511986767504,0.11562538088481975,0.11377147129948205,650.7953078999418,184,26,male,True,6507,6524,False,False,expiration,expiration
163,0.12,25,up,up,0.6036423998884857,1.6825994558577406,,psi_staircase,cRDM,,0.10090369356651847,0.1089664829456482,0.1221416150979758,654.428485399927,184,26,male,True,6543,6549,False,False,inspiration,inspiration
164,0.11,25,down,down,0.6563295000232756,1.7642830507832106,,psi_staircase,cRDM,,0.09428643946969223,0.10277273916304734,0.12855728979289452,657.0617511000019,184,26,male,True,6570,6577,False,False,inspiration,inspiration
165,0.11,25,up,up,0.6388270000461489,1.4151318990695632,,psi_staircase,cRDM,,0.08810396209355191,0.09694785619499416,0.13397441735259769,659.3783438999671,184,26,male,True,6593,6599,False,False,expiration,expiration
166,0.11,25,down,down,0.7328473000088707,1.2398212996630735,,psi_staircase,cRDM,,0.08258933578081579,0.0916855551907841,0.13779684396754124,661.528240500018,184,26,male,True,6614,6621,False,False,inspiration,expiration
167,0.11,25,up,up,0.6243875999934971,1.63778215816145,,psi_staircase,cRDM,,0.07770511020242399,0.0869696941887796,0.14034736591698738,664.1617353999753,184,26,male,True,6641,6647,False,False,inspiration,inspiration
168,0.11,25,down,down,0.6046988000161946,0.612697247224574,,psi_staircase,cRDM,,0.07337721015093722,0.08274624263199176,0.14192963567962075,665.6614096999401,184,26,male,True,6656,6662,False,False,expiration,expiration
169,0.12,25,up,up,0.5695438999682665,0.4272209752361869,,psi_staircase,cRDM,,0.06952224148057734,0.07894841809718647,0.14279530098250995,666.9616129999049,184,26,male,True,6669,6675,False,False,expiration,inspiration
170,0.13,25,up,up,0.7610494000837207,1.8745952319477919,,psi_staircase,cRDM,,0.06625916665611646,0.07568428168583295,0.1427792192108629,669.6610599999549,184,26,male,True,6696,6704,False,False,inspiration,inspiration
171,0.14,25,down,down,0.5979562998982146,1.2296079180720934,,psi_staircase,cRDM,,0.06353122740357252,0.07291132158628218,0.14209720722866606,671.9111927999184,184,26,male,True,6718,6724,False,False,expiration,expiration
172,0.1,25,down,down,0.7996528999647126,1.5677528142123351,,psi_staircase,cRDM,,0.061259810652359886,0.07056484646826378,0.14096016274974155,674.3444733999204,184,26,male,True,6742,6750,False,False,inspiration,expiration
173,0.16,25,down,down,0.6460424000397325,0.499329920130785,,psi_staircase,cRDM,,0.05834504546511245,0.06765451915536769,0.14102739123797128,675.9110431999434,184,26,male,True,6758,6764,False,False,expiration,inspiration
174,0.1,25,up,down,0.9731663999846204,0.7402205502325323,,psi_staircase,cRDM,,0.05670942218884621,0.06591823450169583,0.13950249177251656,677.5609525999753,184,26,male,True,6774,6784,False,False,inspiration,expiration
175,0.1,25,up,up,1.2591958000557495,1.4065607745386268,,psi_staircase,cRDM,,0.06667417394306087,0.07594123416500846,0.14038487792435153,680.2108842999443,184,26,male,True,6801,6814,False,False,inspiration,expiration
176,0.1,25,down,down,0.4979973000008613,1.8045137260003248,,psi_staircase,cRDM,,0.06356724932069846,0.07288323254250756,0.14112600285488638,683.5440909999888,184,26,male,True,6835,6840,False,False,inspiration,inspiration
177,0.18,25,down,down,0.4980590000050142,0.445774121578688,,psi_staircase,cRDM,,0.06072782586842175,0.07006680956829303,0.14147443258638978,684.7440435999307,184,26,male,True,6847,6852,False,False,expiration,expiration
178,0.17,25,down,down,0.5235367999412119,1.153155069264754,,psi_staircase,cRDM,,0.059429774518646776,0.06866611965462997,0.13991958111066147,686.6605755999917,184,26,male,True,6866,6871,False,False,expiration,trough
179,0.09,25,up,down,0.4558594999834895,1.1307939392783743,,psi_staircase,cRDM,,0.058109790139123776,0.06724654921447154,0.13841097140807646,688.5772724999115,184,26,male,True,6885,6890,False,False,inspiration,expiration
180,0.09,25,up,up,1.2819883999181911,1.9325150891937093,,psi_staircase,cRDM,,0.06729283055982202,0.07633553668884123,0.13698618176901772,691.2271463999059,184,26,male,True,6911,6924,False,False,expiration,inspiration
181,0.09,25,up,down,0.793692999985069,0.474482810346211,,psi_staircase,cRDM,,0.06416464899026272,0.07330130031461668,0.13840933910940212,693.2603854999179,184,26,male,True,6931,6939,False,False,expiration,expiration
182,124.0,25,F,down,0.7996249999850988,1.1141172802644232,,experiment,emotion,0.0,,,,698.943496099906,184,26,male,True,6988,6996,False,False,expiration,trough
183,114.0,25,M,down,0.8423962999368086,1.802950288649371,,experiment,emotion,0.0,,,,701.8267509000142,184,26,male,True,7017,7025,False,False,expiration,expiration
184,120.0,25,F,down,1.544825699995272,1.4165735614906054,,experiment,emotion,0.0,,,,704.3602424999699,184,26,male,True,7043,7058,False,False,expiration,expiration
185,124.0,25,M,down,1.1615867000073197,1.8639781210719588,,experiment,emotion,0.0,,,,708.0265294999118,184,26,male,True,7079,7091,False,False,inspiration,expiration
186,120.0,25,F,down,1.2260171000380071,1.878793114187386,,experiment,emotion,0.0,,,,711.3430612999947,184,26,male,True,7112,7124,False,False,inspiration,expiration
187,117.0,25,F,down,0.7331576000433415,1.6944111478724877,,experiment,emotion,0.0,,,,714.5429384999443,184,26,male,True,7144,7151,False,False,trough,inspiration
188,114.0,25,M,up,0.6002438999712467,0.9487274707481372,,experiment,emotion,0.0,,,,716.4928723999765,184,26,male,True,7164,7170,False,False,expiration,expiration
189,117.0,25,F,up,0.6453188000014052,1.8847138134092492,,experiment,emotion,0.0,,,,719.2427528999979,184,26,male,True,7191,7197,False,False,expiration,expiration
190,124.0,25,M,up,1.0813872999278829,1.239940329593887,,experiment,emotion,0.0,,,,721.3926952999318,184,26,male,True,7213,7224,False,False,expiration,inspiration
191,117.0,25,M,up,0.900487499893643,0.5350217164198086,,experiment,emotion,0.0,,,,723.2926158999326,184,26,male,True,7232,7241,False,False,inspiration,inspiration
192,120.0,25,F,up,1.076623799977824,1.67814514154755,,experiment,emotion,0.0,,,,726.1594488999108,184,26,male,True,7261,7272,False,False,expiration,inspiration
193,124.0,25,M,up,0.7327171000652015,1.05343399917865,,experiment,emotion,0.0,,,,728.5593630999792,184,26,male,True,7285,7292,False,False,inspiration,expiration
194,120.0,25,M,up,0.5447014999808744,0.7769921151568787,,experiment,emotion,0.0,,,,730.3423685999588,184,26,male,True,7302,7307,False,False,expiration,expiration
195,114.0,25,M,up,0.9952918000053614,1.7764436444948366,,experiment,emotion,0.0,,,,732.9587808999931,184,26,male,True,7329,7339,False,False,expiration,expiration
196,117.0,25,F,up,0.9256226000143216,1.8863739418831718,,experiment,emotion,0.0,,,,736.1254869999831,184,26,male,True,7360,7369,False,False,inspiration,inspiration
197,114.0,25,F,up,0.9200752000324428,1.0331447279312092,,experiment,emotion,0.0,,,,738.3590038999682,184,26,male,True,7383,7392,False,False,inspiration,inspiration
198,124.0,25,M,up,1.4788285000249743,1.9728856609440304,,experiment,emotion,0.0,,,,741.5252859999891,184,26,male,True,7414,7429,False,False,expiration,inspiration
199,114.0,25,M,down,0.6629122000886127,1.1140403654694764,,experiment,emotion,0.0,,,,744.3751919999486,184,26,male,True,7443,7450,False,False,expiration,expiration
200,120.0,25,F,down,0.6585985999554396,0.8731274130773554,,experiment,emotion,0.0,,,,746.208465899923,184,26,male,True,7461,7468,False,False,expiration,inspiration
201,120.0,25,F,down,1.0120237999362869,0.5747006450591458,,experiment,emotion,0.0,,,,747.7250510000157,184,26,male,True,7476,7486,False,False,expiration,inspiration
202,117.0,25,M,up,0.7455274000531062,1.238774108548433,,experiment,emotion,0.0,,,,750.2585722999647,184,26,male,True,7502,7509,False,False,expiration,expiration
203,117.0,25,F,down,1.3691679999465125,0.9572077429855336,,experiment,emotion,0.0,,,,752.2248990999069,184,26,male,True,7521,7535,False,False,inspiration,expiration
204,114.0,25,M,up,1.1410392000107097,1.7113600593431202,,experiment,emotion,0.0,,,,755.5580325999762,184,26,male,True,7555,7566,False,False,inspiration,inspiration
205,124.0,25,F,up,1.475060199969448,0.8227489311900478,,experiment,emotion,0.0,,,,757.8080481999788,184,26,male,True,7577,7592,False,False,expiration,inspiration
206,120.0,25,F,down,0.9045018999604508,0.7932328549835197,,experiment,emotion,0.0,,,,760.3746063999132,184,26,male,True,7603,7612,False,False,expiration,expiration
207,114.0,25,M,down,1.248011699994095,1.1134208583104106,,experiment,emotion,0.0,,,,762.6581111999693,184,26,male,True,7626,7638,False,False,inspiration,expiration
208,124.0,25,M,down,1.102320099947974,1.5360394582593195,,experiment,emotion,0.0,,,,765.7077328999294,184,26,male,True,7656,7667,False,False,expiration,inspiration
209,124.0,25,F,down,1.328415700001642,1.1169111506842404,,experiment,emotion,0.0,,,,768.2076440999518,184,26,male,True,7681,7694,False,False,expiration,expiration
210,117.0,25,M,up,0.6427103999303654,0.3389694178654524,,experiment,emotion,0.0,,,,770.1573868999257,184,26,male,True,7701,7707,False,False,inspiration,inspiration
211,114.0,25,F,up,0.7600338000338525,1.6070247383501295,,experiment,emotion,0.0,,,,772.6740714999614,184,26,male,True,7726,7734,False,False,expiration,inspiration
212,117.0,25,M,down,1.383743799990043,1.7574619468925825,,experiment,emotion,0.0,,,,775.4573593999958,184,26,male,True,7754,7768,False,False,expiration,inspiration
213,120.0,25,F,up,1.653114499989897,1.1566565200342205,,experiment,emotion,0.0,,,,778.2739456999117,184,26,male,True,7782,7799,False,False,inspiration,expiration
214,114.0,25,M,down,1.7912637001136318,1.5213567814941815,,experiment,emotion,0.0,,,,781.7238176999381,184,26,male,True,7816,7834,False,False,expiration,expiration
215,124.0,25,F,up,1.3532349999295548,0.8425930317591233,,experiment,emotion,0.0,,,,784.6568797999063,184,26,male,True,7846,7860,False,False,inspiration,inspiration
216,120.0,25,M,down,0.8995867999037728,0.5038608693720478,,experiment,emotion,0.0,,,,786.7735194999259,184,26,male,True,7867,7876,False,False,inspiration,inspiration
217,124.0,25,F,down,1.1006082999520004,1.2795414341086826,,experiment,emotion,0.0,,,,789.2235256999264,184,26,male,True,7891,7902,False,False,inspiration,expiration
218,114.0,25,M,up,0.7892843999434263,1.358878267575386,,experiment,emotion,0.0,,,,791.9567380999216,184,26,male,True,7918,7926,False,False,expiration,inspiration
219,120.0,25,F,up,0.9887320999987425,1.1999039313797917,,experiment,emotion,0.0,,,,794.2233695000177,184,26,male,True,7941,7951,False,False,expiration,expiration
220,117.0,25,M,up,0.9511539000086486,1.0478840941035314,,experiment,emotion,0.0,,,,796.5399355000118,184,26,male,True,7965,7975,False,False,inspiration,expiration
221,117.0,25,F,down,0.7879338000202551,1.8087093338238929,,experiment,emotion,0.0,,,,799.5731809999561,184,26,male,True,7995,8003,False,False,inspiration,inspiration
222,120.0,25,F,down,0.7167058999184519,1.7650761080213129,,experiment,emotion,0.0,,,,802.4063773999222,184,26,male,True,8023,8030,False,False,inspiration,inspiration
223,124.0,25,M,up,1.3695137000177056,1.6415730954909866,,experiment,emotion,0.0,,,,805.0565325999632,184,26,male,True,8050,8064,False,False,trough,expiration
224,117.0,25,F,up,0.6751919999951497,1.0129644975665753,,experiment,emotion,0.0,,,,807.7228519999188,184,26,male,True,8076,8083,False,False,expiration,inspiration
225,114.0,25,M,down,1.2232949999161065,1.944253644813708,,experiment,emotion,0.0,,,,810.6227592999347,184,26,male,True,8105,8117,False,False,expiration,inspiration
226,114.0,25,M,down,0.6477257000515237,0.4683573198897447,,experiment,emotion,0.0,,,,812.5893425999675,184,26,male,True,8125,8131,False,False,inspiration,expiration
227,117.0,25,F,up,1.1484024999663234,0.7554818495389358,,experiment,emotion,0.0,,,,814.272639199975,184,26,male,True,8142,8153,False,True,expiration,inspiration
228,124.0,25,F,up,1.4925793999573216,1.6473668574644091,,experiment,emotion,0.0,,,,817.3724985999287,184,26,male,True,8173,8188,True,True,expiration,expiration
229,120.0,25,M,down,1.265689800027758,1.9617014989907704,,experiment,emotion,0.0,,,,821.1223792999518,184,26,male,True,8210,8223,True,True,inspiration,expiration
230,114.0,25,F,down,1.3491620999993756,1.6808938222848524,,experiment,emotion,0.0,,,,824.3389112999429,184,26,male,True,8242,8255,True,True,expiration,expiration
231,124.0,25,M,up,1.0512604999821633,1.1682230652505992,,experiment,emotion,0.0,,,,827.1388012999669,184,26,male,True,8270,8281,True,True,expiration,expiration
232,120.0,25,M,up,0.696382199996151,1.9150090733720253,,experiment,emotion,0.0,,,,830.3886940999655,184,26,male,True,8303,8310,True,True,inspiration,inspiration
233,120.0,25,M,down,0.8125018998980522,1.9779479836906897,,experiment,emotion,0.0,,,,833.3385589999381,184,26,male,True,8332,8340,True,True,expiration,expiration
234,114.0,25,M,up,1.0625973000423985,1.8700779838010808,,experiment,emotion,0.0,,,,836.2884603999554,184,26,male,True,8362,8373,True,True,inspiration,expiration
235,117.0,25,M,up,1.447703399928287,1.9613277714538349,,experiment,emotion,0.0,,,,839.5883589999285,184,26,male,True,8395,8409,True,True,expiration,inspiration
236,124.0,25,F,up,0.6232023000484332,1.679140069410873,,experiment,emotion,0.0,,,,843.0048740999773,184,26,male,True,8429,8435,True,True,inspiration,inspiration
237,117.0,25,F,up,0.5749409999698399,0.8984465370523036,,experiment,emotion,0.0,,,,844.7881497999189,184,26,male,True,8447,8453,True,True,inspiration,expiration
238,117.0,25,F,down,1.500015500001609,1.8958388728886728,,experiment,emotion,0.0,,,,847.5380412999075,184,26,male,True,8474,8489,True,False,trough,inspiration
239,117.0,25,M,up,0.9210965000092984,0.7462594112442515,,experiment,emotion,0.0,,,,850.0379591999807,184,26,male,True,8499,8508,False,False,expiration,expiration
240,124.0,25,F,up,0.8138134999899194,0.8424584731826499,,experiment,emotion,0.0,,,,852.0712453000016,184,26,male,True,8520,8528,False,False,expiration,expiration
241,120.0,25,F,up,0.5386384000303224,1.801637080352934,,experiment,emotion,0.0,,,,854.954454699997,184,26,male,True,8549,8554,False,False,expiration,expiration
242,114.0,25,F,up,0.5701090999646112,1.447563814609923,,experiment,emotion,0.0,,,,857.2210099999793,184,26,male,True,8571,8577,False,False,expiration,trough
243,114.0,25,M,up,0.6441138000227511,1.006794280192382,,experiment,emotion,0.0,,,,859.0709838999901,184,26,male,True,8590,8596,False,False,peak,expiration
244,120.0,25,F,up,0.56501549994573,1.9724214471650985,,experiment,emotion,0.0,,,,861.9540440000128,184,26,male,True,8619,8625,False,False,inspiration,expiration
245,124.0,25,M,up,0.5439365000929683,1.2127868361923742,,experiment,emotion,0.0,,,,864.004121899954,184,26,male,True,8639,8644,False,False,inspiration,inspiration
246,124.0,25,M,up,0.8826809000456706,1.3681716865822666,,experiment,emotion,0.0,,,,866.1873764999908,184,26,male,True,8661,8670,False,False,expiration,expiration
247,114.0,25,F,up,0.585758600034751,1.1025871687927702,,experiment,emotion,0.0,,,,868.437314699986,184,26,male,True,8683,8689,False,False,inspiration,inspiration
248,124.0,25,M,up,0.6775048000272363,0.9881712073308782,,experiment,emotion,0.0,,,,870.2705640000058,184,26,male,True,8702,8709,False,False,expiration,expiration
249,117.0,25,F,up,0.4854468000121415,1.0220742802841325,,experiment,emotion,0.0,,,,872.2536614999408,184,26,male,True,8722,8727,False,False,inspiration,inspiration
250,120.0,25,M,up,0.4168053000466898,0.4904728071814372,,experiment,emotion,0.0,,,,873.4870911999607,184,26,male,True,8734,8738,False,False,inspiration,expiration
251,117.0,25,F,up,1.062689399928786,1.6113198264929254,,experiment,emotion,0.0,,,,875.7703675999072,184,26,male,True,8757,8768,False,False,inspiration,inspiration
252,114.0,25,M,up,0.9378605999518186,1.6471001218595802,,experiment,emotion,0.0,,,,878.7701957999961,184,26,male,True,8787,8796,False,False,expiration,inspiration
253,120.0,25,F,down,0.6438862999202684,1.0491646005220547,,experiment,emotion,0.0,,,,881.0201715999283,184,26,male,True,8809,8815,False,False,expiration,expiration
254,117.0,25,F,down,0.5919654000317678,0.38757401396322333,,experiment,emotion,0.0,,,,882.3201245999663,184,26,male,True,8822,8828,False,False,expiration,expiration
255,120.0,25,F,down,0.6914294000016525,1.3989420688696417,,experiment,emotion,0.0,,,,884.5866923999274,184,26,male,True,8845,8852,False,False,inspiration,inspiration
256,114.0,25,F,up,1.1361160000087691,1.4187199441480407,,experiment,emotion,0.0,,,,886.9699394999769,184,26,male,True,8869,8880,False,False,expiration,expiration
257,124.0,25,F,up,0.6865568000357598,0.9984945177838154,,experiment,emotion,0.0,,,,889.3865253999829,184,26,male,True,8893,8900,False,False,expiration,expiration
258,120.0,25,M,up,0.49128059996292,0.4734081108334047,,experiment,emotion,0.0,,,,890.8197788000107,184,26,male,True,8907,8912,False,False,inspiration,inspiration
259,124.0,25,M,up,0.6253646999830379,1.231921064851183,,experiment,emotion,0.0,,,,892.8197149999905,184,26,male,True,8927,8933,False,False,expiration,expiration
260,114.0,25,M,down,1.4354049999965357,1.3646062075276326,,experiment,emotion,0.0,,,,895.0696432999102,184,26,male,True,8950,8964,False,False,inspiration,expiration
261,117.0,25,M,down,1.3184707000618798,0.5329804885858871,,experiment,emotion,0.0,,,,897.3195873999503,184,26,male,True,8972,8985,False,False,inspiration,expiration
262,0.07356247693351033,25,up,up,0.6223449000390247,1.0461660834908133,,experiment,cRDM,0.0,,,,903.4526756999546,184,26,male,True,9034,9040,False,False,inspiration,inspiration
263,0.07356247693351033,25,up,up,0.7984431000659242,0.6741356814408813,,experiment,cRDM,0.0,,,,905.0026089999593,184,26,male,True,9049,9057,False,False,expiration,expiration
264,0.07356247693351033,25,down,down,0.627519299974665,1.5271334715601028,,experiment,cRDM,0.0,,,,907.6025102999993,184,26,male,True,9075,9081,False,False,inspiration,peak
265,0.07356247693351033,25,down,up,0.8003734999801964,1.4518126445531454,,experiment,cRDM,0.0,,,,909.9356776999775,184,26,male,True,9099,9107,False,False,expiration,expiration
266,0.07356247693351033,25,up,up,0.8627117000287399,1.2041886233643349,,experiment,cRDM,0.0,,,,912.2023535999471,184,26,male,True,9121,9130,False,False,expiration,inspiration
267,0.07356247693351033,25,down,down,0.7867359999800101,0.4262290446807859,,experiment,cRDM,0.0,,,,913.7523113999049,184,26,male,True,9137,9145,False,False,inspiration,peak
268,0.07356247693351033,25,up,down,1.5012144999345765,1.9093450474193296,,experiment,cRDM,0.0,,,,916.7188312999207,184,26,male,True,9166,9181,False,False,expiration,expiration
269,0.07356247693351033,25,up,up,0.8756423000013456,0.9595139929515252,,experiment,cRDM,0.0,,,,919.4353946999181,184,26,male,True,9193,9202,False,False,inspiration,inspiration
270,0.07356247693351033,25,down,down,0.9087457000277936,0.6620178425952601,,experiment,cRDM,0.0,,,,921.2353081000036,184,26,male,True,9211,9220,False,False,inspiration,inspiration
271,0.07356247693351033,25,down,up,0.910194500000216,0.3240632791091206,,experiment,cRDM,0.0,,,,922.7518560999306,184,26,male,True,9227,9236,False,False,inspiration,inspiration
272,0.07356247693351033,25,down,up,1.0328941000625491,1.3700620003187398,,experiment,cRDM,0.0,,,,925.2851864999393,184,26,male,True,9252,9262,False,False,inspiration,expiration
273,0.07356247693351033,25,down,up,0.7662672000005841,1.1315566086672335,,experiment,cRDM,0.0,,,,927.7017781999893,184,26,male,True,9276,9284,False,False,expiration,expiration
274,0.07356247693351033,25,down,up,0.912651300081052,0.34971824354553643,,experiment,cRDM,0.0,,,,929.068425699952,184,26,male,True,9290,9299,False,False,inspiration,expiration
275,0.07356247693351033,25,down,up,1.2137368000112474,0.4872954077751527,,experiment,cRDM,0.0,,,,930.7183128999312,184,26,male,True,9306,9318,False,False,expiration,expiration
276,0.07356247693351033,25,up,up,1.1075304999249056,1.7618913442332094,,experiment,cRDM,0.0,,,,933.9514750000087,184,26,male,True,9339,9350,False,False,expiration,expiration
277,0.07356247693351033,25,up,up,0.8018383999587968,0.4390996708783891,,experiment,cRDM,0.0,,,,935.7681949000107,184,26,male,True,9357,9365,False,False,inspiration,inspiration
278,0.07356247693351033,25,up,up,1.0703526000725103,1.749045112746406,,experiment,cRDM,0.0,,,,938.5846898999298,184,26,male,True,9385,9396,False,False,expiration,inspiration
279,0.07356247693351033,25,up,down,0.7337984000332654,1.1836211207672376,,experiment,cRDM,0.0,,,,941.1012803999473,184,26,male,True,9410,9417,False,False,expiration,expiration
280,0.07356247693351033,25,down,down,0.7865394999971613,1.351028072626935,,experiment,cRDM,0.0,,,,943.4345026999944,184,26,male,True,9433,9441,True,True,inspiration,expiration
281,0.07356247693351033,25,up,up,1.1132876999909058,1.8479572757324507,,experiment,cRDM,0.0,,,,946.3177548999664,184,26,male,True,9462,9473,True,True,expiration,expiration
282,0.07356247693351033,25,up,down,1.3102243000175804,1.9605917457706143,,experiment,cRDM,0.0,,,,949.65081859997,184,26,male,True,9496,9509,True,True,inspiration,expiration
283,0.07356247693351033,25,down,down,0.9174922000383958,0.9516686552141034,,experiment,cRDM,0.0,,,,952.1675864999415,184,26,male,True,9521,9530,True,True,expiration,expiration
284,0.07356247693351033,25,up,up,0.5515535998856649,0.41687777652787616,,experiment,cRDM,0.0,,,,953.7675262999256,184,26,male,True,9537,9543,False,False,inspiration,inspiration
285,0.07356247693351033,25,down,up,0.5228321999311447,0.4431318871012121,,experiment,cRDM,0.0,,,,955.0174297000048,184,26,male,True,9549,9554,False,False,expiration,expiration
286,0.07356247693351033,25,down,up,0.7176563000539318,1.4570437995372134,,experiment,cRDM,0.0,,,,957.2673895999324,184,26,male,True,9572,9579,False,False,inspiration,inspiration
287,0.07356247693351033,25,up,up,0.72644710005261,1.6498551848567684,,experiment,cRDM,0.0,,,,959.9005917999893,184,26,male,True,9598,9605,False,False,expiration,inspiration
288,0.07356247693351033,25,up,up,1.2935019000433383,0.36923640710844025,,experiment,cRDM,0.0,,,,961.2505268999375,184,26,male,True,9612,9625,False,False,inspiration,expiration
289,0.07356247693351033,25,down,up,1.7089289999566972,0.8162918204655372,,experiment,cRDM,0.0,,,,963.6171317999252,184,26,male,True,9635,9652,False,False,inspiration,inspiration
290,0.07356247693351033,25,up,up,0.8400389000307769,1.9790891702556932,,experiment,cRDM,0.0,,,,967.5670010999312,184,26,male,True,9675,9683,False,False,inspiration,inspiration
291,0.07356247693351033,25,down,down,0.7998309000395238,1.740106398487096,,experiment,cRDM,0.0,,,,970.4002042999492,184,26,male,True,9703,9711,False,False,expiration,inspiration
292,0.07356247693351033,25,down,down,0.9856193999294192,1.7664638877515768,,experiment,cRDM,0.0,,,,973.2334169999233,184,26,male,True,9731,9741,False,False,expiration,inspiration
293,0.07356247693351033,25,down,up,0.7750107999891043,0.6068948475776916,,experiment,cRDM,0.0,,,,975.1000301999737,184,26,male,True,9750,9758,False,False,inspiration,inspiration
294,0.07356247693351033,25,up,up,0.7764669000171125,1.4854940555395275,,experiment,cRDM,0.0,,,,977.6166045999852,184,26,male,True,9775,9783,False,False,expiration,expiration
295,0.07356247693351033,25,up,up,0.5029245000332594,1.9768923638974965,,experiment,cRDM,0.0,,,,980.6331475999904,184,26,male,True,9805,9810,False,False,expiration,expiration
296,0.07356247693351033,25,up,down,0.9905754999490456,0.6773205982983305,,experiment,cRDM,0.0,,,,982.0664645999203,184,26,male,True,9820,9830,False,False,inspiration,inspiration
297,0.07356247693351033,25,down,down,0.8680972999427468,1.3250099232049164,,experiment,cRDM,0.0,,,,984.6499527000124,184,26,male,True,9846,9855,False,False,expiration,expiration
298,0.07356247693351033,25,down,down,1.126439500018023,0.4234897819239865,,experiment,cRDM,0.0,,,,986.1996206999756,184,26,male,True,9861,9872,False,False,expiration,expiration
299,0.07356247693351033,25,up,down,0.5148355000419542,0.6341524980075575,,experiment,cRDM,0.0,,,,988.2162117999977,184,26,male,True,9881,9886,False,False,inspiration,inspiration
300,0.07356247693351033,25,down,down,0.923701599938795,1.247651123639547,,experiment,cRDM,0.0,,,,990.2493576999988,184,26,male,True,9902,9911,False,False,expiration,expiration
301,0.07356247693351033,25,up,,,0.9035508900230056,,experiment,cRDM,0.0,,,,992.3492521999871,184,26,male,True,9923,0,False,False,inspiration,0
302,0.07356247693351033,25,up,up,1.3938599000684917,0.6198259930040719,,experiment,cRDM,0.0,,,,995.6491824999684,184,26,male,True,9956,9970,True,True,expiration,expiration
303,0.07356247693351033,25,up,down,0.9219219000078738,1.2554192320620667,,experiment,cRDM,0.0,,,,998.5491143999388,184,26,male,True,9985,9994,True,True,inspiration,expiration
304,0.07356247693351033,25,down,down,0.6920588999055326,0.8190684614101547,,experiment,cRDM,0.0,,,,1000.5490208999254,184,26,male,True,10005,10012,True,True,expiration,expiration
305,0.07356247693351033,25,down,down,0.833706000004895,1.2325039161033826,,experiment,cRDM,0.0,,,,1002.732349299942,184,26,male,True,10026,10034,True,True,expiration,inspiration
306,0.07356247693351033,25,up,up,0.7004416999407113,1.3069346807876705,,experiment,cRDM,0.0,,,,1005.1155988000099,184,26,male,True,10050,10057,True,True,inspiration,inspiration
307,0.07356247693351033,25,down,down,0.5814104999881238,1.3854533653200891,,experiment,cRDM,0.0,,,,1007.4486555999613,184,26,male,True,10074,10080,True,True,expiration,expiration
308,0.07356247693351033,25,down,down,0.6013319001067429,0.4514456537546366,,experiment,cRDM,0.0,,,,1008.7486906999256,184,26,male,True,10087,10093,True,True,expiration,expiration
309,0.07356247693351033,25,up,up,0.7133567999117076,1.9931946616343568,,experiment,cRDM,0.0,,,,1011.5986936999252,184,26,male,True,10115,10122,False,False,expiration,expiration
310,0.07356247693351033,25,up,down,0.8370910000521691,1.4023015103889127,,experiment,cRDM,0.0,,,,1013.9819417999823,184,26,male,True,10139,10147,False,False,inspiration,inspiration
311,0.07356247693351033,25,down,down,0.5755342999473214,1.819961169853249,,experiment,cRDM,0.0,,,,1016.8984978999944,184,26,male,True,10168,10174,False,False,expiration,expiration
312,0.07356247693351033,25,up,up,0.6733153999084607,1.7404126207725428,,experiment,cRDM,0.0,,,,1019.4817199999234,184,26,male,True,10194,10201,False,False,inspiration,expiration
313,0.07356247693351033,25,down,up,0.5214340999955311,1.7266343335937582,,experiment,cRDM,0.0,,,,1022.1316195999973,184,26,male,True,10220,10225,False,False,expiration,expiration
314,0.07356247693351033,25,down,up,0.4002797999419272,0.3022398164856165,,experiment,cRDM,0.0,,,,1023.214927299996,184,26,male,True,10231,10235,False,False,inspiration,inspiration
315,0.07356247693351033,25,down,up,0.3171501000178978,1.1955485601001277,,experiment,cRDM,0.0,,,,1025.0981920999477,184,26,male,True,10250,10253,False,False,expiration,expiration
316,0.07356247693351033,25,up,up,0.6079221999971196,0.3115250205549434,,experiment,cRDM,0.0,,,,1026.0981484999647,184,26,male,True,10260,10266,False,False,expiration,inspiration
317,0.07356247693351033,25,up,down,1.1252814999315888,1.5980466593270797,,experiment,cRDM,0.0,,,,1028.5647518999176,184,26,male,True,10285,10296,False,False,expiration,expiration
318,0.07356247693351033,25,down,down,0.5309882999863476,0.4859061937347614,,experiment,cRDM,0.0,,,,1030.4480300999712,184,26,male,True,10304,10309,False,False,inspiration,inspiration
319,0.07356247693351033,25,down,up,0.7237485999939963,0.432297143910176,,experiment,cRDM,0.0,,,,1031.6812859999484,184,26,male,True,10316,10323,False,False,expiration,expiration
320,0.07356247693351033,25,up,down,0.925927099888213,1.9604284742026576,,experiment,cRDM,0.0,,,,1034.6310907999286,184,26,male,True,10346,10355,False,False,expiration,expiration
321,0.07356247693351033,25,up,up,0.6252357999328524,0.3360560688035783,,experiment,cRDM,0.0,,,,1036.147809999995,184,26,male,True,10361,10367,False,False,expiration,inspiration
322,0.07356247693351033,25,up,down,0.5887022999813779,1.288466352755177,,experiment,cRDM,0.0,,,,1038.3143582999471,184,26,male,True,10382,10388,False,False,expiration,expiration
323,0.07356247693351033,25,up,up,0.8073932999977842,0.8403077753383039,,experiment,cRDM,0.0,,,,1039.9976386999479,184,26,male,True,10399,10407,False,False,inspiration,inspiration
324,0.07356247693351033,25,up,down,1.03614209999796,0.933665430954768,,experiment,cRDM,0.0,,,,1041.98089050001,184,26,male,True,10419,10429,False,False,expiration,inspiration
325,0.07356247693351033,25,down,up,0.6335212000412866,1.1653164728919103,,experiment,cRDM,0.0,,,,1044.4475073999492,184,26,male,True,10444,10450,False,False,expiration,expiration
326,0.07356247693351033,25,down,up,0.7229446999263018,1.6725371145076142,,experiment,cRDM,0.0,,,,1047.0140526000177,184,26,male,True,10469,10476,False,False,inspiration,expiration
327,0.07356247693351033,25,up,up,0.7557256000582129,1.3989193828014408,,experiment,cRDM,0.0,,,,1049.397302599973,184,26,male,True,10493,10501,False,False,inspiration,inspiration
328,0.07356247693351033,25,down,up,0.6755269999848679,1.715898743547917,,experiment,cRDM,0.0,,,,1052.1305467999773,184,26,male,True,10521,10528,False,False,expiration,inspiration
329,0.07356247693351033,25,down,down,0.7299028999404982,0.4290931368930511,,experiment,cRDM,0.0,,,,1053.4971405999968,184,26,male,True,10534,10541,False,False,inspiration,inspiration
330,0.07356247693351033,25,down,up,0.6676813999656588,0.6404924625258885,,experiment,cRDM,0.0,,,,1055.1303627999732,184,26,male,True,10551,10558,False,False,inspiration,inspiration
331,0.07356247693351033,25,up,up,1.0403605999890717,1.0921533398843322,,experiment,cRDM,0.0,,,,1057.163692299975,184,26,male,True,10571,10581,False,False,expiration,expiration
332,0.07356247693351033,25,down,down,0.6471036999719217,1.7271288321517086,,experiment,cRDM,0.0,,,,1060.1968912999146,184,26,male,True,10601,10607,False,False,inspiration,inspiration
333,0.07356247693351033,25,down,up,1.1015651000197977,1.521959319763477,,experiment,cRDM,0.0,,,,1062.6134650999447,184,26,male,True,10625,10636,False,False,expiration,inspiration
334,0.07356247693351033,25,down,down,0.8411019999766722,0.3402425526834347,,experiment,cRDM,0.0,,,,1064.3299598000012,184,26,male,True,10643,10651,False,False,peak,expiration
335,0.07356247693351033,25,up,up,0.6160304000368342,0.5547857100059512,,experiment,cRDM,0.0,,,,1065.979995499947,184,26,male,True,10659,10665,False,False,expiration,expiration
336,0.07356247693351033,25,up,up,0.5415387999964878,1.3089542742851326,,experiment,cRDM,0.0,,,,1068.146484299912,184,26,male,True,10681,10686,False,False,inspiration,inspiration
337,0.07356247693351033,25,down,up,0.6215593999950215,1.695454193569783,,experiment,cRDM,0.0,,,,1070.646452899906,184,26,male,True,10706,10712,False,False,expiration,inspiration
338,0.07356247693351033,25,up,up,0.8148714000126347,0.5308209546226816,,experiment,cRDM,0.0,,,,1072.0631515999555,184,26,male,True,10720,10728,False,False,inspiration,expiration
339,0.07356247693351033,25,down,down,0.7239806000143291,1.0892991697615078,,experiment,cRDM,0.0,,,,1074.2130459999898,184,26,male,True,10741,10748,False,False,expiration,inspiration
340,0.07356247693351033,25,up,down,1.4150927000446245,1.3213877024150786,,experiment,cRDM,0.0,,,,1076.512958599953,184,26,male,True,10764,10778,False,False,expiration,inspiration
341,0.07356247693351033,25,up,up,0.6751447999849916,0.4764412882331508,,experiment,cRDM,0.0,,,,1078.6629178000148,184,26,male,True,10786,10793,False,False,inspiration,expiration
342,124.0,25,M,down,0.7663790999213234,0.7272567794140328,,experiment,emotion,1.0,,,,1139.960634799907,184,26,male,True,11399,11407,False,False,expiration,expiration
343,114.0,25,M,up,0.7464481999631971,1.3881400642508879,,experiment,emotion,1.0,,,,1142.410562100005,184,26,male,True,11423,11430,False,False,inspiration,inspiration
344,120.0,25,F,up,0.5782572999596596,0.4356770487688828,,experiment,emotion,1.0,,,,1143.8938210000051,184,26,male,True,11438,11444,False,False,inspiration,inspiration
345,124.0,25,F,down,0.5696470999391751,1.9337739617138177,,experiment,emotion,1.0,,,,1146.6603993999306,184,26,male,True,11466,11472,False,False,expiration,inspiration
346,120.0,25,M,down,0.8845032000681385,1.3570170185655148,,experiment,emotion,1.0,,,,1148.8435131999433,184,26,male,True,11488,11497,False,False,expiration,expiration
347,117.0,25,F,down,1.1335007000016049,0.6343262646011202,,experiment,emotion,1.0,,,,1150.6435116999785,184,26,male,True,11506,11517,False,False,expiration,inspiration
348,114.0,25,M,down,0.9772568000480532,1.8722088653397204,,experiment,emotion,1.0,,,,1153.9267789999722,184,26,male,True,11538,11548,False,False,expiration,expiration
349,117.0,25,M,down,1.2503411000361666,1.8162643508659764,,experiment,emotion,1.0,,,,1156.9766778999476,184,26,male,True,11569,11582,False,False,expiration,expiration
350,124.0,25,F,down,1.0618756000185383,1.027704067344558,,experiment,emotion,1.0,,,,1159.5431397999635,184,26,male,True,11595,11606,False,False,inspiration,expiration
351,117.0,25,F,up,0.40017079992685467,1.4296172128555384,,experiment,emotion,1.0,,,,1162.2931511999338,184,26,male,True,11622,11626,False,False,expiration,expiration
352,120.0,25,F,up,0.6749292999738827,0.6083033243606693,,experiment,emotion,1.0,,,,1163.5930884999686,184,26,male,True,11635,11642,False,False,inspiration,inspiration
353,124.0,25,F,down,0.7300005999859422,1.1621238336770128,,experiment,emotion,1.0,,,,1165.6929989999624,184,26,male,True,11656,11663,False,False,expiration,inspiration
354,120.0,25,F,down,0.6984338000183925,1.060577128452291,,experiment,emotion,1.0,,,,1167.7596051999135,184,26,male,True,11677,11684,False,False,inspiration,expiration
355,114.0,25,F,up,0.9178367999847978,1.2224802767130278,,experiment,emotion,1.0,,,,1169.9761999999173,184,26,male,True,11699,11708,False,False,inspiration,inspiration
356,117.0,25,M,up,0.8872691000578925,0.4946832738700833,,experiment,emotion,1.0,,,,1171.642745399964,184,26,male,True,11716,11725,False,False,expiration,expiration
357,114.0,25,M,up,0.5659427999053149,0.8773636567740994,,experiment,emotion,1.0,,,,1173.6760695999255,184,26,male,True,11736,11742,False,False,expiration,inspiration
358,124.0,25,M,up,0.5269978999858722,0.6671219289657668,,experiment,emotion,1.0,,,,1175.1760146999734,184,26,male,True,11751,11756,False,False,peak,expiration
359,114.0,25,M,up,0.5255098999477923,0.8581316875991885,,experiment,emotion,1.0,,,,1176.8424673000118,184,26,male,True,11768,11773,False,False,expiration,inspiration
360,120.0,25,F,up,0.5872173000825569,1.7959960977602851,,experiment,emotion,1.0,,,,1179.4258272999432,184,26,male,True,11793,11799,False,False,expiration,expiration
361,120.0,25,M,up,0.6258891000179574,1.5814843010476562,,experiment,emotion,1.0,,,,1181.859112999984,184,26,male,True,11818,11824,False,False,expiration,inspiration
362,117.0,25,M,up,0.6410140000516549,1.042571705237714,,experiment,emotion,1.0,,,,1183.8089992000025,184,26,male,True,11837,11843,False,False,inspiration,expiration
363,117.0,25,F,up,0.7647458999417722,1.4643731387378378,,experiment,emotion,1.0,,,,1186.1922731999075,184,26,male,True,11861,11869,False,False,expiration,inspiration
364,114.0,25,M,up,0.5688389999559149,1.204385755962671,,experiment,emotion,1.0,,,,1188.4421908999793,184,26,male,True,11884,11890,False,False,expiration,expiration
365,124.0,25,F,up,0.560594700044021,0.7389011719526917,,experiment,emotion,1.0,,,,1190.0254413000075,184,26,male,True,11900,11906,False,False,inspiration,inspiration
366,120.0,25,F,up,0.5299238000297919,0.4907901689550429,,experiment,emotion,1.0,,,,1191.3420804999769,184,26,male,True,11913,11918,False,False,expiration,expiration
367,114.0,25,M,down,0.8003855999559164,1.25517851803809,,experiment,emotion,1.0,,,,1193.4086539999114,184,26,male,True,11933,11941,False,False,inspiration,inspiration
368,124.0,25,M,down,1.3011605000356212,1.6621282150327308,,experiment,emotion,1.0,,,,1196.1419104000088,184,26,male,True,11961,11974,False,False,expiration,inspiration
369,124.0,25,F,up,1.1205225999001414,0.4891525978504458,,experiment,emotion,1.0,,,,1198.2084816999268,184,26,male,True,11981,11992,False,False,expiration,expiration
370,117.0,25,M,down,0.9623219999484718,1.926885935805468,,experiment,emotion,1.0,,,,1201.5417116999158,184,26,male,True,12015,12025,False,False,peak,expiration
371,114.0,25,F,down,1.2440356999868527,1.0147343342136477,,experiment,emotion,1.0,,,,1203.7749807999935,184,26,male,True,12037,12049,False,False,peak,expiration
372,117.0,25,F,down,0.946845900034532,1.2139095893879903,,experiment,emotion,1.0,,,,1206.5081623999868,184,26,male,True,12064,12073,False,False,expiration,expiration
373,120.0,25,F,down,0.7205533999949694,0.8999241293020717,,experiment,emotion,1.0,,,,1208.641453399905,184,26,male,True,12086,12093,False,False,trough,inspiration
374,114.0,25,M,down,0.725639900076203,0.4055075701300377,,experiment,emotion,1.0,,,,1210.0413674999727,184,26,male,True,12100,12107,False,False,peak,expiration
375,124.0,25,M,down,1.4913685999345034,0.5324862591802751,,experiment,emotion,1.0,,,,1211.5746702000033,184,26,male,True,12115,12130,False,False,expiration,inspiration
376,120.0,25,M,up,1.1754793999716642,0.7858720699325261,,experiment,emotion,1.0,,,,1214.1245231999785,184,26,male,True,12141,12153,False,False,expiration,inspiration
377,124.0,25,F,down,0.9015242999885232,1.1901807921561804,,experiment,emotion,1.0,,,,1216.774473099969,184,26,male,True,12167,12176,False,False,expiration,expiration
378,114.0,25,F,down,0.965980499982834,1.4127453583041771,,experiment,emotion,1.0,,,,1219.3410427999916,184,26,male,True,12193,12203,False,False,inspiration,expiration
379,120.0,25,M,down,0.8373448000056669,1.0837570727442332,,experiment,emotion,1.0,,,,1221.6576532999752,184,26,male,True,12216,12224,False,False,expiration,inspiration
380,117.0,25,F,down,0.7165007999865338,1.8743617937977752,,experiment,emotion,1.0,,,,1224.657512799953,184,26,male,True,12246,12253,False,False,expiration,trough
381,117.0,25,M,down,1.1038422000128776,0.4875443008537372,,experiment,emotion,1.0,,,,1226.1241719999816,184,26,male,True,12261,12272,False,False,inspiration,expiration
382,120.0,25,M,up,0.9953190999804064,1.246329530736605,,experiment,emotion,1.0,,,,1228.7406839999605,184,26,male,True,12287,12297,False,False,expiration,inspiration
383,124.0,25,M,up,1.0156610999256372,0.7027164399002435,,experiment,emotion,1.0,,,,1230.707286199904,184,26,male,True,12306,12316,False,False,expiration,expiration
384,117.0,25,F,down,1.2388817999744788,1.9785929634385016,,experiment,emotion,1.0,,,,1233.9571720999663,184,26,male,True,12339,12351,False,False,expiration,inspiration
385,114.0,25,F,down,1.618538499926217,0.3631368193349017,,experiment,emotion,1.0,,,,1235.8404685999267,184,26,male,True,12358,12374,False,False,inspiration,trough
386,114.0,25,M,up,1.0920429000398144,1.5392135227251371,,experiment,emotion,1.0,,,,1239.2570104999468,184,26,male,True,12392,12403,False,False,expiration,expiration
387,117.0,25,F,up,1.3464718000032008,1.163213530581768,,experiment,emotion,1.0,,,,1241.7735553999664,184,26,male,True,12417,12430,False,False,trough,inspiration
388,124.0,25,F,down,0.8627484999597073,0.7307366451913917,,experiment,emotion,1.0,,,,1244.123291399912,184,26,male,True,12441,12450,False,False,expiration,trough
389,120.0,25,M,up,1.4553004999179393,0.8045240109687872,,experiment,emotion,1.0,,,,1246.0567271999314,184,26,male,True,12460,12475,False,False,inspiration,expiration
390,114.0,25,M,down,1.4000316000310704,0.6559350147975505,,experiment,emotion,1.0,,,,1248.4399793999037,184,26,male,True,12484,12498,False,False,inspiration,expiration
391,124.0,25,F,down,0.908133100019768,0.5826982299409523,,experiment,emotion,1.0,,,,1250.6899003,184,26,male,True,12506,12515,False,False,expiration,inspiration
392,120.0,25,M,up,0.8528806000249459,1.8707129503359647,,experiment,emotion,1.0,,,,1253.7231174999615,184,26,male,True,12537,12546,False,False,expiration,inspiration
393,120.0,25,F,up,0.94928629999049,0.6486262236859189,,experiment,emotion,1.0,,,,1255.4897165999282,184,26,male,True,12554,12563,False,False,inspiration,expiration
394,114.0,25,F,down,0.8545518000610173,0.7383669552843407,,experiment,emotion,1.0,,,,1257.4394689999754,184,26,male,True,12574,12583,False,False,inspiration,inspiration
395,117.0,25,F,down,1.170419099973515,0.6432056777759902,,experiment,emotion,1.0,,,,1259.239608099917,184,26,male,True,12592,12604,False,False,expiration,expiration
396,124.0,25,M,down,2.1945205000229184,1.2072906788702202,,experiment,emotion,1.0,,,,1261.8894732999615,184,26,male,True,12618,12640,False,False,inspiration,expiration
397,117.0,25,M,up,1.2466770999599248,1.4889962372981391,,experiment,emotion,1.0,,,,1265.8393499999074,184,26,male,True,12658,12670,False,False,expiration,expiration
398,117.0,25,F,up,0.7507526000263169,0.5388182252706352,,experiment,emotion,1.0,,,,1267.8892810000107,184,26,male,True,12678,12686,False,False,expiration,inspiration
399,117.0,25,F,up,1.4935255000600591,0.6133118189574731,,experiment,emotion,1.0,,,,1269.5225001999645,184,26,male,True,12695,12710,False,False,expiration,expiration
400,124.0,25,M,up,1.3888852000236511,1.6014347204555093,,experiment,emotion,1.0,,,,1272.8890962000005,184,26,male,True,12728,12742,False,False,expiration,expiration
401,120.0,25,M,down,1.1163791000144556,1.885023697854238,,experiment,emotion,1.0,,,,1276.4556364999153,184,26,male,True,12764,12775,False,False,expiration,expiration
402,114.0,25,M,down,0.9042092999443412,0.5872157939669286,,experiment,emotion,1.0,,,,1278.4387588999236,184,26,male,True,12784,12793,False,False,inspiration,inspiration
403,114.0,25,M,down,0.7025055000558496,1.2495641973105764,,experiment,emotion,1.0,,,,1280.8554886999773,184,26,male,True,12808,12815,False,False,expiration,expiration
404,120.0,25,M,up,1.7873014999786392,0.5620839712209722,,experiment,emotion,1.0,,,,1282.3887198999291,184,26,male,True,12823,12841,False,False,inspiration,expiration
405,124.0,25,F,down,1.6200003999983892,1.5151275173347598,,experiment,emotion,1.0,,,,1285.9719545999542,184,26,male,True,12859,12875,False,False,trough,expiration
406,124.0,25,F,up,1.4597528000595048,1.9872873699133535,,experiment,emotion,1.0,,,,1289.8382706999546,184,26,male,True,12898,12913,False,False,inspiration,expiration
407,114.0,25,M,up,0.8103206999367103,1.9509543716180529,,experiment,emotion,1.0,,,,1293.5216694999253,184,26,male,True,12935,12943,False,False,expiration,trough
408,124.0,25,F,up,0.6543935000663623,0.31437659522919026,,experiment,emotion,1.0,,,,1294.9215965999754,184,26,male,True,12949,12956,False,False,inspiration,peak
409,117.0,25,F,up,0.8591644000262022,1.4378273108097466,,experiment,emotion,1.0,,,,1297.3048238999907,184,26,male,True,12972,12981,False,False,expiration,inspiration
410,120.0,25,F,up,0.7550982000539079,1.9851265996590264,,experiment,emotion,1.0,,,,1300.4378930999665,184,26,male,True,13004,13012,False,False,expiration,expiration
411,117.0,25,M,down,1.0650572999147698,1.7209055380810947,,experiment,emotion,1.0,,,,1303.1879617999075,184,26,male,True,13031,13042,False,False,expiration,expiration
412,114.0,25,F,up,1.2084876999724656,1.7735936522067253,,experiment,emotion,1.0,,,,1306.3045015999814,184,26,male,True,13062,13074,False,False,inspiration,expiration
413,120.0,25,F,up,1.2012033999199048,0.8044031293730618,,experiment,emotion,1.0,,,,1308.5877756999107,184,26,male,True,13085,13097,False,False,inspiration,inspiration
414,117.0,25,F,up,0.7546616999898106,1.407772765411172,,experiment,emotion,1.0,,,,1311.4543241999345,184,26,male,True,13114,13122,False,False,expiration,inspiration
415,120.0,25,M,up,0.7225270000053571,0.9546768356671222,,experiment,emotion,1.0,,,,1313.437464699964,184,26,male,True,13134,13141,False,False,peak,expiration
416,114.0,25,M,up,0.7318924000719562,1.9279400084048768,,experiment,emotion,1.0,,,,1316.3541538999416,184,26,male,True,13163,13170,False,False,inspiration,inspiration
417,124.0,25,F,down,0.9565634999889879,0.6367417514824875,,experiment,emotion,1.0,,,,1317.9874223999213,184,26,male,True,13179,13189,False,False,expiration,expiration
418,120.0,25,M,up,0.9283147999085486,0.9507904860293436,,experiment,emotion,1.0,,,,1320.1706712999146,184,26,male,True,13201,13210,False,False,inspiration,expiration
419,124.0,25,F,up,0.5984137000050396,1.5083283117805577,,experiment,emotion,1.0,,,,1322.8705999999074,184,26,male,True,13228,13234,False,False,inspiration,inspiration
420,114.0,25,M,up,1.2731803000206128,1.7144737017478802,,experiment,emotion,1.0,,,,1325.4538067999526,184,26,male,True,13254,13267,False,False,expiration,trough
421,117.0,25,M,up,0.8810252000112087,0.9220883184939044,,experiment,emotion,1.0,,,,1327.9369625999825,184,26,male,True,13279,13288,False,False,inspiration,expiration
422,0.07356247693351033,25,up,down,1.4318939999211582,1.123262781183614,,experiment,cRDM,1.0,,,,1335.2701091999188,184,26,male,True,13352,13366,False,False,inspiration,expiration
423,0.07356247693351033,25,up,up,0.6802526999963447,0.5726272303146546,,experiment,cRDM,1.0,,,,1337.536732199951,184,26,male,True,13375,13382,False,False,expiration,inspiration
424,0.07356247693351033,25,down,down,1.0417232000036163,1.7128223808818406,,experiment,cRDM,1.0,,,,1340.2032627000008,184,26,male,True,13401,13411,False,False,expiration,expiration
425,0.07356247693351033,25,down,up,0.9321238999255002,0.3419220349035775,,experiment,cRDM,1.0,,,,1341.8698680999225,184,26,male,True,13418,13427,False,False,inspiration,peak
426,0.07356247693351033,25,up,up,0.8649111000122502,1.540171493692479,,experiment,cRDM,1.0,,,,1344.6030759999996,184,26,male,True,13445,13454,False,False,expiration,inspiration
427,0.07356247693351033,25,down,down,0.8269819000270218,1.522004208532861,,experiment,cRDM,1.0,,,,1347.25302189996,184,26,male,True,13472,13480,False,False,expiration,expiration
428,0.07356247693351033,25,up,up,0.5490543999476358,0.8708088033331667,,experiment,cRDM,1.0,,,,1349.202916399925,184,26,male,True,13491,13496,False,False,inspiration,expiration
429,0.07356247693351033,25,up,up,0.7727849999209866,0.4303344587995522,,experiment,cRDM,1.0,,,,1350.436186100007,184,26,male,True,13504,13512,False,False,expiration,trough
430,0.07356247693351033,25,down,down,1.5939651000080632,1.2697945640626616,,experiment,cRDM,1.0,,,,1352.7360192999474,184,26,male,True,13527,13543,False,False,expiration,expiration
431,0.07356247693351033,25,down,down,1.1126614999957385,1.8674547991981607,,experiment,cRDM,1.0,,,,1356.469328999985,184,26,male,True,13564,13575,False,False,expiration,expiration
432,0.07356247693351033,25,down,down,1.0540468000108376,0.3373862568961226,,experiment,cRDM,1.0,,,,1358.1859412000051,184,26,male,True,13581,13592,False,False,expiration,inspiration
433,0.07356247693351033,25,down,down,0.8459456999553367,1.2154225667375862,,experiment,cRDM,1.0,,,,1360.7190385999854,184,26,male,True,13607,13615,False,False,expiration,expiration
434,0.07356247693351033,25,down,up,1.7039315000874922,1.8224046900738944,,experiment,cRDM,1.0,,,,1363.6690715999575,184,26,male,True,13636,13653,False,False,peak,expiration
435,0.07356247693351033,25,down,down,1.1864287999924272,1.3436342928915783,,experiment,cRDM,1.0,,,,1366.98558410001,184,26,male,True,13669,13681,False,False,inspiration,expiration
436,0.07356247693351033,25,up,down,1.2661734999855978,1.8404311570152152,,experiment,cRDM,1.0,,,,1370.2688309999648,184,26,male,True,13702,13715,False,False,inspiration,expiration
437,0.07356247693351033,25,up,down,1.1093778000213206,0.922631487087723,,experiment,cRDM,1.0,,,,1372.7186000999066,184,26,male,True,13727,13738,False,False,inspiration,expiration
438,0.07356247693351033,25,up,up,0.8956825999775901,1.3456070824558188,,experiment,cRDM,1.0,,,,1375.4353302000088,184,26,male,True,13754,13763,False,False,expiration,inspiration
439,0.07356247693351033,25,up,up,0.7024920999538153,0.9260256397711276,,experiment,cRDM,1.0,,,,1377.5184860000156,184,26,male,True,13775,13782,False,False,expiration,expiration
440,0.07356247693351033,25,down,down,1.0081582000711933,0.907185958314817,,experiment,cRDM,1.0,,,,1379.4018227999331,184,26,male,True,13793,13803,True,True,inspiration,expiration
441,0.07356247693351033,25,up,up,1.1409337000222877,1.5557776628788371,,experiment,cRDM,1.0,,,,1382.2350733999629,184,26,male,True,13822,13833,False,False,inspiration,inspiration
442,0.07356247693351033,25,up,up,1.7336951999459416,1.7713922716701709,,experiment,cRDM,1.0,,,,1385.4182807999896,184,26,male,True,13854,13871,False,False,inspiration,expiration
443,0.07356247693351033,25,down,down,1.0954238000558691,1.135125309410553,,experiment,cRDM,1.0,,,,1388.5515669999875,184,26,male,True,13885,13896,False,False,expiration,inspiration
444,0.07356247693351033,25,up,down,1.2390169999562204,1.5120283885840438,,experiment,cRDM,1.0,,,,1391.4179476000133,184,26,male,True,13914,13926,False,False,expiration,inspiration
445,0.07356247693351033,25,down,down,1.463357000029646,1.709877604171372,,experiment,cRDM,1.0,,,,1394.6346169000024,184,26,male,True,13946,13961,False,False,expiration,inspiration
446,0.07356247693351033,25,down,down,0.9422316999407484,1.9492542736047256,,experiment,cRDM,1.0,,,,1398.3177467999049,184,26,male,True,13983,13992,False,False,expiration,inspiration
447,0.07356247693351033,25,up,up,1.095972100039944,1.8427463285942032,,experiment,cRDM,1.0,,,,1401.351004899945,184,26,male,True,14013,14024,False,False,expiration,inspiration
448,0.07356247693351033,25,up,up,0.8570745999459177,0.3889842029062942,,experiment,cRDM,1.0,,,,1403.100936200004,184,26,male,True,14030,14039,False,False,peak,expiration
449,0.07356247693351033,25,down,down,0.9068111999658868,1.8576220557958583,,experiment,cRDM,1.0,,,,1406.0842001999265,184,26,male,True,14060,14069,False,False,inspiration,expiration
450,0.07356247693351033,25,up,down,0.9476658999919892,1.266334740068264,,experiment,cRDM,1.0,,,,1408.5172918000023,184,26,male,True,14085,14094,False,False,expiration,inspiration
451,0.07356247693351033,25,down,down,0.7866588000906631,0.392229495234914,,experiment,cRDM,1.0,,,,1410.117318399949,184,26,male,True,14101,14109,False,False,inspiration,expiration
452,0.07356247693351033,25,down,down,0.6303000999614596,0.3306677925484399,,experiment,cRDM,1.0,,,,1411.5006290000165,184,26,male,True,14114,14120,False,False,expiration,expiration
453,0.07356247693351033,25,down,down,1.2123758000088856,0.5619266589280103,,experiment,cRDM,1.0,,,,1412.9505944999403,184,26,male,True,14129,14141,False,False,inspiration,expiration
454,0.07356247693351033,25,up,up,0.6489594000158831,0.4882357885996563,,experiment,cRDM,1.0,,,,1414.9170344999293,184,26,male,True,14149,14155,False,False,expiration,expiration
455,0.07356247693351033,25,up,down,0.8295293999835849,0.6707427138492514,,experiment,cRDM,1.0,,,,1416.5004167999139,184,26,male,True,14164,14172,False,False,inspiration,expiration
456,0.07356247693351033,25,up,up,1.5179541999241335,1.1685688770729314,,experiment,cRDM,1.0,,,,1418.7670204999158,184,26,male,True,14187,14202,False,False,expiration,inspiration
457,0.07356247693351033,25,down,up,1.420060999924317,1.2191162349196478,,experiment,cRDM,1.0,,,,1421.7669270999033,184,26,male,True,14217,14231,False,False,expiration,inspiration
458,0.07356247693351033,25,down,up,1.2712141000665724,0.36449591563391215,,experiment,cRDM,1.0,,,,1423.8167776999762,184,26,male,True,14238,14251,False,False,expiration,expiration
459,0.07356247693351033,25,up,up,1.1425222000107171,1.1777625913493348,,experiment,cRDM,1.0,,,,1426.5334391999056,184,26,male,True,14265,14276,False,False,peak,expiration
460,0.07356247693351033,25,down,down,1.0113450000062585,1.8795437483246509,,experiment,cRDM,1.0,,,,1429.8166318999135,184,26,male,True,14298,14308,False,False,inspiration,expiration
461,0.07356247693351033,25,up,up,0.6094218000071123,0.3809123672246065,,experiment,cRDM,1.0,,,,1431.4665702999334,184,26,male,True,14314,14320,False,False,expiration,inspiration
462,0.07356247693351033,25,up,down,0.6944985999725759,1.4318654121867371,,experiment,cRDM,1.0,,,,1433.7664804999952,184,26,male,True,14337,14344,False,False,expiration,expiration
463,0.07356247693351033,25,up,down,0.6885412000119686,0.6371196778548521,,experiment,cRDM,1.0,,,,1435.3664181999632,184,26,male,True,14353,14360,False,False,trough,inspiration
464,0.07356247693351033,25,down,down,0.5689501999877393,0.8567642952840364,,experiment,cRDM,1.0,,,,1437.1830231999047,184,26,male,True,14371,14377,False,False,inspiration,expiration
465,0.07356247693351033,25,down,up,0.9760042000561951,0.8087083222810236,,experiment,cRDM,1.0,,,,1438.8329845999833,184,26,male,True,14388,14398,False,False,expiration,inspiration
466,0.07356247693351033,25,up,up,0.8537301999749616,0.7429681826986345,,experiment,cRDM,1.0,,,,1440.8162671999307,184,26,male,True,14408,14417,False,False,expiration,expiration
467,0.07356247693351033,25,down,down,0.7364740999182686,0.5193952240372448,,experiment,cRDM,1.0,,,,1442.4495058999164,184,26,male,True,14424,14431,False,False,trough,inspiration
468,0.07356247693351033,25,down,up,0.8945278999162838,0.3652079934021862,,experiment,cRDM,1.0,,,,1443.7994327999186,184,26,male,True,14437,14446,False,False,inspiration,expiration
469,0.07356247693351033,25,up,up,0.7542939999839291,1.5234891060145752,,experiment,cRDM,1.0,,,,1446.482691399986,184,26,male,True,14464,14472,False,False,inspiration,inspiration
470,0.07356247693351033,25,up,up,1.1141498999204489,0.9203330333803176,,experiment,cRDM,1.0,,,,1448.4158232999036,184,26,male,True,14484,14495,False,False,expiration,expiration
471,0.07356247693351033,25,down,down,0.6788158999988809,0.9113857733529356,,experiment,cRDM,1.0,,,,1450.6991922999732,184,26,male,True,14506,14513,False,False,inspiration,expiration
472,0.07356247693351033,25,up,up,0.8118402999825776,0.8639837263497272,,experiment,cRDM,1.0,,,,1452.499122999958,184,26,male,True,14524,14532,False,False,expiration,inspiration
473,0.07356247693351033,25,down,up,0.9512627999065444,1.2831541385459144,,experiment,cRDM,1.0,,,,1454.8657099999255,184,26,male,True,14548,14558,False,False,expiration,expiration
474,0.07356247693351033,25,down,down,0.6916752000106499,0.3928494987317113,,experiment,cRDM,1.0,,,,1456.4823093999876,184,26,male,True,14564,14571,False,False,inspiration,inspiration
475,0.07356247693351033,25,down,down,1.4151284999679774,0.7729597590528072,,experiment,cRDM,1.0,,,,1458.1989071000135,184,26,male,True,14581,14595,False,False,expiration,inspiration
476,0.07356247693351033,25,up,up,0.6088114000158384,0.7599191428803422,,experiment,cRDM,1.0,,,,1460.6322131999768,184,26,male,True,14606,14612,False,False,inspiration,expiration
477,0.07356247693351033,25,up,up,0.7962284999666736,1.545307986962139,,experiment,cRDM,1.0,,,,1463.0487372999778,184,26,male,True,14630,14638,False,False,inspiration,inspiration
478,0.07356247693351033,25,down,down,0.6933564000064507,1.9794587047063308,,experiment,cRDM,1.0,,,,1466.0986095999833,184,26,male,True,14660,14667,False,False,trough,inspiration
479,0.07356247693351033,25,down,down,0.6250897999852896,1.1325752913605074,,experiment,cRDM,1.0,,,,1468.1818877999906,184,26,male,True,14681,14687,False,False,expiration,expiration
480,0.07356247693351033,25,up,down,1.377480199909769,0.4198666732973668,,experiment,cRDM,1.0,,,,1469.4984899999108,184,26,male,True,14694,14708,False,False,inspiration,expiration
481,0.07356247693351033,25,up,up,0.9802557999501004,0.7336716756142476,,experiment,cRDM,1.0,,,,1471.8817447999027,184,26,male,True,14718,14728,False,False,expiration,inspiration
482,0.07356247693351033,25,up,up,1.4123464000876993,1.2518267638752512,,experiment,cRDM,1.0,,,,1474.3816580999412,184,26,male,True,14743,14757,False,False,inspiration,expiration
483,0.07356247693351033,25,up,down,1.4717599999858066,1.2457737759848904,,experiment,cRDM,1.0,,,,1477.2982127999421,184,26,male,True,14772,14787,False,False,expiration,inspiration
484,0.07356247693351033,25,up,up,0.9732169999042526,1.7385181858641596,,experiment,cRDM,1.0,,,,1480.764743299922,184,26,male,True,14807,14817,False,False,expiration,expiration
485,0.07356247693351033,25,down,up,0.9216642000246792,1.9794983317126662,,experiment,cRDM,1.0,,,,1483.981303700013,184,26,male,True,14839,14848,False,False,inspiration,expiration
486,0.07356247693351033,25,down,down,0.8297638000221923,1.6748105253119483,,experiment,cRDM,1.0,,,,1486.8312157000182,184,26,male,True,14868,14876,False,False,expiration,inspiration
487,0.07356247693351033,25,up,down,0.9865296999923884,0.7519589345368203,,experiment,cRDM,1.0,,,,1488.6644382999511,184,26,male,True,14886,14896,False,False,peak,expiration
488,0.07356247693351033,25,down,down,1.0229254000587389,1.327476980586822,,experiment,cRDM,1.0,,,,1491.2310348999454,184,26,male,True,14912,14922,False,False,expiration,inspiration
489,0.07356247693351033,25,down,down,1.0373707000399008,1.7352785715581314,,experiment,cRDM,1.0,,,,1494.2476143999954,184,26,male,True,14942,14952,False,False,expiration,inspiration
490,0.07356247693351033,25,down,up,0.7470929000992328,0.9233843127630674,,experiment,cRDM,1.0,,,,1496.4808496999322,184,26,male,True,14964,14971,False,False,expiration,expiration
491,0.07356247693351033,25,up,up,1.294844500022009,0.6078949572526378,,experiment,cRDM,1.0,,,,1498.114115300006,184,26,male,True,14981,14994,False,False,expiration,inspiration
492,0.07356247693351033,25,down,down,0.647257599979639,0.5574298697234764,,experiment,cRDM,1.0,,,,1500.2307341999842,184,26,male,True,15002,15008,False,False,expiration,expiration
493,0.07356247693351033,25,down,down,0.4432808000128716,0.4819151082262199,,experiment,cRDM,1.0,,,,1501.6306799999438,184,26,male,True,15016,15020,False,False,expiration,expiration
494,0.07356247693351033,25,down,down,0.7357358000008389,1.5563898117020194,,experiment,cRDM,1.0,,,,1503.8972355999285,184,26,male,True,15038,15045,False,False,expiration,expiration
495,0.07356247693351033,25,up,up,0.9044671999290586,1.181021043110573,,experiment,cRDM,1.0,,,,1506.0804974999044,184,26,male,True,15060,15069,False,False,inspiration,expiration
496,0.07356247693351033,25,up,up,0.5945488999132067,0.5150607623056328,,experiment,cRDM,1.0,,,,1507.7804292999206,184,26,male,True,15077,15083,False,False,expiration,expiration
497,0.07356247693351033,25,down,up,1.1343185000587257,1.1761622728523726,,experiment,cRDM,1.0,,,,1509.8136445999844,184,26,male,True,15098,15109,False,False,inspiration,expiration
498,0.07356247693351033,25,up,up,0.7360436000162736,1.3954577133317647,,experiment,cRDM,1.0,,,,1512.596911999979,184,26,male,True,15125,15132,False,False,inspiration,inspiration
499,0.07356247693351033,25,down,down,1.1901610000059009,0.7993548921994531,,experiment,cRDM,1.0,,,,1514.3968342000153,184,26,male,True,15143,15155,False,False,expiration,inspiration
500,0.07356247693351033,25,up,up,1.0921735999872908,0.3082426926079695,,experiment,cRDM,1.0,,,,1516.1467868000034,184,26,male,True,15161,15172,False,False,inspiration,expiration
501,0.07356247693351033,25,up,up,0.927674400038086,0.7191817225705058,,experiment,cRDM,1.0,,,,1518.2132831999336,184,26,male,True,15182,15191,False,False,expiration,inspiration
502,124.0,25,M,,,0.3788860446219903,,experiment,emotion,2.0,,,,1522.9465491999872,184,26,male,True,15229,0,True,False,inspiration,0
503,114.0,25,M,,,1.9320989578894432,,experiment,emotion,2.0,,,,1527.5797062999334,184,26,male,True,15275,0,True,False,expiration,0
504,120.0,25,F,down,1.410727299982682,0.5218982575827112,,experiment,emotion,2.0,,,,1530.796233000001,184,26,male,True,15307,15321,True,True,inspiration,expiration
505,124.0,25,F,down,0.8962739000562578,1.7289385403439226,,experiment,emotion,2.0,,,,1534.2126777999802,184,26,male,True,15342,15351,True,True,expiration,expiration
506,120.0,25,M,down,0.8906030999496579,0.8983878592972528,,experiment,emotion,2.0,,,,1536.2793748999247,184,26,male,True,15362,15371,True,True,inspiration,inspiration
507,117.0,25,F,down,1.3506887999828905,1.5333635219518678,,experiment,emotion,2.0,,,,1538.9792791999646,184,26,male,True,15389,15403,True,True,inspiration,inspiration
508,114.0,25,M,up,1.4061083999695256,1.0395595505190889,,experiment,emotion,2.0,,,,1541.6458680999929,184,26,male,True,15416,15430,True,True,inspiration,expiration
509,117.0,25,M,up,0.8392437000293285,1.1796109914287936,,experiment,emotion,2.0,,,,1544.495731699979,184,26,male,True,15444,15452,True,True,expiration,expiration
510,124.0,25,F,up,0.6273353000869974,0.8791800265287768,,experiment,emotion,2.0,,,,1546.4956500999397,184,26,male,True,15464,15470,True,True,expiration,expiration
511,117.0,25,F,down,0.8270209000911564,1.1365103396556908,,experiment,emotion,2.0,,,,1548.528932599933,184,26,male,True,15485,15493,True,False,expiration,inspiration
512,120.0,25,F,up,1.2077935000415891,1.1186076820278956,,experiment,emotion,2.0,,,,1550.7621705000056,184,26,male,True,15507,15519,False,False,expiration,expiration
513,124.0,25,F,down,0.7835331000387669,1.1696564784546215,,experiment,emotion,2.0,,,,1553.3954176999396,184,26,male,True,15533,15541,False,False,inspiration,inspiration
514,120.0,25,F,down,1.1172779999906195,1.1776765516324832,,experiment,emotion,2.0,,,,1555.6286644999634,184,26,male,True,15556,15567,False,False,inspiration,inspiration
515,114.0,25,F,down,0.893068200093694,1.694364999069468,,experiment,emotion,2.0,,,,1558.7118773999389,184,26,male,True,15587,15596,False,False,expiration,expiration
516,117.0,25,M,up,0.7818836999358609,1.709490741991902,,experiment,emotion,2.0,,,,1561.5951290999076,184,26,male,True,15615,15623,False,False,expiration,inspiration
517,114.0,25,M,up,0.696265000035055,1.5801797961641888,,experiment,emotion,2.0,,,,1564.2116793999448,184,26,male,True,15642,15649,False,False,expiration,expiration
518,124.0,25,M,up,0.7120199000928551,1.146173765186989,,experiment,emotion,2.0,,,,1566.3449366999555,184,26,male,True,15663,15670,False,False,expiration,expiration
519,114.0,25,M,up,1.1386901000514629,1.271750258376951,,experiment,emotion,2.0,,,,1568.5781976999717,184,26,male,True,15685,15696,False,False,inspiration,inspiration
520,120.0,25,F,up,0.8479090000037104,1.939830115758296,,experiment,emotion,2.0,,,,1571.928075899952,184,26,male,True,15719,15727,False,False,expiration,expiration
521,120.0,25,M,up,1.0573144999798387,1.5978075182898464,,experiment,emotion,2.0,,,,1574.6446321000112,184,26,male,True,15746,15757,False,False,inspiration,expiration
522,117.0,25,M,up,1.3843995000934228,1.0585542959885406,,experiment,emotion,2.0,,,,1577.0445439999453,184,26,male,True,15770,15784,False,False,expiration,inspiration
523,117.0,25,F,up,0.8807927999878302,0.30999974149564125,,experiment,emotion,2.0,,,,1579.0111708999611,184,26,male,True,15790,15799,False,False,inspiration,expiration
524,114.0,25,M,up,0.7668370000319555,1.3938429913162085,,experiment,emotion,2.0,,,,1581.5610469999954,184,26,male,True,15815,15823,False,False,inspiration,inspiration
525,124.0,25,F,up,1.0509863999905065,0.6027180996861854,,experiment,emotion,2.0,,,,1583.2109847000104,184,26,male,True,15832,15843,False,False,expiration,expiration
526,120.0,25,F,up,0.693741999915801,1.6966780122672538,,experiment,emotion,2.0,,,,1586.2442110999255,184,26,male,True,15862,15869,False,False,inspiration,expiration
527,114.0,25,M,up,0.753834699979052,0.7834084182157935,,experiment,emotion,2.0,,,,1587.9941469000187,184,26,male,True,15879,15887,False,False,expiration,inspiration
528,124.0,25,M,up,1.1066042999736965,0.9972738424019638,,experiment,emotion,2.0,,,,1590.0273575999308,184,26,male,True,15900,15911,False,False,inspiration,expiration
529,124.0,25,F,down,0.9089570000069216,0.5782862126425674,,experiment,emotion,2.0,,,,1591.9939803999148,184,26,male,True,15919,15928,False,False,expiration,trough
530,117.0,25,M,down,1.4850353000219911,1.4427153562758226,,experiment,emotion,2.0,,,,1594.6439124000024,184,26,male,True,15946,15961,False,False,expiration,expiration
531,114.0,25,F,down,0.9727889000205324,0.5820738042915341,,experiment,emotion,2.0,,,,1596.9771466999082,184,26,male,True,15969,15979,False,False,inspiration,expiration
532,117.0,25,F,down,0.8986017999704927,1.3291879757427618,,experiment,emotion,2.0,,,,1599.5603777999056,184,26,male,True,15995,16004,False,False,expiration,inspiration
533,120.0,25,F,up,0.6359548000618815,0.4314342708380527,,experiment,emotion,2.0,,,,1601.1769900999495,184,26,male,True,16011,16017,False,False,inspiration,expiration
534,114.0,25,M,down,1.1717975999927148,1.8357558742195428,,experiment,emotion,2.0,,,,1603.9101467999865,184,26,male,True,16039,16051,False,False,inspiration,expiration
535,124.0,25,M,down,1.6864794000284746,1.980494605758828,,experiment,emotion,2.0,,,,1607.3434396999655,184,26,male,True,16073,16090,False,False,inspiration,expiration
536,120.0,25,M,down,0.9726752999704332,1.4357311582664616,,experiment,emotion,2.0,,,,1610.7433158999775,184,26,male,True,16107,16117,False,False,trough,inspiration
537,124.0,25,F,up,1.2220463000703603,1.2708977180372067,,experiment,emotion,2.0,,,,1613.2598869999638,184,26,male,True,16132,16144,False,False,inspiration,expiration
538,114.0,25,F,up,1.5926327999914065,1.7555566769859403,,experiment,emotion,2.0,,,,1616.5263352999466,184,26,male,True,16165,16181,False,False,inspiration,expiration
539,120.0,25,M,up,1.1140044000931084,1.8079352206187749,,experiment,emotion,2.0,,,,1620.1929497999372,184,26,male,True,16201,16212,False,False,expiration,expiration
540,117.0,25,F,up,1.839072500006296,1.2836213586168117,,experiment,emotion,2.0,,,,1622.8928848999785,184,26,male,True,16228,16246,False,False,expiration,expiration
541,117.0,25,M,up,1.1121936000417918,1.1974203539854995,,experiment,emotion,2.0,,,,1626.1927279999945,184,26,male,True,16261,16272,False,False,expiration,expiration
