,stimLvl,stimTime,rand,response,rt,precedingITI,trialNumber,trialType,stimuli,block,estIntens,estThres,estSlope,trialStart,subject,age,gender,headRest,onset,responsI,manBadOnset,manBadRespons,onset_phase,respons_phase
0,0.9,100,down,,,0.7308217587937221,,introTrial,cRDM,,,,,163.7648736000119,190,26,male,True,1636,0,False,False,inspiration,0
1,150.0,100,F,,,1.9725199579959052,,introTrial,emotion,,,,,169.68135490000714,190,26,male,True,1696,0,False,False,peak,0
2,0.9,25,down,down,0.8639281000068877,1.6364347228434932,,tutorial,cRDM,,,,,209.51320889999627,190,26,male,True,2094,2103,False,False,expiration,expiration
3,0.9,25,up,up,0.4543760000087786,0.5816802098563201,,tutorial,cRDM,,,,,211.22976650000786,190,26,male,True,2111,2116,False,False,inspiration,inspiration
4,0.9,25,up,up,0.5573601000069175,0.7650613187422575,,tutorial,cRDM,,,,,212.72973769999226,190,26,male,True,2126,2132,False,False,trough,inspiration
5,0.9,25,up,up,0.5117592999886256,1.7404291207410545,,tutorial,cRDM,,,,,215.296353200014,190,26,male,True,2152,2157,False,False,inspiration,inspiration
6,0.9,25,down,down,0.4002774999826215,0.6853334136650642,,tutorial,cRDM,,,,,216.7629055000143,190,26,male,True,2166,2170,False,False,expiration,expiration
7,0.9,25,down,down,0.6083343000209425,1.6890117707186023,,tutorial,cRDM,,,,,219.1628123999981,190,26,male,True,2190,2196,False,False,inspiration,inspiration
8,0.9,25,down,up,0.3505128000106197,1.4211260702410646,,tutorial,cRDM,,,,,221.46274099999573,190,26,male,True,2213,2217,False,False,expiration,trough
9,0.9,25,up,up,0.4981614999996964,1.8726494092645791,,tutorial,cRDM,,,,,224.0459861000127,190,26,male,True,2239,2244,False,False,inspiration,inspiration
10,0.9,25,down,down,0.42284490002202796,1.0020111657242003,,tutorial,cRDM,,,,,225.82927399998883,190,26,male,True,2257,2261,False,False,expiration,expiration
11,0.9,25,up,up,0.464312099997187,1.3796975836794871,,tutorial,cRDM,,,,,227.89581119999642,190,26,male,True,2278,2283,False,False,inspiration,peak
12,200.0,25,M,up,0.8344501999963541,0.31306173833166634,,tutorial,emotion,,,,,233.24570780000067,190,26,male,True,2331,2339,False,False,inspiration,expiration
13,200.0,25,M,up,0.4558157999999821,0.9566099493464622,,tutorial,emotion,,,,,235.31230089999733,190,26,male,True,2352,2357,False,False,expiration,expiration
14,200.0,25,F,up,0.4522469000075944,0.9152487213581864,,tutorial,emotion,,,,,236.97887180000546,190,26,male,True,2369,2374,False,False,inspiration,inspiration
15,0.0,25,F,down,0.4001963000046089,0.9334234718596324,,tutorial,emotion,,,,,238.662153000012,190,26,male,True,2385,2389,False,False,inspiration,expiration
16,0.0,25,M,down,0.5001047000114339,1.789687317799623,,tutorial,emotion,,,,,241.16203820001098,190,26,male,True,2410,2415,False,False,trough,inspiration
17,200.0,25,F,up,0.4631825000105891,1.6086178853771262,,tutorial,emotion,,,,,243.56194670000698,190,26,male,True,2434,2439,False,False,inspiration,expiration
18,0.0,25,M,down,0.7388086999999359,1.3602009467102754,,tutorial,emotion,,,,,245.6452503000037,190,26,male,True,2455,2462,False,False,expiration,expiration
19,200.0,25,M,up,0.5166087999823503,0.8095773782962159,,tutorial,emotion,,,,,247.47852539998712,190,26,male,True,2474,2479,False,False,inspiration,inspiration
20,0.0,25,F,down,0.38352440000744537,1.339815107528927,,tutorial,emotion,,,,,249.62842910000472,190,26,male,True,2495,2499,False,False,expiration,expiration
21,0.0,25,F,down,0.4166847999731544,0.5275732279831471,,tutorial,emotion,,,,,250.8620683999907,190,26,male,True,2508,2512,False,False,trough,inspiration
22,0.29,25,up,up,0.4002539000066463,1.4987056493042004,,psi_staircase_training,cRDM,,0.25,0.25693124029946324,0.10500000000000002,260.0113257000048,190,26,male,True,2599,2603,False,False,inspiration,expiration
23,0.25,25,up,up,0.4815248999802861,1.3351152559645143,,psi_staircase_training,cRDM,,0.21910266653183127,0.2260132002683493,0.10468632033873933,262.0445952999871,190,26,male,True,2619,2624,False,False,expiration,inspiration
24,0.21,25,down,down,0.44962020000093617,0.4284575431723794,,psi_staircase_training,cRDM,,0.1900540959403307,0.19684979615540016,0.10294672984249993,263.2445133000146,190,26,male,True,2631,2635,False,False,inspiration,inspiration
25,0.18,25,down,down,0.4002411999972537,1.1681962663468326,,psi_staircase_training,cRDM,,0.1635257589279754,0.1701521334256793,0.100381647756865,265.1278079999902,190,26,male,True,2650,2654,False,False,peak,expiration
26,0.15,25,up,up,0.5404470000066794,0.8018748644839315,,psi_staircase_training,cRDM,,0.14018955742449365,0.14660133511875031,0.0971307628663642,266.6277687000111,190,26,male,True,2665,2670,False,False,expiration,expiration
27,0.13,25,down,down,0.4173363000154495,1.2067809332003585,,psi_staircase_training,cRDM,,0.11987606021454796,0.12605547676183335,0.09361076941961036,268.64432059999666,190,26,male,True,2685,2689,False,False,inspiration,inspiration
28,0.11,25,up,up,0.4682009000098333,0.7666341586534022,,psi_staircase_training,cRDM,,0.10257735236965487,0.10849103445698656,0.08958521019937955,270.11094340001,190,26,male,True,2700,2705,False,False,expiration,expiration
29,0.09,25,down,down,0.4170052999979816,1.45448533736651,,psi_staircase_training,cRDM,,0.08784432595859408,0.09348182153209693,0.08540131486476357,272.294218199997,190,26,male,True,2722,2726,False,False,inspiration,inspiration
30,0.08,25,down,down,0.4923264000099152,1.5228658704648643,,psi_staircase_training,cRDM,,0.07518520921180863,0.0805556301471181,0.08135545354720439,274.51080399999046,190,26,male,True,2744,2749,False,False,expiration,expiration
31,0.06,25,up,up,0.6183448999945539,0.7450926980121083,,psi_staircase_training,cRDM,,0.06447903911685147,0.06954222446062751,0.0767012018235253,276.01074440000235,190,26,male,True,2759,2765,False,False,expiration,expiration
32,0.06,25,down,down,0.4214929000008851,1.6965841073503267,,psi_staircase_training,cRDM,,0.05512527674218701,0.059944365972074615,0.07300343766430684,278.6106476999994,190,26,male,True,2785,2789,False,False,inspiration,expiration
33,0.05,25,down,down,0.4538618999940809,1.080793072269631,,psi_staircase_training,cRDM,,0.04725350084921385,0.051726898301245584,0.06776662071573335,280.3772774999961,190,26,male,True,2803,2808,False,False,expiration,inspiration
34,0.04,25,down,up,0.6439422000257764,1.3641290535733344,,psi_staircase_training,cRDM,,0.04050667600155933,0.04465105192729081,0.06278233813874594,282.4771687999892,190,26,male,True,2824,2830,False,False,expiration,expiration
35,0.08,25,up,down,0.6006782999902498,0.9799480757380691,,psi_staircase_training,cRDM,,0.06209221031275786,0.06728864965857488,0.07871984056778937,284.36043460000656,190,26,male,True,2843,2849,False,False,expiration,inspiration
36,0.12,25,up,up,0.5834707999892998,1.1133327726556728,,psi_staircase_training,cRDM,,0.0924264076217732,0.09983815595350023,0.11227912194756896,286.3436674000113,190,26,male,True,2862,2868,False,False,expiration,inspiration
37,0.12,25,down,down,0.44313449997571297,1.928346073936458,,psi_staircase_training,cRDM,,0.08335142324899039,0.09049016520200877,0.10814340185622667,289.1269355000113,190,26,male,True,2890,2894,False,False,expiration,expiration
38,0.11,25,down,down,0.3175471000140533,1.9079850812806407,,psi_staircase_training,cRDM,,0.0763380100370047,0.08314914493454616,0.10318054682034812,291.74348679999815,190,26,male,True,2916,2919,False,False,inspiration,inspiration
39,0.08,25,up,down,0.38385379998362623,1.6257496312176234,,psi_staircase_training,cRDM,,0.07063550287243149,0.07712127522444252,0.09825169342547456,294.06005110000837,190,26,male,True,2940,2944,False,False,expiration,expiration
40,0.13,25,up,up,0.5974225999962073,1.2277758783010482,,psi_staircase_training,cRDM,,0.0899316917773212,0.09646837124394696,0.0990228753212976,295.97670970001485,190,26,male,True,2959,2965,False,False,inspiration,peak
41,0.12,25,up,up,0.5405630999885034,1.2520510755695142,,psi_staircase_training,cRDM,,0.08479015070045684,0.0909182938390167,0.09283403860613698,298.1099196000141,190,26,male,True,2980,2985,False,False,inspiration,inspiration
42,0.12,25,up,up,0.5385521000134759,1.2446168086040317,,psi_staircase_training,cRDM,,0.08086992522788547,0.086600452567456,0.08681063484431495,300.1765850000084,190,26,male,True,3001,3006,False,False,inspiration,inspiration
43,0.12,25,down,down,0.3338350999983959,1.5869171291809254,,psi_staircase_training,cRDM,,0.07813118948002103,0.083460879189748,0.08073842419872061,302.5764607999881,190,26,male,True,3025,3028,False,False,expiration,inspiration
44,0.1,25,down,down,0.42113500001141796,1.975706845171104,,psi_staircase_training,cRDM,,0.07631033017409264,0.08124697324478125,0.07478423774493048,305.242977899994,190,26,male,True,3051,3055,False,False,expiration,expiration
45,0.07,25,down,down,0.350523000000976,1.3965555644834382,,psi_staircase_training,cRDM,,0.07344246467892468,0.0782284221728281,0.07250153149340009,307.3428889999923,190,26,male,True,3072,3076,False,False,inspiration,inspiration
46,0.07,25,up,up,0.4676525999966543,1.7314881423431747,,psi_staircase_training,cRDM,,0.06772599117081317,0.07313601067698662,0.08195532453148395,309.7594955000095,190,26,male,True,3097,3102,False,False,expiration,expiration
47,0.07,25,up,up,0.3838451999763493,1.3366552021325613,,psi_staircase_training,cRDM,,0.06199898229885657,0.06794548610547582,0.09008241998814724,311.8427277999872,190,26,male,True,3117,3121,False,False,inspiration,inspiration
48,0.07,25,down,down,0.9095111000060571,0.5062696010325661,,psi_staircase_training,cRDM,,0.0565903553113485,0.06295198773206849,0.09637112195162588,313.04269709999784,190,26,male,True,3129,3138,False,False,inspiration,expiration
49,0.07,25,down,down,0.6541418999840971,0.6933998008020887,,psi_staircase_training,cRDM,,0.05172943608843927,0.05837188461291224,0.10062515003608688,314.92598090000683,190,26,male,True,3148,3155,False,False,expiration,expiration
50,0.07,25,up,up,0.4381520999886561,1.3704211212644224,,psi_staircase_training,cRDM,,0.04752690669998498,0.05432057856377425,0.10291600274673963,317.2258988000103,190,26,male,True,3171,3175,False,False,inspiration,inspiration
51,0.07,25,up,up,0.31717749999370426,1.9318593495689735,,psi_staircase_training,cRDM,,0.043996610460704695,0.050827242398212014,0.10347590365519534,319.87578440000647,190,26,male,True,3198,3201,False,False,expiration,expiration
52,100.0,25,M,up,0.6997891000064556,1.5274935307026196,,psi_staircase_training,emotion,,100.0,100.0,25.00050000000001,326.059305200004,190,26,male,True,3260,3267,False,False,inspiration,expiration
53,55.0,25,M,down,0.5289291999943089,1.5456328656312637,,psi_staircase_training,emotion,,54.742809467541896,54.742809467541896,25.00050000000011,328.6422062999918,190,26,male,True,3285,3290,False,False,expiration,inspiration
54,79.0,25,F,down,0.4553214999905322,1.1880039756542509,,psi_staircase_training,emotion,,79.636070985635,79.636070985635,25.71326925488641,330.70880389999365,190,26,male,True,3306,3311,False,False,expiration,inspiration
55,103.0,25,F,down,0.4481545000162441,1.5265718189517978,,psi_staircase_training,emotion,,97.61123893914808,97.61123893914808,26.1463337262867,333.04201070001,190,26,male,True,3329,3333,False,False,expiration,expiration
56,127.0,25,M,up,0.4355137999809813,1.8048893280113008,,psi_staircase_training,emotion,,117.15641007867752,117.15641007867752,31.432291447829705,335.658572299988,190,26,male,True,3356,3360,False,False,inspiration,inspiration
57,116.0,25,F,up,0.6083373000146821,1.7054689976100186,,psi_staircase_training,emotion,,105.03864224082596,105.03864224082596,29.69406400548579,338.14182610000717,190,26,male,True,3380,3386,False,False,inspiration,expiration
58,88.0,25,M,down,0.4172876999946311,1.8577752859857783,,psi_staircase_training,emotion,,98.16151255584974,98.16151255584974,27.87588470540113,340.94173650001176,190,26,male,True,3408,3412,False,False,expiration,expiration
59,116.0,25,F,down,0.5330388000002131,0.3753786837992309,,psi_staircase_training,emotion,,103.47850698803556,103.47850698803556,26.167505567848767,342.0750570000091,190,26,male,True,3420,3425,False,False,trough,inspiration
60,130.0,25,F,up,0.6444341999886092,0.5251104154531815,,psi_staircase_training,emotion,,112.6895003383148,112.6895003383148,31.1190918538188,343.49165829998674,190,26,male,True,3434,3440,False,False,expiration,expiration
61,128.0,25,M,down,0.521198500005994,1.050692264918052,,psi_staircase_training,emotion,,108.76163555889023,108.76163555889023,29.38666183888493,345.52492419999913,190,26,male,True,3454,3459,False,False,inspiration,inspiration
62,138.0,25,F,up,0.4540042000007816,1.7697973689353836,,psi_staircase_training,emotion,,116.92311060607055,116.92311060607055,33.835318298608584,348.1580967000045,190,26,male,True,3481,3486,False,False,expiration,inspiration
63,136.0,25,F,up,0.44036720000440255,0.5714462143527501,,psi_staircase_training,emotion,,113.88159270281972,113.88159270281972,32.61516238424653,349.52477439999353,190,26,male,True,3494,3498,False,False,inspiration,peak
64,90.0,25,F,down,0.5693991000007372,1.462134870887014,,psi_staircase_training,emotion,,111.47083904722092,111.47083904722092,31.49836025679498,351.77470079998596,190,26,male,True,3517,3523,False,False,expiration,trough
65,137.0,25,M,up,0.5585334999777842,1.932044989586092,,psi_staircase_training,emotion,,113.70629888887206,113.70629888887206,30.28245619029594,354.6245863999938,190,26,male,True,3545,3551,False,False,expiration,expiration
66,91.0,25,M,down,0.4329568000102881,1.320252641425197,,psi_staircase_training,emotion,,111.93404819883509,111.93404819883509,29.094285665601987,356.8411598000093,190,26,male,True,3567,3571,False,False,expiration,trough
67,137.0,25,F,up,0.5077010999957565,1.1648153488498043,,psi_staircase_training,emotion,,113.71529747197098,113.71529747197098,27.815053536781317,358.7744358000054,190,26,male,True,3587,3592,False,False,inspiration,expiration
68,92.0,25,F,down,0.3501533000089694,0.7562866558717909,,psi_staircase_training,emotion,,112.36248168549265,112.36248168549265,26.61019023579721,360.39104300001054,190,26,male,True,3603,3607,False,False,expiration,inspiration
69,93.0,25,M,down,0.3335474999912549,1.279360510232476,,psi_staircase_training,emotion,,113.7951109339498,113.7951109339498,25.32924398025309,362.44097240001435,190,26,male,True,3623,3626,False,False,expiration,expiration
70,136.0,25,M,down,0.4981276000034995,0.6880189621538513,,psi_staircase_training,emotion,,114.95677829756089,114.95677829756089,24.15886868012712,363.890919700003,190,26,male,True,3638,3643,False,False,expiration,inspiration
71,145.0,25,M,up,0.498597099998733,1.1675035887484817,,psi_staircase_training,emotion,,119.54049205895949,119.54049205895949,29.367486225876277,365.90749549999606,190,26,male,True,3658,3663,False,False,inspiration,expiration
72,144.0,25,M,up,0.4807229999860283,1.1016121275005817,,psi_staircase_training,emotion,,118.34123852537664,118.34123852537664,28.23912888995858,367.8573715999955,190,26,male,True,3677,3682,False,False,expiration,expiration
73,94.0,25,F,up,0.4811478999909014,1.7515063854045934,,psi_staircase_training,emotion,,117.34482927049801,117.34482927049801,27.195073422181764,370.4240031999943,190,26,male,True,3703,3708,False,False,inspiration,peak
74,86.0,25,F,down,0.4629284999973606,1.2039631807812992,,psi_staircase_training,emotion,,113.34728948267359,113.34728948267359,31.34251530680636,372.45722879999084,190,26,male,True,3723,3728,False,False,expiration,expiration
75,142.0,25,F,down,0.5076093999959994,1.275145261454696,,psi_staircase_training,emotion,,114.34611625118023,114.34611625118023,30.4719168323458,374.5405093999871,190,26,male,True,3744,3749,False,False,inspiration,inspiration
76,148.0,25,M,down,0.4633651000040118,0.8789140079173263,,psi_staircase_training,emotion,,118.2612151548398,118.2612151548398,34.22862850019733,376.2737691999937,190,26,male,True,3762,3767,False,False,expiration,expiration
77,152.0,25,M,up,0.4291394999891054,1.9716219661603185,,psi_staircase_training,emotion,,122.26515776867208,122.26515776867208,37.22774560234845,379.0570047000074,190,26,male,True,3789,3793,False,False,inspiration,peak
78,152.0,25,F,up,0.6451898000086658,1.572066461812457,,psi_staircase_training,emotion,,121.159468890279,121.159468890279,36.61323924699533,381.4069187999994,190,26,male,True,3813,3819,False,False,inspiration,inspiration
79,90.0,25,F,down,0.6713411000091583,0.6971610036698137,,psi_staircase_training,emotion,,120.18067709567207,120.18067709567207,36.013089085547705,383.10684940000647,190,26,male,True,3830,3837,False,False,inspiration,expiration
80,153.0,25,M,up,0.44633959999191575,1.9379669841781813,,psi_staircase_training,emotion,,121.10348779066912,121.10348779066912,35.41836742212083,386.0567343000148,190,26,male,True,3859,3863,False,False,expiration,expiration
81,89.0,25,M,up,0.4001696000050288,1.2754287725980171,,psi_staircase_training,emotion,,120.26178008814522,120.26178008814522,34.79560176499309,388.12334930000367,190,26,male,True,3880,3884,False,False,expiration,inspiration
82,0.29,25,up,up,0.5756973999959882,1.7192537523525708,,psi_staircase,cRDM,,0.25,0.25693124029946324,0.10500000000000002,402.239402200008,190,26,male,True,4021,4027,False,False,inspiration,expiration
83,0.25,25,up,up,0.5053460999915842,1.4905414704519784,,psi_staircase,cRDM,,0.21910266653183127,0.2260132002683493,0.10468632033873933,404.5727181000111,190,26,male,True,4045,4050,False,False,inspiration,inspiration
84,0.21,25,down,down,0.4169419000099879,1.6454045948796254,,psi_staircase,cRDM,,0.1900540959403307,0.19684979615540016,0.10294672984249993,406.98925579999917,190,26,male,True,4069,4073,False,False,expiration,inspiration
85,0.18,25,down,down,0.4002757999987807,1.802730649570761,,psi_staircase,cRDM,,0.1635257589279754,0.1701521334256793,0.100381647756865,409.47253570001334,190,26,male,True,4094,4098,False,False,expiration,expiration
86,0.15,25,up,up,0.466629800008377,1.8161570968080507,,psi_staircase,cRDM,,0.14018955742449365,0.14660133511875031,0.0971307628663642,411.9724424000015,190,26,male,True,4119,4124,False,False,expiration,expiration
87,0.13,25,down,down,0.44715259998338297,1.9947644061827368,,psi_staircase,cRDM,,0.11987606021454796,0.12605547676183335,0.09361076941961036,414.68897230000573,190,26,male,True,4146,4150,False,False,expiration,expiration
88,0.11,25,up,up,0.4822787999873981,1.948251677019941,,psi_staircase,cRDM,,0.10257735236965487,0.10849103445698656,0.08958521019937955,417.35585210000863,190,26,male,True,4173,4178,False,False,inspiration,inspiration
89,0.09,25,down,down,0.5773083999811206,0.7859538548515709,,psi_staircase,cRDM,,0.08784432595859408,0.09348182153209693,0.08540131486476357,418.888784699986,190,26,male,True,4188,4194,False,False,peak,expiration
90,0.08,25,down,down,0.6576937999925576,0.6636569472387227,,psi_staircase,cRDM,,0.07518520921180863,0.0805556301471181,0.08135545354720439,420.40539560001343,190,26,male,True,4203,4210,False,False,expiration,expiration
91,0.06,25,up,up,0.4170052999979816,1.7228605248769506,,psi_staircase,cRDM,,0.06447903911685147,0.06954222446062751,0.0767012018235253,423.055312499986,190,26,male,True,4230,4234,False,False,inspiration,expiration
92,0.06,25,down,down,0.4861653000116348,0.6956178364109844,,psi_staircase,cRDM,,0.05512527674218701,0.059944365972074615,0.07300343766430684,424.4219465999922,190,26,male,True,4243,4248,False,False,expiration,expiration
93,0.05,25,down,up,0.4642927999957465,1.987479967939132,,psi_staircase,cRDM,,0.04725350084921385,0.051726898301245584,0.06776662071573335,427.1718846000149,190,26,male,True,4271,4276,False,False,expiration,trough
94,0.09,25,down,up,0.7362819999980275,0.983434049451576,,psi_staircase,cRDM,,0.07349133277820137,0.0792442671536033,0.0871500746358451,428.87181089998916,190,26,male,True,4288,4295,False,False,inspiration,expiration
95,0.14,25,up,down,0.4002396000141744,1.6154158321560903,,psi_staircase,cRDM,,0.10687696191339394,0.11442770965404435,0.11438479673395348,431.48834959999664,190,26,male,True,4314,4318,False,False,inspiration,expiration
96,0.21,25,up,down,0.5411486999946646,0.4311978139426962,,psi_staircase,cRDM,,0.1518803541008186,0.16057766386073896,0.13175383990977152,432.60496620001504,190,26,male,True,4325,4330,False,False,expiration,expiration
97,0.3,25,down,down,0.5205045999900904,0.36611466568493095,,psi_staircase,cRDM,,0.21625112783636485,0.22559423006732576,0.14153682340617538,433.7716040000088,190,26,male,True,4337,4342,False,False,expiration,inspiration
98,0.27,25,down,down,0.4808441000059247,1.1173118018390369,,psi_staircase,cRDM,,0.1986651246828892,0.20800610719446105,0.14150471219285082,435.688238600007,190,26,male,True,4356,4361,False,False,inspiration,expiration
99,0.25,25,up,up,0.3838007000158541,1.31786479760218,,psi_staircase,cRDM,,0.18310220303670996,0.19240306495234674,0.1408969331531457,437.7380892999936,190,26,male,True,4376,4380,False,False,expiration,expiration
100,0.2,25,up,up,0.5201267999946141,1.9305040718740984,,psi_staircase,cRDM,,0.16945928088119805,0.17871350581662382,0.14019043868598088,440.3379972999974,190,26,male,True,4402,4407,False,False,expiration,expiration
101,0.2,25,up,up,0.5917853999999352,1.2470842077213802,,psi_staircase,cRDM,,0.15513608678491694,0.16457080392328266,0.14292467967170513,442.37130080000503,190,26,male,True,4423,4429,False,False,inspiration,expiration
102,0.2,25,up,down,0.4170191999874078,0.95284771452881,,psi_staircase,cRDM,,0.14282499371831014,0.15233710484649512,0.14409710604561865,444.1878749000025,190,26,male,True,4441,4445,False,False,expiration,expiration
103,0.26,25,down,down,0.5326915000041481,1.6404242761195,,psi_staircase,cRDM,,0.1853742894439637,0.19489567313553588,0.144237574289914,446.50445670000056,190,26,male,True,4464,4469,False,False,inspiration,expiration
104,0.2,25,down,down,0.4456881000078283,1.1017249562703741,,psi_staircase,cRDM,,0.1749878797378258,0.1843906620804708,0.14244090571411558,448.4044095000137,190,26,male,True,4483,4487,False,False,expiration,expiration
105,0.2,25,down,down,0.5284123999881558,0.9684076459416352,,psi_staircase,cRDM,,0.16254816897535254,0.1722199745410988,0.14651628576230402,450.08769449999085,190,26,male,True,4500,4505,False,False,inspiration,peak
106,0.19,25,up,up,0.5298708000045735,0.4663412816571746,,psi_staircase,cRDM,,0.15150855435568916,0.16135111371692062,0.14910300152331082,451.35425900001434,190,26,male,True,4513,4518,False,False,expiration,expiration
107,0.19,25,up,up,0.4835595000186004,1.501921608625181,,psi_staircase,cRDM,,0.14151757763013578,0.15148736292516896,0.15103032224399235,453.6375011999917,190,26,male,True,4535,4540,False,False,inspiration,inspiration
108,0.19,25,down,down,0.4600006999971811,0.9167003366422511,,psi_staircase,cRDM,,0.1327929430783627,0.14282302695950436,0.15194377369969808,455.3041511999908,190,26,male,True,4552,4557,False,False,expiration,expiration
109,0.19,25,down,down,0.8763432999840006,0.6510711742237105,,psi_staircase,cRDM,,0.12520455705056374,0.13524511470794742,0.15210243888195904,456.67075749998907,190,26,male,True,4566,4575,False,False,expiration,inspiration
110,0.18,25,up,up,0.495726499997545,0.5803837474698029,,psi_staircase,cRDM,,0.11859998906196413,0.12861465188248564,0.1517101630766127,458.3873794999963,190,26,male,True,4583,4588,False,False,inspiration,peak
111,0.18,25,up,up,0.4861956000095233,1.3134198771667995,,psi_staircase,cRDM,,0.11254565630314244,0.12252562657934934,0.1511846125264006,460.4539225999906,190,26,male,True,4603,4608,False,False,expiration,expiration
112,0.18,25,down,down,0.5898213000036776,0.43215889523997786,,psi_staircase,cRDM,,0.10721013328267573,0.11713243166122304,0.15031095225888338,461.6372349000012,190,26,male,True,4615,4621,False,False,trough,inspiration
113,0.13,25,up,up,0.4170231999887619,1.4573980897733825,,psi_staircase,cRDM,,0.10249106599031887,0.11233813170349087,0.14917126736510997,463.9371566000045,190,26,male,True,4638,4642,False,False,inspiration,expiration
114,0.13,25,down,down,0.4980663000023924,1.4268392936847558,,psi_staircase,cRDM,,0.09682738302561072,0.106728940137995,0.14999674688538206,466.0370421000116,190,26,male,True,4659,4664,False,False,expiration,expiration
115,0.14,25,up,up,0.4980707000067923,1.8888806056562295,,psi_staircase,cRDM,,0.09165523711147344,0.10157726828276564,0.1503069043885778,468.68701160000643,190,26,male,True,4686,4691,False,False,inspiration,inspiration
116,0.13,25,down,down,0.6588637999957427,1.2617026171322387,,psi_staircase,cRDM,,0.08716067874678438,0.0970527398570262,0.14985289381120184,470.72023030000855,190,26,male,True,4706,4713,False,False,inspiration,expiration
117,0.14,25,up,,,0.3436670434765251,,psi_staircase,cRDM,,0.08284439820437905,0.09270893646568044,0.14943595557015302,471.9869059000048,190,26,male,True,4719,0,False,False,expiration,0
118,0.14,25,down,down,0.5326643000007607,0.3436670434765251,,psi_staircase,cRDM,,0.08284439820437905,0.09270893646568044,0.14943595557015302,475.00341330000083,190,26,male,True,4749,4754,False,False,inspiration,peak
119,0.15,25,down,down,0.4414257000025827,1.1334146354754553,,psi_staircase,cRDM,,0.07912116167973005,0.08891883801550893,0.14842307737281124,476.9366768999898,190,26,male,True,4768,4772,False,False,expiration,inspiration
120,0.12,25,up,up,0.6321541000215802,1.16560115515076,,psi_staircase,cRDM,,0.07593638477703744,0.08563929976950656,0.14698755636680935,478.81991769999155,190,26,male,True,4787,4793,False,False,inspiration,inspiration
121,0.13,25,up,up,0.6051815999962855,0.6421386120110548,,psi_staircase,cRDM,,0.07238588742363651,0.08203806764516977,0.14621898527157895,480.36991909999045,190,26,male,True,4803,4809,False,False,peak,expiration
122,0.13,25,down,down,0.3841388000000734,1.8308287215031818,,psi_staircase,cRDM,,0.0693622026655978,0.07892234498249691,0.14482472110397618,483.0698104999902,190,26,male,True,4830,4834,False,False,expiration,expiration
123,0.13,25,down,down,0.483740099996794,1.1709707897029842,,psi_staircase,cRDM,,0.06661381828846315,0.07606677790453001,0.14320103138883847,484.93634129999566,190,26,male,True,4848,4853,False,False,expiration,expiration
124,0.13,25,down,down,0.5234162000124343,0.582062303577669,,psi_staircase,cRDM,,0.06412404140363179,0.07345528896725068,0.1413572393754484,486.269721699995,190,26,male,True,4862,4867,False,False,inspiration,inspiration
125,0.08,25,up,up,0.5075065999990329,1.6562058177537098,,psi_staircase,cRDM,,0.06187911862339419,0.07107455489382275,0.1392998607290771,488.7195764000062,190,26,male,True,4886,4891,False,False,expiration,expiration
126,0.08,25,up,down,0.611894100002246,0.7938690377473431,,psi_staircase,cRDM,,0.058440779743093835,0.06770985379274408,0.14041538500528386,490.2861779000086,190,26,male,True,4902,4908,False,False,inspiration,inspiration
127,0.14,25,down,up,0.9739280000212602,0.5217027976505517,,psi_staircase,cRDM,,0.06855726031573271,0.07774507422269795,0.13918439103980515,491.68614259999606,190,26,male,True,4916,4926,False,False,expiration,inspiration
128,0.17,25,down,down,1.0476243000011891,0.4008964233508984,,psi_staircase,cRDM,,0.07855461404606986,0.08854806409326356,0.15138881493354006,493.31940919999033,190,26,male,True,4932,4942,False,False,inspiration,peak
129,0.16,25,down,down,0.6376371999795083,0.36982719233007344,,psi_staircase,cRDM,,0.07623219290237893,0.0861401563792664,0.15009379564487854,495.0026736999862,190,26,male,True,4949,4955,False,False,expiration,expiration
130,0.16,25,up,up,0.5774808999849483,0.348429155097809,,psi_staircase,cRDM,,0.07392786796789404,0.08375353449309983,0.14884709526323886,496.25260380000685,190,26,male,True,4962,4968,False,False,expiration,expiration
131,0.16,25,up,up,0.6198971999983769,1.5417717500252268,,psi_staircase,cRDM,,0.07179237590377831,0.08153094689031741,0.14752770202842186,498.61920710001135,190,26,male,True,4985,4991,False,False,inspiration,inspiration
132,0.15,25,up,up,0.5699257999949623,1.5139972564970132,,psi_staircase,cRDM,,0.06981439941833475,0.07946116634880021,0.14613698038680173,501.0191201000125,190,26,male,True,5009,5015,False,False,expiration,expiration
133,100.0,25,M,up,0.5944604999967851,1.4270432675744744,,psi_staircase,emotion,,100.0,100.0,25.00050000000001,507.33560660001234,190,26,male,True,5072,5078,False,False,expiration,expiration
134,55.0,25,M,down,0.5296047999872826,1.4930472770098204,,psi_staircase,emotion,,54.742809467541896,54.742809467541896,25.00050000000011,509.7855323000112,190,26,male,True,5097,5102,False,False,expiration,inspiration
135,79.0,25,F,down,0.7602657999959774,1.3681591032370235,,psi_staircase,emotion,,79.636070985635,79.636070985635,25.71326925488641,512.0187885999911,190,26,male,True,5119,5127,False,False,inspiration,expiration
136,103.0,25,F,up,0.5211130999960005,0.9209596909209016,,psi_staircase,emotion,,97.61123893914808,97.61123893914808,26.1463337262867,514.051956100011,190,26,male,True,5140,5145,False,False,expiration,expiration
137,87.0,25,M,down,0.9448213000141551,0.8146588718040835,,psi_staircase,emotion,,85.98876744579668,85.98876744579668,23.003056417783494,515.7352929000043,190,26,male,True,5156,5165,False,False,inspiration,expiration
138,95.0,25,F,down,0.8238974999985658,0.4229204316980665,,psi_staircase,emotion,,95.05640406123078,95.05640406123078,22.150603223582724,517.4522393000078,190,26,male,True,5174,5182,False,False,expiration,expiration
139,108.0,25,M,up,0.8295467999996617,0.5365442363748953,,psi_staircase,emotion,,102.67895770092095,102.67895770092095,23.933073614491192,519.1685276000062,190,26,male,True,5191,5199,False,False,expiration,inspiration
140,105.0,25,M,up,0.6936237000045367,1.0171185495957724,,psi_staircase,emotion,,97.1551139642723,97.1551139642723,20.021669804154147,521.3684350000112,190,26,male,True,5213,5220,False,False,inspiration,expiration
141,92.0,25,F,up,0.8323614000109956,0.5981852688422821,,psi_staircase,emotion,,94.35050340433409,94.35050340433409,16.907117635955494,523.0017132000066,190,26,male,True,5229,5237,False,False,expiration,expiration
142,78.0,25,F,down,0.6187536000215914,0.9799667705443498,,psi_staircase,emotion,,88.86103477475633,88.86103477475633,22.527436511476086,525.1683049999991,190,26,male,True,5251,5257,False,False,inspiration,inspiration
143,80.0,25,F,down,1.0525430999987293,1.6761992232342784,,psi_staircase,emotion,,91.6595146366148,91.6595146366148,19.767648454571532,527.8015543000074,190,26,male,True,5277,5288,False,False,expiration,inspiration
144,105.0,25,F,up,0.5703484000114258,1.136520373356425,,psi_staircase,emotion,,93.45977428226035,93.45977428226035,17.42338277466613,530.3347497000068,190,26,male,True,5302,5308,False,False,inspiration,expiration
145,83.0,25,F,up,0.9333759000001008,1.1452369791743051,,psi_staircase,emotion,,92.12436300511787,92.12436300511787,15.236250644290722,532.3847016000071,190,26,male,True,5323,5332,False,False,expiration,expiration
146,72.0,25,F,down,0.7018517999968026,0.8871476720483169,,psi_staircase,emotion,,87.8227809200362,87.8227809200362,22.081075297548853,534.551249799988,190,26,male,True,5345,5352,False,False,inspiration,expiration
147,73.0,25,M,down,0.7015631000103895,0.7342284855495518,,psi_staircase,emotion,,89.29346209758478,89.29346209758478,20.07745055458934,536.3345301999943,190,26,male,True,5362,5369,False,False,expiration,inspiration
148,106.0,25,M,up,0.7416359999915585,1.2578436836657134,,psi_staircase,emotion,,90.31704054688144,90.31704054688144,18.35882695537956,538.6344386000128,190,26,male,True,5385,5392,False,False,expiration,expiration
149,75.0,25,M,down,0.6486739999963902,0.520808248033282,,psi_staircase,emotion,,89.40055835418511,89.40055835418511,16.718576264817006,540.2514219000004,190,26,male,True,5402,5408,False,False,expiration,expiration
150,103.0,25,M,up,0.6864371999981813,1.8811267746770235,,psi_staircase,emotion,,90.16515089011835,90.16515089011835,15.273084838950204,543.1176830999901,190,26,male,True,5430,5437,False,False,expiration,expiration
151,77.0,25,F,down,0.7018778999918139,1.7846559936921167,,psi_staircase,emotion,,89.43601752928394,89.43601752928394,13.937736282250668,545.9341728999862,190,26,male,True,5458,5465,False,False,inspiration,inspiration
152,101.0,25,M,up,1.243336100014858,1.163255424099482,,psi_staircase,emotion,,90.03998141733913,90.03998141733913,12.797271089246314,548.1507314000047,190,26,male,True,5481,5493,False,False,expiration,inspiration
153,80.0,25,M,down,0.6783969999814872,0.7610990487405093,,psi_staircase,emotion,,89.45009582910403,89.45009582910403,11.77810477418256,550.5007087000122,190,26,male,True,5504,5511,False,False,inspiration,expiration
154,97.0,25,F,up,1.1684996999974828,1.7708319533358436,,psi_staircase,emotion,,90.02140712195644,90.02140712195644,10.907690813089278,553.3005980000016,190,26,male,True,5532,5544,False,False,expiration,inspiration
155,84.0,25,M,down,0.6534917000099085,0.4949777499759499,,psi_staircase,emotion,,89.36086325319376,89.36086325319376,10.17468632072954,555.3005260000064,190,26,male,True,5552,5559,False,False,expiration,expiration
156,90.0,25,F,down,0.6587430999788921,1.74502413568362,,psi_staircase,emotion,,90.05823187196937,90.05823187196937,9.578158182012016,558.0503517999896,190,26,male,True,5580,5587,False,False,inspiration,expiration
157,99.0,25,F,up,0.7294171999965329,1.026569509454321,,psi_staircase,emotion,,91.1772437091,91.1772437091,9.575838771230943,560.0836801000114,190,26,male,True,5600,5607,False,False,expiration,expiration
158,87.0,25,M,down,0.7511578000267036,0.7062912646647537,,psi_staircase,emotion,,90.76510989971213,90.76510989971213,8.941581182860093,561.8669388999988,190,26,male,True,5618,5626,False,False,inspiration,expiration
159,88.0,25,M,down,0.7372187000000849,1.6356291448390534,,psi_staircase,emotion,,91.40727050610992,91.40727050610992,8.451254068661871,564.616847199999,190,26,male,True,5645,5652,False,False,inspiration,inspiration
160,89.0,25,F,up,0.7790098999976179,1.1978540248180294,,psi_staircase,emotion,,92.01476685234799,92.01476685234799,7.9982067755046335,566.9000873999902,190,26,male,True,5668,5676,False,False,expiration,inspiration
161,99.0,25,M,up,0.8044408999849111,1.8504839172505656,,psi_staircase,emotion,,90.86886033582084,90.86886033582084,8.848188259507983,569.866642500012,190,26,male,True,5698,5706,False,False,expiration,expiration
162,83.0,25,F,up,0.7974723000079393,1.6616768461435167,,psi_staircase,emotion,,90.57384998290638,90.57384998290638,8.340580131743689,572.6665463999963,190,26,male,True,5726,5734,False,False,inspiration,expiration
163,100.0,25,F,up,0.8799617000040598,1.323599276195554,,psi_staircase,emotion,,89.35871103635336,89.35871103635336,10.285703637308279,575.1331011000148,190,26,male,True,5750,5759,False,False,expiration,inspiration
164,79.0,25,F,up,0.9710081999946852,1.4235441025774394,,psi_staircase,emotion,,89.13072378446684,89.13072378446684,9.760409972130553,577.7830254999863,190,26,male,True,5777,5787,False,False,expiration,expiration
165,74.0,25,M,down,0.7691199999826495,0.8249664807599768,,psi_staircase,emotion,,87.78778253648304,87.78778253648304,12.530909130883375,579.932950699993,190,26,male,True,5798,5806,False,False,expiration,inspiration
166,75.0,25,M,down,0.7521958000143059,0.3742572271494933,,psi_staircase,emotion,,88.04847834099941,88.04847834099941,11.851385559486193,581.4328947000031,190,26,male,True,5813,5821,False,False,inspiration,peak
167,101.0,25,M,up,0.6840104000002611,0.8525612708958301,,psi_staircase,emotion,,88.26744384475073,88.26744384475073,11.283097288248602,583.3660914000067,190,26,male,True,5833,5840,False,False,expiration,inspiration
168,76.0,25,F,down,0.9446930999984032,1.1540726490712483,,psi_staircase,emotion,,88.07040528528118,88.07040528528118,10.799205177004357,585.5493832000067,190,26,male,True,5855,5864,False,False,inspiration,expiration
169,99.0,25,F,down,1.0787874000088775,1.4069970920071204,,psi_staircase,emotion,,88.2622799953891,88.2622799953891,10.365470708122816,588.2492735999987,190,26,male,True,5882,5893,False,False,trough,peak
170,104.0,25,M,up,1.1765294999931941,1.7889371557227451,,psi_staircase,emotion,,89.41395459061943,89.41395459061943,12.558823581165461,591.4495332000079,190,26,male,True,5914,5926,False,False,inspiration,inspiration
171,75.0,25,F,down,0.7406525000114925,0.7736745511366062,,psi_staircase,emotion,,89.22479012252245,89.22479012252245,12.055957767680905,593.7324121000129,190,26,male,True,5936,5943,False,False,inspiration,peak
172,102.0,25,M,up,0.7693741999974009,0.5997120489146393,,psi_staircase,emotion,,89.39564580700542,89.39564580700542,11.619333506479077,595.4157117000141,190,26,male,True,5953,5961,False,False,expiration,expiration
173,77.0,25,M,up,0.9184415000199806,0.5733743030650731,,psi_staircase,emotion,,89.20598861761148,89.20598861761148,11.214750536741164,597.1156520000078,190,26,male,True,5970,5979,False,False,expiration,expiration
174,72.0,25,M,down,0.6208507000119425,1.5202130729923278,,psi_staircase,emotion,,88.12469174410498,88.12469174410498,13.395540245831912,599.882216900005,190,26,male,True,5998,6004,False,False,inspiration,inspiration
175,103.0,25,F,up,0.6879223000141792,1.2820960428690078,,psi_staircase,emotion,,88.29522210839218,88.29522210839218,12.925540253295814,602.1321368000063,190,26,male,True,6020,6027,False,False,expiration,expiration
176,74.0,25,F,down,1.3320842999964952,1.4761634463469508,,psi_staircase,emotion,,88.12610327704127,88.12610327704127,12.504701226695126,604.6320369000022,190,26,male,True,6045,6058,False,False,inspiration,expiration
177,102.0,25,M,up,0.6691749000165146,1.5069241163818177,,psi_staircase,emotion,,88.29671571006888,88.29671571006888,12.118635017587565,607.831917500007,190,26,male,True,6077,6084,False,False,inspiration,inspiration
178,75.0,25,F,down,0.5725078000104986,1.2259536152015682,,psi_staircase,emotion,,88.1361934620178,88.1361934620178,11.776867486516672,610.0655173000123,190,26,male,True,6100,6106,False,False,expiration,trough
179,101.0,25,F,up,0.6600111000007018,1.2929045932799352,,psi_staircase,emotion,,88.29752445870956,88.29752445870956,11.46109703383652,612.2650449000066,190,26,male,True,6122,6129,False,False,inspiration,expiration
180,76.0,25,M,down,0.6962975999922492,0.5115666870682261,,psi_staircase,emotion,,88.14095347744602,88.14095347744602,11.176256905154276,613.7817144000146,190,26,male,True,6137,6144,False,False,expiration,expiration
181,100.0,25,M,down,1.1070686000166459,0.5845754250026891,,psi_staircase,emotion,,88.29790474018081,88.29790474018081,10.9112073274284,615.414972300001,190,26,male,True,6153,6164,False,False,expiration,inspiration
182,104.0,25,F,up,0.7239134999981616,1.2925762268147765,,psi_staircase,emotion,,89.2032057999539,89.2032057999539,12.324603617938733,618.1481425999955,190,26,male,True,6181,6188,False,False,expiration,expiration
183,0.06783578991704231,25,down,up,0.914796600001864,1.8183081910074699,,experiment,cRDM,0.0,,,,641.597265599994,190,26,male,True,6415,6424,False,False,inspiration,expiration
184,0.06783578991704231,25,up,up,0.6198827999760397,1.977981434681127,,experiment,cRDM,0.0,,,,644.7471924000129,190,26,male,True,6447,6453,False,False,inspiration,expiration
185,0.06783578991704231,25,down,down,0.573236199998064,1.4173370109380372,,experiment,cRDM,0.0,,,,647.0638214999926,190,26,male,True,6470,6476,False,False,expiration,inspiration
186,0.06783578991704231,25,up,up,0.5777172999805771,0.7378963001096581,,experiment,cRDM,0.0,,,,648.6303417999881,190,26,male,True,6485,6491,False,False,inspiration,inspiration
187,0.06783578991704231,25,down,down,0.7264164999942295,1.0383829981238153,,experiment,cRDM,0.0,,,,650.5136218999978,190,26,male,True,6504,6511,False,False,expiration,expiration
188,0.06783578991704231,25,down,up,0.6902289999998175,1.3437960266205478,,experiment,cRDM,0.0,,,,652.8468350000039,190,26,male,True,6528,6535,False,False,inspiration,inspiration
189,0.06783578991704231,25,up,up,0.6939072000095621,1.2843018264027035,,experiment,cRDM,0.0,,,,655.0801494999905,190,26,male,True,6550,6557,False,False,expiration,expiration
190,0.06783578991704231,25,down,up,0.6797528000024613,0.9152505415228565,,experiment,cRDM,0.0,,,,656.9633389000082,190,26,male,True,6569,6576,False,False,inspiration,inspiration
191,0.06783578991704231,25,up,up,0.6347337999904994,0.6198068069015074,,experiment,cRDM,0.0,,,,658.5133122999978,190,26,male,True,6584,6590,False,False,expiration,expiration
192,0.06783578991704231,25,up,up,0.6634582999977283,1.380531174497892,,experiment,cRDM,0.0,,,,660.7965561999881,190,26,male,True,6607,6614,False,False,expiration,inspiration
193,0.06783578991704231,25,down,down,0.6882206000154838,0.3194585436398282,,experiment,cRDM,0.0,,,,662.0298541999947,190,26,male,True,6619,6626,False,False,inspiration,inspiration
194,0.06783578991704231,25,up,up,0.9869019000034314,0.5228484057158387,,experiment,cRDM,0.0,,,,663.513128599996,190,26,male,True,6634,6644,False,False,inspiration,inspiration
195,0.06783578991704231,25,up,up,0.6576956000062637,1.3741829063033033,,experiment,cRDM,0.0,,,,666.1463476000063,190,26,male,True,6660,6667,False,False,expiration,expiration
196,0.06783578991704231,25,up,up,0.6894265000009909,1.1716387805639246,,experiment,cRDM,0.0,,,,668.2466263000098,190,26,male,True,6682,6689,False,False,expiration,expiration
197,0.06783578991704231,25,down,down,0.8295149999903515,1.4279879028368283,,experiment,cRDM,0.0,,,,670.6295374000038,190,26,male,True,6706,6714,False,False,inspiration,peak
198,0.06783578991704231,25,down,up,0.6002811000216752,0.7073011849470177,,experiment,cRDM,0.0,,,,672.4128008999978,190,26,male,True,6723,6729,False,False,expiration,expiration
199,0.06783578991704231,25,up,up,0.8916664000134915,0.9099086506007256,,experiment,cRDM,0.0,,,,674.1794107999884,190,26,male,True,6741,6750,False,False,inspiration,expiration
200,0.06783578991704231,25,up,up,0.7664016000053381,1.2752951316603505,,experiment,cRDM,0.0,,,,676.6126506,190,26,male,True,6765,6773,False,False,expiration,expiration
201,0.06783578991704231,25,down,up,0.6341881999978796,1.0017494600012251,,experiment,cRDM,0.0,,,,678.6458637999895,190,26,male,True,6786,6792,False,False,inspiration,expiration
202,0.06783578991704231,25,down,down,0.9766220000165048,1.6793674526065,,experiment,cRDM,0.0,,,,681.2124770999943,190,26,male,True,6811,6821,False,False,inspiration,expiration
203,0.06783578991704231,25,up,up,0.785364200011827,1.948053019408449,,experiment,cRDM,0.0,,,,684.3956859000027,190,26,male,True,6843,6851,False,False,inspiration,inspiration
204,0.06783578991704231,25,down,down,0.7100360000040382,0.32490148551427,,experiment,cRDM,0.0,,,,685.7790328999981,190,26,male,True,6857,6864,False,False,inspiration,expiration
205,0.06783578991704231,25,up,up,0.6308560000034049,1.6714766718918557,,experiment,cRDM,0.0,,,,688.4122158999962,190,26,male,True,6883,6889,False,False,expiration,expiration
206,0.06783578991704231,25,down,down,0.8949292999750469,0.7176753581294615,,experiment,cRDM,0.0,,,,690.0121488999865,190,26,male,True,6899,6908,False,False,inspiration,inspiration
207,0.06783578991704231,25,down,down,0.6930377999960912,1.4442225052794258,,experiment,cRDM,0.0,,,,692.6120059000094,190,26,male,True,6925,6932,False,False,expiration,expiration
208,0.06783578991704231,25,up,up,0.701429900014773,1.0708337473686338,,experiment,cRDM,0.0,,,,694.6286409999884,190,26,male,True,6946,6953,False,False,inspiration,inspiration
209,0.06783578991704231,25,up,up,0.7447747999976855,0.7523486579360462,,experiment,cRDM,0.0,,,,696.3452916000098,190,26,male,True,6963,6970,False,False,expiration,expiration
210,0.06783578991704231,25,down,down,0.5628304000128992,1.7004431627457068,,experiment,cRDM,0.0,,,,699.0451933000003,190,26,male,True,6990,6996,False,False,expiration,expiration
211,0.06783578991704231,25,up,up,0.5133281000016723,1.2368823388906522,,experiment,cRDM,0.0,,,,701.1117480999965,190,26,male,True,7010,7015,False,False,inspiration,expiration
212,0.06783578991704231,25,down,up,0.7083308000001125,0.6792090561951415,,experiment,cRDM,0.0,,,,702.5617382999918,190,26,male,True,7025,7032,False,False,expiration,expiration
213,0.06783578991704231,25,up,up,0.5101020000001881,0.8657344876885555,,experiment,cRDM,0.0,,,,704.3949632000003,190,26,male,True,7043,7048,False,False,inspiration,expiration
214,0.06783578991704231,25,down,down,0.550463799998397,1.7837390802739777,,experiment,cRDM,0.0,,,,706.9615798000012,190,26,male,True,7069,7075,False,False,inspiration,inspiration
215,0.06783578991704231,25,up,up,0.6000067999993917,1.5518238941093885,,experiment,cRDM,0.0,,,,709.3281127999943,190,26,male,True,7092,7098,False,False,expiration,expiration
216,0.06783578991704231,25,down,down,0.68710199999623,1.5402250196588283,,experiment,cRDM,0.0,,,,711.7279914999962,190,26,male,True,7116,7123,False,False,inspiration,inspiration
217,0.06783578991704231,25,up,up,0.5928534000122454,1.837871103532979,,experiment,cRDM,0.0,,,,714.5112361999927,190,26,male,True,7144,7150,False,False,expiration,expiration
218,0.06783578991704231,25,down,down,0.8907707000034861,1.0688558697301065,,experiment,cRDM,0.0,,,,716.4283068999939,190,26,male,True,7164,7173,False,False,inspiration,expiration
219,0.06783578991704231,25,up,up,0.6030037000018638,0.9293244028100752,,experiment,cRDM,0.0,,,,718.5110745000128,190,26,male,True,7184,7190,False,False,expiration,expiration
220,0.06783578991704231,25,down,down,0.4573151000076905,0.4012360063994902,,experiment,cRDM,0.0,,,,719.7777208999905,190,26,male,True,7197,7202,False,False,trough,inspiration
221,0.06783578991704231,25,up,up,0.3838119000138249,0.7149107121169754,,experiment,cRDM,0.0,,,,721.2110066000023,190,26,male,True,7211,7215,False,False,inspiration,inspiration
222,0.06783578991704231,25,down,down,0.5858236000058241,1.8090215872234876,,experiment,cRDM,0.0,,,,723.6942432000069,190,26,male,True,7236,7242,False,False,expiration,expiration
223,0.06783578991704231,25,down,up,0.8475503999798093,0.9271252023559302,,experiment,cRDM,0.0,,,,725.4775039000087,190,26,male,True,7254,7262,False,False,inspiration,peak
224,0.06783578991704231,25,up,up,0.6479563000029884,1.245398504629557,,experiment,cRDM,0.0,,,,727.844079100003,190,26,male,True,7278,7284,False,False,expiration,trough
225,0.06783578991704231,25,down,down,0.6256600999913644,1.0648146487328716,,experiment,cRDM,0.0,,,,729.8273340000014,190,26,male,True,7298,7304,False,False,inspiration,inspiration
226,0.06783578991704231,25,up,up,0.5484059999871533,1.5912456226336769,,experiment,cRDM,0.0,,,,732.3105989999895,190,26,male,True,7322,7327,False,False,expiration,expiration
227,0.06783578991704231,25,up,down,0.6622146999870893,1.1299968381815635,,experiment,cRDM,0.0,,,,734.243855800014,190,26,male,True,7342,7349,False,False,expiration,inspiration
228,0.06783578991704231,25,down,down,0.6463611999934074,1.5684365028996954,,experiment,cRDM,0.0,,,,736.7437315999997,190,26,male,True,7367,7373,False,False,expiration,expiration
229,0.06783578991704231,25,down,up,0.7499833999900147,1.1218613237815125,,experiment,cRDM,0.0,,,,738.7770503000065,190,26,male,True,7387,7394,False,False,expiration,trough
230,0.06783578991704231,25,up,down,0.6378356000059284,1.325855332092856,,experiment,cRDM,0.0,,,,741.1272063000071,190,26,male,True,7411,7417,False,False,inspiration,expiration
231,0.06783578991704231,25,down,down,0.7017954000039026,1.3355775151770677,,experiment,cRDM,0.0,,,,743.3602462999988,190,26,male,True,7433,7440,False,False,expiration,expiration
232,0.06783578991704231,25,up,up,0.5686139999888837,1.6755257859371406,,experiment,cRDM,0.0,,,,745.9934259000001,190,26,male,True,7459,7465,False,False,inspiration,inspiration
233,0.06783578991704231,25,up,down,0.7469525999913458,0.5320771387708707,,experiment,cRDM,0.0,,,,747.3601068000135,190,26,male,True,7473,7480,False,False,inspiration,inspiration
234,0.06783578991704231,25,up,up,1.125721499993233,0.3607195473027525,,experiment,cRDM,0.0,,,,748.7433544000087,190,26,male,True,7487,7498,False,False,expiration,expiration
235,0.06783578991704231,25,up,down,1.2344583999947645,0.4611633618671752,,experiment,cRDM,0.0,,,,750.5766008000064,190,26,male,True,7505,7517,False,False,expiration,trough
236,0.06783578991704231,25,up,up,1.1961501000041608,0.6877407971307037,,experiment,cRDM,0.0,,,,752.7598840999998,190,26,male,True,7527,7539,False,False,inspiration,expiration
237,0.06783578991704231,25,down,down,1.0346925999911036,1.7528209613136474,,experiment,cRDM,0.0,,,,755.9763759000052,190,26,male,True,7559,7569,False,False,trough,inspiration
238,0.06783578991704231,25,down,up,1.189797200000612,1.84184890269458,,experiment,cRDM,0.0,,,,759.126245099993,190,26,male,True,7590,7602,False,False,expiration,expiration
239,0.06783578991704231,25,down,up,0.8978581000119448,1.3989271309447648,,experiment,cRDM,0.0,,,,761.9761689000006,190,26,male,True,7619,7628,False,False,expiration,inspiration
240,0.06783578991704231,25,up,up,1.4452697999950033,0.7009046139080862,,experiment,cRDM,0.0,,,,763.8427478999948,190,26,male,True,7638,7652,False,False,inspiration,expiration
241,0.06783578991704231,25,down,up,1.63601999997627,1.4168995838641725,,experiment,cRDM,0.0,,,,766.9759909000131,190,26,male,True,7669,7685,False,False,expiration,inspiration
242,0.06783578991704231,25,down,down,1.6832051999808757,1.2403287800753136,,experiment,cRDM,0.0,,,,770.125852600002,190,26,male,True,7701,7718,False,False,inspiration,expiration
243,0.06783578991704231,25,down,up,1.3833042999904137,1.1037739176897765,,experiment,cRDM,0.0,,,,773.1757588000038,190,26,male,True,7731,7745,False,False,expiration,expiration
244,0.06783578991704231,25,up,up,1.4396552999969572,1.0159879252687298,,experiment,cRDM,0.0,,,,775.8423832000118,190,26,male,True,7758,7772,False,False,inspiration,expiration
245,0.06783578991704231,25,down,down,0.9385688999900594,1.9794274200427373,,experiment,cRDM,0.0,,,,779.525474299997,190,26,male,True,7795,7804,False,False,expiration,inspiration
246,0.06783578991704231,25,up,up,0.8962768000201322,1.6702829805816697,,experiment,cRDM,0.0,,,,782.4087829999918,190,26,male,True,7823,7832,False,False,expiration,expiration
247,0.06783578991704231,25,up,down,1.3736888999992516,1.0093309525497427,,experiment,cRDM,0.0,,,,784.5753513000092,190,26,male,True,7845,7859,False,False,expiration,inspiration
248,0.06783578991704231,25,down,up,0.9741147000167985,0.6206677883968791,,experiment,cRDM,0.0,,,,786.8419224999961,190,26,male,True,7868,7878,False,False,inspiration,peak
249,0.06783578991704231,25,up,down,1.6225026000174694,0.5754642846077682,,experiment,cRDM,0.0,,,,788.6585158999951,190,26,male,True,7886,7902,False,False,expiration,expiration
250,0.06783578991704231,25,down,up,0.96997440000996,1.2411304427719572,,experiment,cRDM,0.0,,,,791.7750738000032,190,26,male,True,7917,7927,False,False,inspiration,inspiration
251,0.06783578991704231,25,up,down,1.3767687999934424,1.7131417324884723,,experiment,cRDM,0.0,,,,794.7082670000092,190,26,male,True,7946,7960,False,False,expiration,expiration
252,0.06783578991704231,25,down,up,1.27549159998307,0.6393763119219974,,experiment,cRDM,0.0,,,,796.9915391000104,190,26,male,True,7969,7982,False,False,expiration,trough
253,0.06783578991704231,25,up,up,1.0328549999976528,0.8188161604168069,,experiment,cRDM,0.0,,,,799.3581715000038,190,26,male,True,7993,8003,False,False,inspiration,expiration
254,0.06783578991704231,25,down,down,1.0340065000054892,0.9587448344744928,,experiment,cRDM,0.0,,,,801.6080214999965,190,26,male,True,8015,8025,False,False,inspiration,inspiration
255,0.06783578991704231,25,down,up,1.2294580999878235,0.3167629530177636,,experiment,cRDM,0.0,,,,803.2246098000032,190,26,male,True,8032,8044,False,False,expiration,expiration
256,0.06783578991704231,25,down,down,1.3124928000033833,0.8542177072876216,,experiment,cRDM,0.0,,,,805.5745618999936,190,26,male,True,8055,8068,False,False,expiration,expiration
257,0.06783578991704231,25,down,up,0.9301984000194352,0.7029467136196073,,experiment,cRDM,0.0,,,,807.857829399989,190,26,male,True,8078,8087,False,False,inspiration,inspiration
258,0.06783578991704231,25,down,up,1.0035689999931492,0.5616279778498131,,experiment,cRDM,0.0,,,,809.6244414999965,190,26,male,True,8096,8106,False,False,expiration,expiration
259,0.06783578991704231,25,up,up,1.1306903999939095,0.4377356985728131,,experiment,cRDM,0.0,,,,811.324337900005,190,26,male,True,8113,8124,False,False,expiration,expiration
260,0.06783578991704231,25,up,down,0.7397898999915924,1.2145985560021506,,experiment,cRDM,0.0,,,,813.9242384000099,190,26,male,True,8139,8146,False,False,inspiration,expiration
261,0.06783578991704231,25,up,up,0.9561701999919024,0.6186953437797658,,experiment,cRDM,0.0,,,,815.5408588999999,190,26,male,True,8155,8165,False,False,expiration,expiration
262,0.06783578991704231,25,up,down,1.1188684000226203,0.9935037474079544,,experiment,cRDM,0.0,,,,817.7741171999951,190,26,male,True,8177,8188,False,False,inspiration,inspiration
263,93.0,25,M,down,0.8410675999766681,0.6946435811152762,,experiment,emotion,0.0,,,,823.0239630000142,190,26,male,True,8230,8238,False,False,inspiration,expiration
264,84.0,25,M,down,0.7105295000073966,1.0971566960193309,,experiment,emotion,0.0,,,,825.2404933999933,190,26,male,True,8252,8259,False,False,expiration,inspiration
265,90.0,25,F,down,0.7235451000160538,1.7581412900589442,,experiment,emotion,0.0,,,,828.0404833999927,190,26,male,True,8280,8287,False,False,expiration,expiration
266,93.0,25,F,up,1.0165935999830251,0.5497156820036011,,experiment,emotion,0.0,,,,829.5904266000142,190,26,male,True,8295,8305,False,False,expiration,inspiration
267,90.0,25,M,down,0.8226605000090785,0.4149806055876677,,experiment,emotion,0.0,,,,831.2903661000017,190,26,male,True,8312,8320,False,False,inspiration,inspiration
268,87.0,25,F,down,0.86539960000664,1.0335401205955699,,experiment,emotion,0.0,,,,833.4736018000112,190,26,male,True,8334,8343,False,False,expiration,expiration
269,84.0,25,M,down,0.7618122999847401,0.7301646969531412,,experiment,emotion,0.0,,,,835.3402310000093,190,26,male,True,8353,8361,False,False,expiration,expiration
270,87.0,25,M,down,0.8132449999975506,0.5430960650645117,,experiment,emotion,0.0,,,,836.906781800004,190,26,male,True,8368,8376,False,False,expiration,inspiration
271,93.0,25,F,up,1.1403617000032682,1.017024930602838,,experiment,emotion,0.0,,,,839.0067097000137,190,26,male,True,8389,8400,False,False,inspiration,expiration
272,87.0,25,F,down,0.7203938000020571,1.7797353801684028,,experiment,emotion,0.0,,,,842.2066130999882,190,26,male,True,8421,8428,False,False,expiration,expiration
273,90.0,25,F,up,1.2331091000232846,0.5088101468144415,,experiment,emotion,0.0,,,,843.6899154999992,190,26,male,True,8436,8448,False,False,inspiration,inspiration
274,93.0,25,F,up,1.5075526000000536,1.65779181568171,,experiment,emotion,0.0,,,,846.8564566000133,190,26,male,True,8468,8483,False,False,expiration,expiration
275,90.0,25,F,down,0.8801324999949429,1.4483481302542898,,experiment,emotion,0.0,,,,850.0729384000006,190,26,male,True,8500,8509,False,False,trough,inspiration
276,84.0,25,F,down,0.7697826999938115,1.272639162326747,,experiment,emotion,0.0,,,,852.5062404999918,190,26,male,True,8524,8532,False,False,expiration,expiration
277,87.0,25,M,down,0.841540299996268,1.2398728170202995,,experiment,emotion,0.0,,,,854.789481499989,190,26,male,True,8547,8555,False,False,expiration,inspiration
278,84.0,25,M,down,1.133331699995324,1.1716884935331668,,experiment,emotion,0.0,,,,857.0727456999884,190,26,male,True,8570,8581,False,False,expiration,expiration
279,93.0,25,M,down,1.104404199984856,1.28763977074262,,experiment,emotion,0.0,,,,859.7726440000115,190,26,male,True,8597,8608,False,False,inspiration,expiration
280,84.0,25,M,down,0.8648164999904111,1.6821533992504878,,experiment,emotion,0.0,,,,862.8392079999902,190,26,male,True,8628,8637,False,False,inspiration,inspiration
281,90.0,25,F,down,0.7815678000042681,1.0952791527375048,,experiment,emotion,0.0,,,,865.0724563999976,190,26,male,True,8650,8658,False,False,inspiration,expiration
282,90.0,25,M,up,1.0243046999967191,1.021359914339493,,experiment,emotion,0.0,,,,867.1557049000113,190,26,male,True,8671,8681,False,False,expiration,inspiration
283,87.0,25,M,up,0.9564483999856748,1.5467278963755446,,experiment,emotion,0.0,,,,870.0055326999865,190,26,male,True,8699,8709,False,False,inspiration,expiration
284,87.0,25,F,down,0.9695484999974724,1.9610071914654224,,experiment,emotion,0.0,,,,873.2054744999913,190,26,male,True,8731,8741,False,False,expiration,inspiration
285,84.0,25,M,up,1.7019532000122126,0.6901120448331588,,experiment,emotion,0.0,,,,875.122057200002,190,26,male,True,8751,8768,False,False,inspiration,expiration
286,93.0,25,F,up,0.9375184999953491,1.9895468518087127,,experiment,emotion,0.0,,,,879.0885374000062,190,26,male,True,8790,8799,False,False,expiration,inspiration
287,90.0,25,F,down,0.794864299998153,1.16451762269878,,experiment,emotion,0.0,,,,881.4551783000061,190,26,male,True,8814,8822,False,False,inspiration,expiration
288,84.0,25,M,up,1.4025780000083614,0.7328959669254467,,experiment,emotion,0.0,,,,883.2884400000038,190,26,male,True,8832,8846,False,False,expiration,expiration
289,93.0,25,M,down,0.7737007000250742,1.4191598028887018,,experiment,emotion,0.0,,,,886.3883199999983,190,26,male,True,8863,8871,False,False,inspiration,expiration
290,93.0,25,F,up,0.8751163000124507,0.7353870607411066,,experiment,emotion,0.0,,,,888.1549087000021,190,26,male,True,8881,8890,False,False,expiration,expiration
291,87.0,25,M,up,1.4125395999872126,1.4716197023129358,,experiment,emotion,0.0,,,,890.7714939000142,190,26,male,True,8907,8921,False,False,inspiration,inspiration
292,84.0,25,F,down,0.9269815000006928,1.4770362436952102,,experiment,emotion,0.0,,,,893.9380540999991,190,26,male,True,8939,8948,False,False,expiration,expiration
293,87.0,25,F,down,0.7260808999999426,1.8567358468761357,,experiment,emotion,0.0,,,,896.9879222000017,190,26,male,True,8969,8976,False,False,expiration,expiration
294,90.0,25,F,down,1.0241556000255514,0.4669041755149091,,experiment,emotion,0.0,,,,898.4878870999963,190,26,male,True,8984,8994,False,False,inspiration,inspiration
295,84.0,25,M,down,0.7589606999827083,1.8507392584922082,,experiment,emotion,0.0,,,,901.6210609000118,190,26,male,True,9016,9024,False,False,expiration,inspiration
296,93.0,25,M,up,0.8296682000218425,0.6996938622049458,,experiment,emotion,0.0,,,,903.3543820999913,190,26,male,True,9033,9041,False,False,inspiration,inspiration
297,90.0,25,M,down,0.6504349000169896,0.8805093474410504,,experiment,emotion,0.0,,,,905.3375812000012,190,26,male,True,9053,9060,False,False,expiration,expiration
298,93.0,25,F,up,0.8887583000177983,0.6006144432307557,,experiment,emotion,0.0,,,,906.8542269000028,190,26,male,True,9068,9077,False,False,expiration,expiration
299,84.0,25,F,down,0.7802307000092696,1.9077607835796695,,experiment,emotion,0.0,,,,909.9207795000112,190,26,male,True,9098,9106,False,False,expiration,expiration
300,90.0,25,M,down,1.130625300022075,0.52555552033605,,experiment,emotion,0.0,,,,911.487405699998,190,26,male,True,9114,9125,False,False,expiration,inspiration
301,87.0,25,F,down,0.6969919000111986,0.3518487351905561,,experiment,emotion,0.0,,,,913.2540210000006,190,26,male,True,9132,9139,False,False,inspiration,inspiration
302,87.0,25,M,down,0.8450780000130179,0.8939357055038193,,experiment,emotion,0.0,,,,915.1039358999988,190,26,male,True,9150,9158,False,False,expiration,expiration
303,90.0,25,M,down,1.1122243000136225,1.9265112702997769,,experiment,emotion,0.0,,,,918.1538276000064,190,26,male,True,9181,9192,False,False,inspiration,expiration
304,93.0,25,M,down,0.7290182000142522,1.8451939685012064,,experiment,emotion,0.0,,,,921.3870396999993,190,26,male,True,9213,9220,False,False,inspiration,inspiration
305,87.0,25,F,down,0.8600116999878082,1.2056038815005383,,experiment,emotion,0.0,,,,923.5869444000128,190,26,male,True,9235,9244,False,False,expiration,inspiration
306,84.0,25,F,down,0.8678090999892447,1.0346677392340384,,experiment,emotion,0.0,,,,925.7702088000078,190,26,male,True,9257,9266,False,False,inspiration,expiration
307,84.0,25,M,down,0.7245572999818249,1.49386321752928,,experiment,emotion,0.0,,,,928.4034597999997,190,26,male,True,9283,9290,False,False,expiration,inspiration
308,87.0,25,F,down,1.2322876999969594,0.3965240086316717,,experiment,emotion,0.0,,,,929.7867247000104,190,26,male,True,9297,9309,False,False,inspiration,expiration
309,93.0,25,F,down,0.7323969999852125,1.5000302626063693,,experiment,emotion,0.0,,,,932.7866024000103,190,26,male,True,9327,9334,False,False,expiration,expiration
310,90.0,25,M,down,1.3085300000093412,1.442770507914396,,experiment,emotion,0.0,,,,935.2364839999935,190,26,male,True,9352,9365,False,False,inspiration,expiration
311,84.0,25,M,up,0.6646151999884751,1.8097378463611815,,experiment,emotion,0.0,,,,938.6364038999893,190,26,male,True,9386,9393,False,False,inspiration,inspiration
312,93.0,25,F,up,0.6300233000074513,0.6286136928962665,,experiment,emotion,0.0,,,,940.2030191000084,190,26,male,True,9401,9407,False,False,expiration,trough
313,90.0,25,M,up,0.5634251000010408,0.6068440412136731,,experiment,emotion,0.0,,,,941.719587300002,190,26,male,True,9416,9422,False,False,inspiration,inspiration
314,90.0,25,F,down,1.0061424000014083,1.8882130519691176,,experiment,emotion,0.0,,,,944.4528659000059,190,26,male,True,9444,9454,False,False,expiration,inspiration
315,84.0,25,F,up,0.964660500001628,1.4534839979884482,,experiment,emotion,0.0,,,,947.1694032000087,190,26,male,True,9471,9481,False,False,inspiration,inspiration
316,87.0,25,F,down,0.8753116999869235,0.9379341144869592,,experiment,emotion,0.0,,,,949.3526767000149,190,26,male,True,9493,9502,False,False,inspiration,expiration
317,93.0,25,M,down,0.8481949000270106,0.6443694603483472,,experiment,emotion,0.0,,,,951.1358342999885,190,26,male,True,9511,9519,False,False,expiration,expiration
318,87.0,25,M,down,0.8368456999887712,0.8198109007493763,,experiment,emotion,0.0,,,,953.0691949999893,190,26,male,True,9530,9538,False,False,expiration,inspiration
319,87.0,25,F,down,1.306192399992142,0.5564901667905252,,experiment,emotion,0.0,,,,954.7358129000058,190,26,male,True,9547,9560,False,False,inspiration,expiration
320,87.0,25,F,down,1.1026877999829594,1.9901462807651504,,experiment,emotion,0.0,,,,958.3023122999876,190,26,male,True,9582,9593,False,False,inspiration,inspiration
321,93.0,25,M,down,1.0487926999921908,1.5224660126805072,,experiment,emotion,0.0,,,,961.2022021999874,190,26,male,True,9611,9621,False,False,expiration,expiration
322,90.0,25,M,up,0.9758734999923036,0.6809586991012448,,experiment,emotion,0.0,,,,963.2021326000104,190,26,male,True,9631,9641,False,False,expiration,inspiration
323,84.0,25,M,down,0.9113016999908724,0.35753704849408824,,experiment,emotion,0.0,,,,964.8187086000107,190,26,male,True,9648,9657,False,False,inspiration,expiration
324,84.0,25,M,down,0.9473636999900918,0.7088968111949185,,experiment,emotion,0.0,,,,966.7186447000133,190,26,male,True,9667,9676,False,False,expiration,expiration
325,90.0,25,M,down,0.8488047000137158,1.0034670365761085,,experiment,emotion,0.0,,,,968.9352032000024,190,26,male,True,9689,9697,False,False,inspiration,inspiration
326,93.0,25,F,down,0.7267715000198223,0.4435550943018883,,experiment,emotion,0.0,,,,970.4852347999986,190,26,male,True,9704,9711,False,False,inspiration,expiration
327,93.0,25,F,down,0.8115511000214609,0.6437457741915007,,experiment,emotion,0.0,,,,972.1184604000008,190,26,male,True,9720,9728,False,False,expiration,expiration
328,84.0,25,M,down,0.7992896000214387,1.353414082486352,,experiment,emotion,0.0,,,,974.551747999998,190,26,male,True,9745,9753,False,False,inspiration,inspiration
329,93.0,25,F,down,0.6046691999945324,0.6965352493585789,,experiment,emotion,0.0,,,,976.3183344000136,190,26,male,True,9762,9768,False,False,expiration,expiration
330,87.0,25,F,down,0.6544069000228774,0.3481251870942716,,experiment,emotion,0.0,,,,977.5516287999927,190,26,male,True,9775,9782,False,False,expiration,trough
331,90.0,25,F,down,0.7111758000100963,1.8509836429236608,,experiment,emotion,0.0,,,,980.3348299000064,190,26,male,True,9803,9810,False,False,expiration,expiration
332,87.0,25,M,down,0.737532300001476,0.6431607514868234,,experiment,emotion,0.0,,,,981.9514871000138,190,26,male,True,9819,9826,False,False,expiration,expiration
333,84.0,25,F,down,0.8722783999983221,1.1355534632805753,,experiment,emotion,0.0,,,,984.0847259000003,190,26,male,True,9840,9849,False,False,inspiration,peak
334,90.0,25,F,down,0.9533483000122942,1.0683588001016742,,experiment,emotion,0.0,,,,986.2846518000006,190,26,male,True,9862,9872,False,False,expiration,expiration
335,87.0,25,F,down,0.8391231999848969,1.4573088867233104,,experiment,emotion,0.0,,,,988.9678844999872,190,26,male,True,9889,9897,False,False,inspiration,expiration
336,90.0,25,M,down,0.9235551000165289,0.3461461123146568,,experiment,emotion,0.0,,,,990.4344450999923,190,26,male,True,9904,9913,False,False,expiration,expiration
337,84.0,25,M,down,0.5627267000090797,1.415950444604381,,experiment,emotion,0.0,,,,993.034333699994,190,26,male,True,9930,9936,False,False,inspiration,inspiration
338,93.0,25,F,down,0.7526824999949895,0.4936295772778444,,experiment,emotion,0.0,,,,994.3843220999988,190,26,male,True,9943,9951,False,False,expiration,expiration
339,90.0,25,M,down,0.4764195999887306,0.996465065314038,,experiment,emotion,0.0,,,,996.4175889999897,190,26,male,True,9963,9968,False,False,expiration,inspiration
340,93.0,25,F,down,0.9928227000054904,1.322364551685118,,experiment,emotion,0.0,,,,998.4841804000024,190,26,male,True,9984,9994,False,False,expiration,expiration
341,84.0,25,M,down,0.9612270000216084,0.9106569453250768,,experiment,emotion,0.0,,,,1000.650777200004,190,26,male,True,10006,10016,False,False,expiration,inspiration
342,87.0,25,M,down,0.741325400013011,1.0549428336877988,,experiment,emotion,0.0,,,,1002.9507127999968,190,26,male,True,10029,10036,False,False,expiration,expiration
343,0.06783578991704231,25,up,up,1.2124263000150677,1.3615598516233491,,experiment,cRDM,1.0,,,,1012.6835976000003,190,26,male,True,10126,10138,False,False,expiration,inspiration
344,0.06783578991704231,25,up,up,0.8591927000088617,1.3930000516935666,,experiment,cRDM,1.0,,,,1015.5668575000017,190,26,male,True,10155,10164,False,False,inspiration,expiration
345,0.06783578991704231,25,down,down,0.5415810999984387,1.2020196131193253,,experiment,cRDM,1.0,,,,1017.8834267999921,190,26,male,True,10178,10183,False,False,expiration,expiration
346,0.06783578991704231,25,down,up,0.7410003999830224,1.4643101263329161,,experiment,cRDM,1.0,,,,1020.1500210000087,190,26,male,True,10201,10208,False,False,inspiration,expiration
347,0.06783578991704231,25,up,up,0.6070536999905016,0.34299040040479495,,experiment,cRDM,1.0,,,,1021.4999433000047,190,26,male,True,10214,10220,False,False,expiration,expiration
348,0.06783578991704231,25,down,down,0.8845001999870874,1.6431360885527704,,experiment,cRDM,1.0,,,,1024.0164907000144,190,26,male,True,10239,10248,False,False,inspiration,expiration
349,0.06783578991704231,25,up,up,0.6435350999818183,1.2035270053919962,,experiment,cRDM,1.0,,,,1026.3664393000074,190,26,male,True,10263,10269,False,False,expiration,expiration
350,0.06783578991704231,25,up,down,0.6866418000136036,0.8822799233231013,,experiment,cRDM,1.0,,,,1028.1663627999949,190,26,male,True,10281,10288,False,False,inspiration,inspiration
351,0.06783578991704231,25,down,down,0.6806673000101,0.4500077834025472,,experiment,cRDM,1.0,,,,1029.566314800002,190,26,male,True,10295,10302,False,False,expiration,expiration
352,0.06783578991704231,25,down,up,0.8994155999971554,0.982082459450399,,experiment,cRDM,1.0,,,,1031.4995657000106,190,26,male,True,10314,10323,False,False,inspiration,inspiration
353,0.06783578991704231,25,down,down,0.6798401999985799,0.9507738479561147,,experiment,cRDM,1.0,,,,1033.6161601000058,190,26,male,True,10336,10343,False,False,expiration,expiration
354,0.06783578991704231,25,down,up,0.8088922000024468,0.8071609093907979,,experiment,cRDM,1.0,,,,1035.3660956000092,190,26,male,True,10353,10361,False,False,expiration,inspiration
355,0.06783578991704231,25,down,down,0.6380316999857314,1.9194855784122928,,experiment,cRDM,1.0,,,,1038.3659886000096,190,26,male,True,10383,10389,False,False,expiration,expiration
356,0.06783578991704231,25,down,down,0.6317194000002928,1.4494827252542193,,experiment,cRDM,1.0,,,,1040.6992321000143,190,26,male,True,10406,10412,False,False,expiration,inspiration
357,0.06783578991704231,25,up,down,0.7515357999945991,0.5335493442793839,,experiment,cRDM,1.0,,,,1042.1325194000094,190,26,male,True,10421,10429,False,False,inspiration,expiration
358,0.06783578991704231,25,up,up,0.7265883999934886,1.8292728460912544,,experiment,cRDM,1.0,,,,1044.982411600009,190,26,male,True,10449,10456,False,False,expiration,inspiration
359,0.06783578991704231,25,up,up,0.7386320999939926,0.957159657020006,,experiment,cRDM,1.0,,,,1046.9323902000033,190,26,male,True,10469,10476,False,False,inspiration,expiration
360,0.06783578991704231,25,up,up,0.7344318999967072,1.331036635583447,,experiment,cRDM,1.0,,,,1049.2655959000112,190,26,male,True,10492,10499,False,False,expiration,inspiration
361,0.06783578991704231,25,down,down,0.6112236999906601,0.6356763290366825,,experiment,cRDM,1.0,,,,1050.8988618000003,190,26,male,True,10508,10514,False,False,inspiration,inspiration
362,0.06783578991704231,25,up,up,0.5718290999939201,0.5947453752708332,,experiment,cRDM,1.0,,,,1052.3821447000082,190,26,male,True,10523,10529,False,False,expiration,expiration
363,0.06783578991704231,25,up,down,0.7106352999981027,1.3504826079131385,,experiment,cRDM,1.0,,,,1054.565389700001,190,26,male,True,10545,10552,False,False,inspiration,inspiration
364,0.06783578991704231,25,down,down,0.6740172999852803,0.5460793060388686,,experiment,cRDM,1.0,,,,1056.081989600003,190,26,male,True,10560,10567,False,False,expiration,expiration
365,0.06783578991704231,25,up,up,0.6777404000167735,0.8873880865858899,,experiment,cRDM,1.0,,,,1057.9152512,190,26,male,True,10578,10585,False,False,expiration,inspiration
366,0.06783578991704231,25,down,down,0.6504163999925368,1.0016260231081353,,experiment,cRDM,1.0,,,,1059.8485713000118,190,26,male,True,10598,10605,False,False,inspiration,expiration
367,0.06783578991704231,25,down,up,0.7542239000031259,1.6294744621706554,,experiment,cRDM,1.0,,,,1062.3817682999943,190,26,male,True,10623,10631,False,False,expiration,expiration
368,0.06783578991704231,25,up,up,0.8460146999859717,0.8165090485617945,,experiment,cRDM,1.0,,,,1064.2150054000083,190,26,male,True,10641,10649,False,False,inspiration,peak
369,0.06783578991704231,25,up,up,0.7030670999956783,1.944870241234537,,experiment,cRDM,1.0,,,,1067.2649279999896,190,26,male,True,10672,10679,False,False,expiration,inspiration
370,0.06783578991704231,25,down,up,0.7191086999955587,1.5706480321570038,,experiment,cRDM,1.0,,,,1069.8148880999943,190,26,male,True,10697,10704,False,False,inspiration,expiration
371,0.06783578991704231,25,up,up,0.6558853999886196,0.6887721836981137,,experiment,cRDM,1.0,,,,1071.4981088000059,190,26,male,True,10714,10721,False,False,expiration,expiration
372,0.06783578991704231,25,down,up,0.6813212999841198,1.4139555130831214,,experiment,cRDM,1.0,,,,1073.8146684000094,190,26,male,True,10737,10744,False,False,inspiration,peak
373,0.06783578991704231,25,down,up,0.8580423000094015,0.8358764498049045,,experiment,cRDM,1.0,,,,1075.5979389999993,190,26,male,True,10755,10764,False,False,expiration,expiration
374,0.06783578991704231,25,down,up,0.8078426000138279,1.60599217783564,,experiment,cRDM,1.0,,,,1078.3311782999954,190,26,male,True,10783,10791,False,False,peak,inspiration
375,0.06783578991704231,25,up,down,1.1792413000075612,0.8884330799922602,,experiment,cRDM,1.0,,,,1080.2977812000026,190,26,male,True,10802,10814,False,False,inspiration,expiration
376,0.06783578991704231,25,up,up,0.8930971999943722,1.1864077336077197,,experiment,cRDM,1.0,,,,1082.9309876000045,190,26,male,True,10829,10838,False,False,expiration,inspiration
377,0.06783578991704231,25,up,up,0.7597561000147834,1.1674192347251422,,experiment,cRDM,1.0,,,,1085.2642336999997,190,26,male,True,10852,10860,False,False,inspiration,expiration
378,0.06783578991704231,25,down,down,1.2308368999802042,1.4267670528467784,,experiment,cRDM,1.0,,,,1087.7141492000085,190,26,male,True,10876,10888,False,False,expiration,expiration
379,0.06783578991704231,25,down,down,1.6809193999797571,0.9693441293130542,,experiment,cRDM,1.0,,,,1090.164082800009,190,26,male,True,10901,10918,False,False,inspiration,expiration
380,0.06783578991704231,25,up,up,1.1063475999981165,1.1769767015508288,,experiment,cRDM,1.0,,,,1093.2806398000102,190,26,male,True,10932,10943,False,False,expiration,expiration
381,0.06783578991704231,25,down,up,0.9748204000061378,1.8518780056556017,,experiment,cRDM,1.0,,,,1096.497166999994,190,26,male,True,10964,10974,False,False,inspiration,expiration
382,0.06783578991704231,25,up,up,0.8895449000119697,0.40202310745478864,,experiment,cRDM,1.0,,,,1098.1304466,190,26,male,True,10981,10990,False,False,expiration,expiration
383,0.06783578991704231,25,up,up,0.7183205999899656,1.7851652282550212,,experiment,cRDM,1.0,,,,1101.0636789000127,190,26,male,True,11010,11017,False,False,inspiration,expiration
384,0.06783578991704231,25,up,up,0.7437799999897834,1.1362549924731613,,experiment,cRDM,1.0,,,,1103.1802645999996,190,26,male,True,11031,11038,False,False,trough,inspiration
385,0.06783578991704231,25,down,up,0.7455384999921079,0.5240407843847644,,experiment,cRDM,1.0,,,,1104.7134577000106,190,26,male,True,11047,11054,False,False,inspiration,inspiration
386,0.06783578991704231,25,down,,,0.7046305448741096,,experiment,cRDM,1.0,,,,1106.430184900004,190,26,male,True,11064,0,False,False,expiration,0
387,0.06783578991704231,25,up,up,1.002379599987762,1.9264125771549865,,experiment,cRDM,1.0,,,,1111.046643700014,190,26,male,True,11110,11120,False,False,expiration,inspiration
388,0.06783578991704231,25,down,down,0.8161479999835137,1.6752480903285076,,experiment,cRDM,1.0,,,,1113.9798652000027,190,26,male,True,11139,11147,False,False,inspiration,expiration
389,0.06783578991704231,25,down,up,0.7099509999970905,1.1496951764346963,,experiment,cRDM,1.0,,,,1116.2131004999974,190,26,male,True,11162,11169,False,False,expiration,expiration
390,0.06783578991704231,25,up,down,0.8552845999947749,1.3920165802733573,,experiment,cRDM,1.0,,,,1118.579698799993,190,26,male,True,11185,11194,False,False,expiration,inspiration
391,0.06783578991704231,25,up,up,0.9330512000015004,1.5686307203256251,,experiment,cRDM,1.0,,,,1121.2629312000065,190,26,male,True,11212,11221,False,False,expiration,expiration
392,0.06783578991704231,25,down,up,0.7394834999868181,1.7179206628180501,,experiment,cRDM,1.0,,,,1124.1794941000117,190,26,male,True,11241,11248,False,False,inspiration,inspiration
393,0.06783578991704231,25,up,up,0.6173218000039924,1.5141323397572173,,experiment,cRDM,1.0,,,,1126.7126796999944,190,26,male,True,11267,11273,False,False,expiration,expiration
394,0.06783578991704231,25,down,up,0.7707365999813192,1.4826372683229294,,experiment,cRDM,1.0,,,,1129.07931619999,190,26,male,True,11290,11298,False,False,inspiration,expiration
395,0.06783578991704231,25,down,down,1.0684394999989308,0.5059426056659256,,experiment,cRDM,1.0,,,,1130.6125685999866,190,26,male,True,11306,11317,False,False,expiration,inspiration
396,0.06783578991704231,25,down,down,1.005170399992494,1.365227094742019,,experiment,cRDM,1.0,,,,1133.2958004999964,190,26,male,True,11332,11342,False,False,inspiration,expiration
397,0.06783578991704231,25,up,up,0.8113027999934275,1.3278689934029495,,experiment,cRDM,1.0,,,,1135.8957062000118,190,26,male,True,11358,11366,False,False,expiration,expiration
398,0.06783578991704231,25,up,up,0.9303478000219912,1.1798681347134952,,experiment,cRDM,1.0,,,,1138.1456464999935,190,26,male,True,11381,11390,False,False,inspiration,inspiration
399,0.06783578991704231,25,down,down,0.8690088999865111,0.30023275927484266,,experiment,cRDM,1.0,,,,1139.6289680000045,190,26,male,True,11396,11405,False,False,expiration,expiration
400,0.06783578991704231,25,down,down,1.3134682000090834,0.3751920120307143,,experiment,cRDM,1.0,,,,1141.1455314999912,190,26,male,True,11411,11424,False,False,expiration,expiration
401,0.06783578991704231,25,up,up,0.8002477000118233,1.907172411902084,,experiment,cRDM,1.0,,,,1144.628736499988,190,26,male,True,11446,11454,False,False,inspiration,expiration
402,0.06783578991704231,25,up,down,0.7673662999877706,1.4421992702227011,,experiment,cRDM,1.0,,,,1147.1285971000036,190,26,male,True,11471,11479,False,False,expiration,inspiration
403,0.06783578991704231,25,up,up,0.8513672999979462,0.676394036268444,,experiment,cRDM,1.0,,,,1148.8285947999975,190,26,male,True,11488,11497,False,False,inspiration,expiration
404,0.06783578991704231,25,up,down,0.6324058000172954,1.1832618911345594,,experiment,cRDM,1.0,,,,1151.1286346999989,190,26,male,True,11511,11517,False,False,expiration,inspiration
405,0.06783578991704231,25,up,up,1.2074796999804676,0.5510915486062411,,experiment,cRDM,1.0,,,,1152.5784629000118,190,26,male,True,11525,11537,False,False,inspiration,expiration
406,0.06783578991704231,25,down,down,0.7206196000042837,1.0841836027940666,,experiment,cRDM,1.0,,,,1155.1283546999914,190,26,male,True,11551,11558,False,False,expiration,inspiration
407,0.06783578991704231,25,down,up,1.0466829000215512,0.4062977235352136,,experiment,cRDM,1.0,,,,1156.5282978999894,190,26,male,True,11565,11575,False,False,inspiration,expiration
408,0.06783578991704231,25,up,up,0.8941040999779943,0.7013506047093125,,experiment,cRDM,1.0,,,,1158.5448622000113,190,26,male,True,11585,11594,False,False,expiration,expiration
409,0.06783578991704231,25,down,down,0.7248060999845619,1.5145984454445611,,experiment,cRDM,1.0,,,,1161.2281467000141,190,26,male,True,11612,11619,False,False,inspiration,expiration
410,0.06783578991704231,25,down,up,0.7299468000128401,0.32414300958607634,,experiment,cRDM,1.0,,,,1162.528077199997,190,26,male,True,11625,11632,False,False,expiration,expiration
411,0.06783578991704231,25,down,down,0.7533082999871112,1.3196279590444908,,experiment,cRDM,1.0,,,,1164.8446674000004,190,26,male,True,11648,11656,False,False,expiration,inspiration
412,0.06783578991704231,25,up,down,1.223053900001105,1.2215030717362618,,experiment,cRDM,1.0,,,,1167.0779081000073,190,26,male,True,11670,11682,False,False,peak,expiration
413,0.06783578991704231,25,down,down,0.6871574000106193,1.019907808745659,,experiment,cRDM,1.0,,,,1169.5778271000015,190,26,male,True,11695,11702,False,False,expiration,inspiration
414,0.06783578991704231,25,down,down,0.6489010999794118,1.286136526643321,,experiment,cRDM,1.0,,,,1171.8110523000066,190,26,male,True,11717,11723,False,False,inspiration,inspiration
415,0.06783578991704231,25,down,up,0.9079721999878531,0.9416420645624072,,experiment,cRDM,1.0,,,,1173.661004900001,190,26,male,True,11736,11745,False,False,inspiration,inspiration
416,0.06783578991704231,25,up,up,0.6940876999869943,1.0806634026366244,,experiment,cRDM,1.0,,,,1175.9109014999995,190,26,male,True,11758,11765,False,False,inspiration,expiration
417,0.06783578991704231,25,up,down,0.7747466999862809,0.5837196160210353,,experiment,cRDM,1.0,,,,1177.4442328999867,190,26,male,True,11774,11782,False,False,expiration,expiration
418,0.06783578991704231,25,down,up,1.1675122999877203,0.641874293049016,,experiment,cRDM,1.0,,,,1179.127462000004,190,26,male,True,11791,11803,False,False,expiration,expiration
419,0.06783578991704231,25,up,up,0.6466164999874309,1.5373392910503745,,experiment,cRDM,1.0,,,,1182.0773662000138,190,26,male,True,11820,11826,False,False,inspiration,inspiration
420,0.06783578991704231,25,down,up,1.0163765999895986,1.2202755724271968,,experiment,cRDM,1.0,,,,1184.210605500004,190,26,male,True,11842,11852,False,False,expiration,expiration
421,0.06783578991704231,25,up,up,0.6784581000101753,1.8599919206372588,,experiment,cRDM,1.0,,,,1187.3604947999993,190,26,male,True,11873,11880,False,False,expiration,expiration
422,0.06783578991704231,25,up,up,0.7152950000017881,0.7333478677619543,,experiment,cRDM,1.0,,,,1189.0438205999965,190,26,male,True,11890,11897,False,False,expiration,inspiration
423,93.0,25,M,down,1.1570315999852028,1.9721455597269528,,experiment,emotion,1.0,,,,1211.992961400014,190,26,male,True,12119,12131,False,False,inspiration,expiration
424,84.0,25,M,down,0.616756000003079,0.9380955585322276,,experiment,emotion,1.0,,,,1214.3762311000028,190,26,male,True,12143,12149,False,False,inspiration,inspiration
425,90.0,25,F,down,0.932227800018154,1.8259422693768772,,experiment,emotion,1.0,,,,1217.0928015999962,190,26,male,True,12170,12179,False,False,inspiration,expiration
426,93.0,25,F,up,0.5219674000109079,0.7641431715935048,,experiment,emotion,1.0,,,,1219.0760619000066,190,26,male,True,12190,12195,False,False,expiration,expiration
427,90.0,25,M,down,0.8052888999809511,0.8929906563421061,,experiment,emotion,1.0,,,,1220.742682000011,190,26,male,True,12207,12215,False,False,expiration,expiration
428,87.0,25,F,down,0.6759562999941409,0.590228327035049,,experiment,emotion,1.0,,,,1222.4259483999922,190,26,male,True,12224,12231,False,False,expiration,expiration
429,84.0,25,M,down,0.6715203000057954,1.9514907066020597,,experiment,emotion,1.0,,,,1225.342453899997,190,26,male,True,12253,12260,False,False,inspiration,inspiration
430,87.0,25,M,down,0.7769743000098969,1.8258060534204208,,experiment,emotion,1.0,,,,1228.1090091000078,190,26,male,True,12281,12289,False,False,expiration,expiration
431,93.0,25,F,down,0.7663537000189535,1.7808445506793182,,experiment,emotion,1.0,,,,1230.9256358999992,190,26,male,True,12309,12317,False,False,expiration,inspiration
432,87.0,25,F,down,0.7204227999900468,0.9590337712133736,,experiment,emotion,1.0,,,,1232.9255460000134,190,26,male,True,12329,12336,False,False,inspiration,expiration
433,90.0,25,F,down,0.7308059999777471,0.5236408455055472,,experiment,emotion,1.0,,,,1234.442169099988,190,26,male,True,12344,12351,False,False,expiration,expiration
434,93.0,25,F,down,0.8268715000012891,1.307132062027772,,experiment,emotion,1.0,,,,1236.7420939999865,190,26,male,True,12367,12375,False,False,inspiration,expiration
435,90.0,25,F,down,0.6983051999995951,1.2280028577021531,,experiment,emotion,1.0,,,,1239.0586617999945,190,26,male,True,12390,12397,False,False,expiration,inspiration
436,84.0,25,F,down,0.6930456000263803,0.7381320283434136,,experiment,emotion,1.0,,,,1240.7919213999996,190,26,male,True,12407,12414,False,False,inspiration,peak
437,87.0,25,M,down,0.5724351000098977,0.4536112922589144,,experiment,emotion,1.0,,,,1242.2085213999962,190,26,male,True,12421,12427,False,False,expiration,expiration
438,84.0,25,M,down,0.6475068999861833,1.5125654016246113,,experiment,emotion,1.0,,,,1244.5584582999873,190,26,male,True,12445,12451,False,False,inspiration,inspiration
439,93.0,25,M,down,0.5656293999927584,1.7810892086921009,,experiment,emotion,1.0,,,,1247.2583424999902,190,26,male,True,12472,12478,False,False,expiration,expiration
440,84.0,25,M,down,0.5763646000123117,1.1852796495732694,,experiment,emotion,1.0,,,,1249.2916151999962,190,26,male,True,12492,12498,False,False,inspiration,inspiration
441,90.0,25,F,up,1.110690399975283,0.6210984098871843,,experiment,emotion,1.0,,,,1250.7582322999954,190,26,male,True,12507,12518,False,False,expiration,expiration
442,90.0,25,M,down,0.6741410999966321,0.7405048862381514,,experiment,emotion,1.0,,,,1252.8748237999969,190,26,male,True,12528,12535,False,False,inspiration,inspiration
443,87.0,25,M,up,0.8253426000010222,1.5984778998703466,,experiment,emotion,1.0,,,,1255.4246505000044,190,26,male,True,12554,12562,False,False,trough,inspiration
444,87.0,25,F,down,0.8266787999891676,1.8226603948519076,,experiment,emotion,1.0,,,,1258.3412948999905,190,26,male,True,12583,12591,False,False,expiration,expiration
445,84.0,25,M,down,1.0134488000185229,0.4266797634449416,,experiment,emotion,1.0,,,,1259.874549500004,190,26,male,True,12598,12608,False,False,expiration,trough
446,93.0,25,F,down,1.08652370001073,0.4165595050645661,,experiment,emotion,1.0,,,,1261.5744943000027,190,26,male,True,12615,12626,False,False,inspiration,inspiration
447,90.0,25,F,down,1.01420540001709,0.6252844304151735,,experiment,emotion,1.0,,,,1263.5577561999962,190,26,male,True,12635,12645,False,False,expiration,expiration
448,84.0,25,M,down,0.762934900005348,0.8752422169253244,,experiment,emotion,1.0,,,,1265.7410259000023,190,26,male,True,12657,12665,False,False,expiration,expiration
449,93.0,25,M,down,0.9994018999859692,1.5354796538891624,,experiment,emotion,1.0,,,,1268.3075609999942,190,26,male,True,12682,12692,False,False,inspiration,expiration
450,93.0,25,F,up,0.8048207999963779,0.8500622720935391,,experiment,emotion,1.0,,,,1270.4241429000106,190,26,male,True,12704,12712,False,False,expiration,expiration
451,87.0,25,M,down,0.8651691999984905,0.8185603803477106,,experiment,emotion,1.0,,,,1272.3407660000084,190,26,male,True,12723,12732,False,False,inspiration,inspiration
452,84.0,25,F,down,0.8615914999973029,0.5806340434531161,,experiment,emotion,1.0,,,,1274.0573743999996,190,26,male,True,12740,12749,False,False,expiration,expiration
453,87.0,25,F,down,0.9507167999981904,1.43062502107645,,experiment,emotion,1.0,,,,1276.6072465000036,190,26,male,True,12766,12776,False,False,expiration,inspiration
454,90.0,25,F,up,0.8904983999964315,1.9484284806355279,,experiment,emotion,1.0,,,,1279.7904694000024,190,26,male,True,12797,12806,False,False,expiration,expiration
455,84.0,25,M,down,0.7115634999936447,1.3068446471204875,,experiment,emotion,1.0,,,,1282.2404233000125,190,26,male,True,12822,12829,False,False,expiration,inspiration
456,93.0,25,M,up,0.8156191000016406,1.2238525033428995,,experiment,emotion,1.0,,,,1284.4903320999874,190,26,male,True,12844,12852,False,False,expiration,expiration
457,90.0,25,M,down,0.7634521999862045,0.8619260441205046,,experiment,emotion,1.0,,,,1286.4235000000044,190,26,male,True,12864,12872,False,False,inspiration,inspiration
458,93.0,25,F,up,0.9648048999952152,1.6716085726909098,,experiment,emotion,1.0,,,,1289.1401459999906,190,26,male,True,12891,12901,False,False,expiration,expiration
459,84.0,25,F,down,0.7359127999807242,1.6672674132256209,,experiment,emotion,1.0,,,,1292.0400549999906,190,26,male,True,12920,12927,False,False,inspiration,inspiration
460,90.0,25,M,down,0.755658800015226,1.3805146002076552,,experiment,emotion,1.0,,,,1294.423296299996,190,26,male,True,12944,12952,False,False,expiration,inspiration
461,87.0,25,F,down,1.4047841000137848,1.2145135090209094,,experiment,emotion,1.0,,,,1296.6732048999984,190,26,male,True,12966,12980,False,False,inspiration,expiration
462,87.0,25,M,down,0.8988320999778807,0.8715943235497539,,experiment,emotion,1.0,,,,1299.2231206000142,190,26,male,True,12992,13001,False,False,expiration,expiration
463,90.0,25,M,down,0.7889509000233375,1.9440483172421157,,experiment,emotion,1.0,,,,1302.3230033,190,26,male,True,13023,13031,False,False,inspiration,inspiration
464,93.0,25,M,down,0.8114250999933574,1.9857076873434305,,experiment,emotion,1.0,,,,1305.389528700005,190,26,male,True,13053,13061,False,False,expiration,trough
465,87.0,25,F,down,0.6831590000074357,0.9536770708028736,,experiment,emotion,1.0,,,,1307.422808000003,190,26,male,True,13074,13081,False,False,inspiration,expiration
466,84.0,25,F,down,0.7656085999915376,0.4974445407703234,,experiment,emotion,1.0,,,,1308.8893843000114,190,26,male,True,13088,13096,False,False,expiration,expiration
467,84.0,25,M,down,0.643597000016598,1.0098386353375106,,experiment,emotion,1.0,,,,1310.9393531999958,190,26,male,True,13109,13115,False,False,inspiration,inspiration
468,87.0,25,F,up,0.9960779000248294,1.9061607151640887,,experiment,emotion,1.0,,,,1313.755900499993,190,26,male,True,13137,13147,False,False,expiration,expiration
469,93.0,25,F,down,0.7524820000107866,1.1610922321393295,,experiment,emotion,1.0,,,,1316.1724628999946,190,26,male,True,13161,13169,False,False,expiration,inspiration
470,90.0,25,M,up,0.8175487999978941,1.4697529197532535,,experiment,emotion,1.0,,,,1318.672403900011,190,26,male,True,13186,13194,False,False,expiration,expiration
471,84.0,25,M,down,1.012275100016268,0.5933130776800752,,experiment,emotion,1.0,,,,1320.355679500004,190,26,male,True,13203,13213,False,False,inspiration,inspiration
472,93.0,25,F,down,0.9507555000018328,0.9831413442862456,,experiment,emotion,1.0,,,,1322.6222490000073,190,26,male,True,13226,13236,False,False,expiration,expiration
473,90.0,25,M,down,0.8164908000035211,1.6177779304253863,,experiment,emotion,1.0,,,,1325.4554587999885,190,26,male,True,13254,13262,False,False,inspiration,inspiration
474,90.0,25,F,down,0.7358636000135448,0.37568816127818416,,experiment,emotion,1.0,,,,1326.9220903000094,190,26,male,True,13269,13276,False,False,inspiration,expiration
475,84.0,25,F,up,0.6826735999784432,0.7835341162026233,,experiment,emotion,1.0,,,,1328.7053170000145,190,26,male,True,13287,13294,False,False,expiration,expiration
476,87.0,25,F,down,0.7693358000251465,1.2187625422369528,,experiment,emotion,1.0,,,,1330.8885988999973,190,26,male,True,13308,13316,False,False,expiration,inspiration
477,93.0,25,M,up,0.7707490000175312,0.93732926165817,,experiment,emotion,1.0,,,,1332.8551976000015,190,26,male,True,13328,13336,False,False,inspiration,expiration
478,87.0,25,M,down,0.7898443999874871,1.4106119062984066,,experiment,emotion,1.0,,,,1335.3050833999878,190,26,male,True,13353,13361,False,False,expiration,inspiration
479,87.0,25,F,up,0.8206214999954682,1.5390875530598958,,experiment,emotion,1.0,,,,1337.8883338999874,190,26,male,True,13378,13386,False,False,expiration,expiration
480,87.0,25,F,down,0.6936623000074178,0.5701760928877737,,experiment,emotion,1.0,,,,1339.5382830000015,190,26,male,True,13395,13402,False,False,expiration,expiration
481,93.0,25,M,down,0.7020582999975886,0.9596727249215592,,experiment,emotion,1.0,,,,1341.4548899999934,190,26,male,True,13414,13421,False,False,inspiration,inspiration
482,90.0,25,M,down,0.9219245999993292,1.4441731302298269,,experiment,emotion,1.0,,,,1343.888112399989,190,26,male,True,13438,13447,False,False,expiration,expiration
483,84.0,25,M,down,0.8379287999996451,1.112093870256769,,experiment,emotion,1.0,,,,1346.1880203000035,190,26,male,True,13461,13469,False,False,inspiration,inspiration
484,84.0,25,M,up,0.7473692000203299,1.7050427618037487,,experiment,emotion,1.0,,,,1349.0045839000086,190,26,male,True,13489,13496,False,False,expiration,expiration
485,90.0,25,M,down,0.7514523999998346,1.0811381409609158,,experiment,emotion,1.0,,,,1351.104518100008,190,26,male,True,13510,13518,False,False,expiration,expiration
486,93.0,25,F,down,0.9815094999794384,0.6666152175823342,,experiment,emotion,1.0,,,,1352.804468199989,190,26,male,True,13527,13537,False,False,inspiration,expiration
487,93.0,25,F,up,0.8535992999968585,1.3433015528311654,,experiment,emotion,1.0,,,,1355.4043464999995,190,26,male,True,13553,13562,False,False,expiration,inspiration
488,84.0,25,M,up,1.1801294999895615,0.8939411149340506,,experiment,emotion,1.0,,,,1357.4208522000115,190,26,male,True,13574,13586,False,False,inspiration,expiration
489,93.0,25,F,up,0.8727498000080232,1.1946834153967016,,experiment,emotion,1.0,,,,1360.0542025000032,190,26,male,True,13600,13609,False,False,expiration,inspiration
490,87.0,25,F,down,1.1034940000099596,0.7793795213120968,,experiment,emotion,1.0,,,,1361.9874566000074,190,26,male,True,13619,13630,False,False,inspiration,expiration
491,90.0,25,F,down,1.3089039000042249,0.575852405979738,,experiment,emotion,1.0,,,,1363.9540443999867,190,26,male,True,13639,13652,False,False,expiration,expiration
492,87.0,25,M,down,1.1206755000166595,0.6129124297204319,,experiment,emotion,1.0,,,,1366.1372697000045,190,26,male,True,13661,13672,False,False,inspiration,expiration
493,84.0,25,F,up,0.9690676000027452,1.261469228849824,,experiment,emotion,1.0,,,,1368.8038795999894,190,26,male,True,13688,13698,False,False,expiration,inspiration
494,90.0,25,F,down,0.7694596000073943,0.7315839190929896,,experiment,emotion,1.0,,,,1370.7704846000124,190,26,male,True,13707,13715,False,False,expiration,expiration
495,87.0,25,F,down,0.7928684000216891,0.6749372788098822,,experiment,emotion,1.0,,,,1372.4870846999984,190,26,male,True,13724,13732,False,False,expiration,inspiration
496,90.0,25,M,down,0.6663023000000976,0.6619171838483124,,experiment,emotion,1.0,,,,1374.203638100007,190,26,male,True,13741,13748,False,False,inspiration,peak
497,84.0,25,M,down,1.038990399974864,0.30622933978040634,,experiment,emotion,1.0,,,,1375.4369751999911,190,26,male,True,13754,13764,False,False,expiration,expiration
498,93.0,25,F,down,0.939756599982502,0.6764728291721291,,experiment,emotion,1.0,,,,1377.4202146999887,190,26,male,True,13774,13783,False,False,inspiration,inspiration
499,90.0,25,M,down,0.8261625999875832,0.7255973463536354,,experiment,emotion,1.0,,,,1379.336845100013,190,26,male,True,13793,13801,False,False,inspiration,expiration
500,93.0,25,F,down,0.8406029999896418,0.9612619987371536,,experiment,emotion,1.0,,,,1381.4033355000138,190,26,male,True,13814,13822,False,False,expiration,expiration
501,84.0,25,M,down,0.8776711000245996,1.6746406220147063,,experiment,emotion,1.0,,,,1384.2032493999868,190,26,male,True,13842,13851,False,False,inspiration,expiration
502,87.0,25,M,down,0.7447329999995418,1.2072967925709328,,experiment,emotion,1.0,,,,1386.5532071999914,190,26,male,True,13865,13872,False,False,expiration,inspiration
503,0.06783578991704231,25,up,up,1.075832300004549,1.982733420953776,,experiment,cRDM,2.0,,,,1397.9360661999967,190,26,male,True,13979,13990,False,False,expiration,expiration
504,0.06783578991704231,25,up,down,0.6429422000073828,0.461103475949099,,experiment,cRDM,2.0,,,,1399.735999299999,190,26,male,True,13997,14003,False,False,inspiration,inspiration
505,0.06783578991704231,25,down,up,0.6366776000068057,1.9457885651900528,,experiment,cRDM,2.0,,,,1402.5692342999973,190,26,male,True,14025,14031,False,False,expiration,expiration
506,0.06783578991704231,25,down,down,0.6714311999967322,0.7849324381685383,,experiment,cRDM,2.0,,,,1404.2525119000054,190,26,male,True,14042,14049,False,False,inspiration,inspiration
507,0.06783578991704231,25,up,up,0.7069001000199933,1.4800169300700632,,experiment,cRDM,2.0,,,,1406.6690760999918,190,26,male,True,14066,14073,False,False,expiration,expiration
508,0.06783578991704231,25,down,down,0.7235731999971904,0.3217447794572597,,experiment,cRDM,2.0,,,,1407.9523670999915,190,26,male,True,14079,14086,False,False,expiration,expiration
509,0.06783578991704231,25,up,up,0.5470384000218473,1.5731266899983551,,experiment,cRDM,2.0,,,,1410.518960699992,190,26,male,True,14105,14110,False,False,expiration,expiration
510,0.06783578991704231,25,up,up,0.6950866999977734,1.0455294097602523,,experiment,cRDM,2.0,,,,1412.3688510000063,190,26,male,True,14123,14130,False,False,inspiration,inspiration
511,0.06783578991704231,25,down,down,0.6875051000097301,1.913285118157424,,experiment,cRDM,2.0,,,,1415.2354305000047,190,26,male,True,14152,14159,False,False,expiration,expiration
512,0.06783578991704231,25,down,down,0.7596047999977601,0.602869931616227,,experiment,cRDM,2.0,,,,1416.7853553000025,190,26,male,True,14167,14175,False,False,expiration,expiration
513,0.06783578991704231,25,down,up,1.1709675999882163,0.4522555330560194,,experiment,cRDM,2.0,,,,1418.2519724000013,190,26,male,True,14182,14194,False,False,inspiration,expiration
514,0.06783578991704231,25,down,up,0.7637633999984246,1.3893578062605256,,experiment,cRDM,2.0,,,,1421.0851870999904,190,26,male,True,14210,14218,False,False,expiration,inspiration
515,0.06783578991704231,25,down,down,0.6758373000193387,1.2794927217188201,,experiment,cRDM,2.0,,,,1423.385108699993,190,26,male,True,14233,14240,False,False,inspiration,expiration
516,0.06783578991704231,25,down,down,0.6762163000239525,1.5356478622663792,,experiment,cRDM,2.0,,,,1425.8517217999906,190,26,male,True,14258,14265,False,False,inspiration,inspiration
517,0.06783578991704231,25,up,up,0.8183423999871593,1.4158472112343237,,experiment,cRDM,2.0,,,,1428.2015974000094,190,26,male,True,14282,14290,False,False,expiration,expiration
518,0.06783578991704231,25,up,up,0.7560418000211939,0.5971412223220849,,experiment,cRDM,2.0,,,,1429.8848639999924,190,26,male,True,14298,14306,False,False,expiration,expiration
519,0.06783578991704231,25,up,up,0.6801426000020001,1.82156807101108,,experiment,cRDM,2.0,,,,1432.7347975999876,190,26,male,True,14327,14334,False,False,trough,inspiration
520,0.06783578991704231,25,up,up,0.7372073000005912,0.3028506019997579,,experiment,cRDM,2.0,,,,1433.9847202000092,190,26,male,True,14339,14346,False,False,inspiration,inspiration
521,0.06783578991704231,25,down,down,0.6116521999938414,1.6810179681970956,,experiment,cRDM,2.0,,,,1436.6512855000033,190,26,male,True,14366,14372,False,False,expiration,expiration
522,0.06783578991704231,25,up,up,0.7633945000125095,1.2069284719173012,,experiment,cRDM,2.0,,,,1438.7345625000016,190,26,male,True,14387,14395,False,False,expiration,expiration
523,0.06783578991704231,25,up,down,0.8188070000032894,1.6410859368287942,,experiment,cRDM,2.0,,,,1441.4011294000086,190,26,male,True,14414,14422,False,False,inspiration,expiration
524,0.06783578991704231,25,down,down,0.7028634999878705,0.8143712561912559,,experiment,cRDM,2.0,,,,1443.301049600006,190,26,male,True,14433,14440,False,False,expiration,expiration
525,0.06783578991704231,25,up,up,0.6642904999898747,1.403256446812739,,experiment,cRDM,2.0,,,,1445.6676447000063,190,26,male,True,14456,14463,False,False,inspiration,inspiration
526,0.06783578991704231,25,down,down,0.5753346999990754,0.7177541856647593,,experiment,cRDM,2.0,,,,1447.317590199993,190,26,male,True,14473,14479,False,False,peak,expiration
527,0.06783578991704231,25,down,up,0.6134768000047188,1.9217632983750157,,experiment,cRDM,2.0,,,,1450.067484900006,190,26,male,True,14500,14506,False,False,expiration,expiration
528,0.06783578991704231,25,up,up,0.7075898000039159,1.7641301619572036,,experiment,cRDM,2.0,,,,1452.7173691999924,190,26,male,True,14527,14534,False,False,inspiration,expiration
529,0.06783578991704231,25,up,up,0.7289541000209283,1.2586296795426408,,experiment,cRDM,2.0,,,,1454.9339977999914,190,26,male,True,14549,14556,False,False,expiration,expiration
530,0.06783578991704231,25,down,down,0.7880244999832939,0.6491655268828393,,experiment,cRDM,2.0,,,,1456.5839245000095,190,26,male,True,14565,14573,False,False,inspiration,inspiration
531,0.06783578991704231,25,up,up,0.5871537999773864,0.5959389206345462,,experiment,cRDM,2.0,,,,1458.2338076999874,190,26,male,True,14582,14588,False,False,inspiration,inspiration
532,0.06783578991704231,25,down,down,0.7914700999972409,0.4725939510964887,,experiment,cRDM,2.0,,,,1459.5504575000086,190,26,male,True,14595,14603,False,False,expiration,expiration
533,0.06783578991704231,25,down,up,0.6645625999954063,1.5391509977653195,,experiment,cRDM,2.0,,,,1462.1503729000103,190,26,male,True,14621,14628,False,False,inspiration,inspiration
534,0.06783578991704231,25,down,down,0.7106676000112202,1.8230460945779892,,experiment,cRDM,2.0,,,,1464.9002492,190,26,male,True,14649,14656,False,False,expiration,expiration
535,0.06783578991704231,25,up,up,0.5560091000224929,0.3008958577798605,,experiment,cRDM,2.0,,,,1466.1668897999914,190,26,male,True,14661,14667,False,False,expiration,expiration
536,0.06783578991704231,25,up,up,0.977521099994192,1.9061104968131235,,experiment,cRDM,2.0,,,,1468.883427599998,190,26,male,True,14688,14698,False,False,inspiration,expiration
537,0.06783578991704231,25,up,up,0.6665504999982659,0.9703827333476898,,experiment,cRDM,2.0,,,,1471.0833769000021,190,26,male,True,14710,14717,False,False,expiration,inspiration
538,0.06783578991704231,25,down,down,0.8195848999894224,1.6185687277057659,,experiment,cRDM,2.0,,,,1473.6333282999985,190,26,male,True,14736,14744,False,False,inspiration,expiration
539,0.06783578991704231,25,down,up,0.7540631000010762,1.4395371736957374,,experiment,cRDM,2.0,,,,1476.1498664999967,190,26,male,True,14761,14769,False,False,expiration,expiration
