,stimLvl,stimTime,rand,response,rt,precedingITI,trialNumber,trialType,stimuli,block,estIntens,estThres,estSlope,trialStart,subject,age,gender,headRest,onset,responsI,manBadOnset,manBadRespons,onset_phase,respons_phase
0,0.9,100,down,,,1.4474302061228592,,introTrial,cRDM,,,,,157.0868759000441,210,21,male,True,1570,0,False,False,expiration,0
1,150.0,100,F,,,1.4477906126369111,,introTrial,emotion,,,,,162.48697980004363,210,21,male,True,1624,0,False,False,expiration,0
2,0.9,25,down,down,0.5525184998987243,0.5478013681915054,,tutorial,cRDM,,,,,191.7857104999712,210,21,male,True,1917,1923,False,False,inspiration,inspiration
3,0.9,25,down,down,0.5666184000438079,1.4001916317708598,,tutorial,cRDM,,,,,194.03560750000184,210,21,male,True,1939,1945,False,False,expiration,expiration
4,0.9,25,up,up,0.5269470999483019,0.3897890051120998,,tutorial,cRDM,,,,,195.30221890006214,210,21,male,True,1952,1957,False,False,inspiration,inspiration
5,0.9,25,up,up,0.4867846000706777,0.989139092070534,,tutorial,cRDM,,,,,197.08544729999267,210,21,male,True,1970,1975,False,False,expiration,expiration
6,0.9,25,up,up,0.4214977999217808,0.7421521727055309,,tutorial,cRDM,,,,,198.5857054999797,210,21,male,True,1985,1989,False,False,inspiration,inspiration
7,0.9,25,up,up,0.42816439992748206,1.8697517109854052,,tutorial,cRDM,,,,,201.15199270006266,210,21,male,True,2010,2014,False,False,expiration,inspiration
8,0.9,25,down,down,0.4640469000441954,1.130443781920434,,tutorial,cRDM,,,,,202.98518590000458,210,21,male,True,2029,2034,False,False,expiration,expiration
9,0.9,25,up,up,0.4740534999873489,1.4897163724441032,,tutorial,cRDM,,,,,205.23519380006474,210,21,male,True,2051,2056,False,False,inspiration,peak
10,0.9,25,down,down,0.5627333000302315,0.6810920739922257,,tutorial,cRDM,,,,,206.66844879998825,210,21,male,True,2065,2071,False,False,expiration,expiration
11,0.9,25,down,down,0.4555481000570581,0.6000907688750163,,tutorial,cRDM,,,,,208.10173420002687,210,21,male,True,2080,2085,False,False,inspiration,inspiration
12,200.0,25,M,up,0.6279995999066159,1.0524737884284534,,tutorial,emotion,,,,,213.01823629997668,210,21,male,True,2129,2135,False,False,expiration,inspiration
13,200.0,25,M,up,0.4002187000587583,0.30137299999491424,,tutorial,emotion,,,,,214.23486450000198,210,21,male,True,2141,2145,False,False,inspiration,inspiration
14,200.0,25,F,up,0.4167984999949113,1.7570829108060937,,tutorial,emotion,,,,,216.70143949997143,210,21,male,True,2166,2170,False,False,inspiration,inspiration
15,0.0,25,F,down,0.4648033999837935,0.7149714645585521,,tutorial,emotion,,,,,218.15136620006524,210,21,male,True,2180,2185,False,False,expiration,expiration
16,0.0,25,M,down,0.4322224999777973,0.5584896649854358,,tutorial,emotion,,,,,219.46797390002757,210,21,male,True,2194,2198,False,False,expiration,inspiration
17,200.0,25,F,down,0.3337747999466956,0.3451064915875492,,tutorial,emotion,,,,,220.5346411999781,210,21,male,True,2204,2207,False,False,inspiration,peak
18,0.0,25,M,down,0.638014700030908,0.6758510179916921,,tutorial,emotion,,,,,221.90124979999385,210,21,male,True,2218,2224,False,False,expiration,expiration
19,200.0,25,M,up,0.5320829000556841,1.1132604322202528,,tutorial,emotion,,,,,223.95115470001477,210,21,male,True,2238,2243,False,False,expiration,expiration
20,0.0,25,F,down,0.5144742999691516,1.234613436058131,,tutorial,emotion,,,,,226.01772880007044,210,21,male,True,2259,2264,False,False,inspiration,inspiration
21,0.0,25,F,down,0.5241703999927267,0.7832069130521748,,tutorial,emotion,,,,,227.6010511000641,210,21,male,True,2275,2280,False,False,expiration,expiration
22,0.29,25,up,up,0.3838999998988584,1.0846075755460698,,psi_staircase_training,cRDM,,0.25,0.25693124029946324,0.10500000000000002,235.78406129998618,210,21,male,True,2357,2361,False,False,inspiration,inspiration
23,0.25,25,up,up,0.3674343000166118,0.9146304325008414,,psi_staircase_training,cRDM,,0.21910266653183127,0.2260132002683493,0.10468632033873933,237.4006760000484,210,21,male,True,2373,2377,False,False,expiration,expiration
24,0.21,25,down,up,0.33389780006837105,0.6685027009743691,,psi_staircase_training,cRDM,,0.1900540959403307,0.19684979615540016,0.10294672984249993,238.75059730000797,210,21,male,True,2386,2389,False,False,inspiration,inspiration
25,0.32,25,down,down,0.4710940000368282,1.522677413420665,,psi_staircase_training,cRDM,,0.28193877959813873,0.2893209636160949,0.11183125795615867,240.9671490000328,210,21,male,True,2409,2414,False,False,expiration,inspiration
26,0.29,25,up,up,0.5177386000286788,0.7787887597968486,,psi_staircase_training,cRDM,,0.25942687694212696,0.2667634756990502,0.11114069577656796,242.50047850003463,210,21,male,True,2424,2429,False,False,inspiration,expiration
27,0.27,25,down,down,0.6050971000222489,0.3751242762713892,,psi_staircase_training,cRDM,,0.23867195095052604,0.2458822432686335,0.10922730430510502,243.66710359998982,210,21,male,True,2436,2442,False,False,expiration,expiration
28,0.26,25,up,up,0.4002561999950558,1.000627643941561,,psi_staircase_training,cRDM,,0.22011578024889514,0.22717390155917144,0.1069220955499698,245.5503392000683,210,21,male,True,2454,2458,False,False,inspiration,inspiration
29,0.24,25,down,down,0.4168037000345066,1.1652998199994602,,psi_staircase_training,cRDM,,0.2041505375414391,0.21103014118178134,0.10421776637752347,247.41696499998216,210,21,male,True,2473,2477,False,False,expiration,expiration
30,0.2,25,down,,,1.3883634821536337,,psi_staircase_training,cRDM,,0.18886445544182692,0.19570804001934874,0.10367212065861199,249.50023110001348,210,21,male,True,2494,0,False,False,inspiration,0
31,0.2,25,down,down,0.4687745000701398,1.3883634821536337,,psi_staircase_training,cRDM,,0.18886445544182692,0.19570804001934874,0.10367212065861199,253.5834315000102,210,21,male,True,2535,2540,False,False,expiration,expiration
32,0.2,25,up,up,0.4208059000084177,0.4013283025946392,,psi_staircase_training,cRDM,,0.1705557926382123,0.17784973218897618,0.11049445982842553,254.7333844000241,210,21,male,True,2546,2550,False,False,expiration,expiration
33,0.19,25,down,down,0.4002653000643477,1.404704103492823,,psi_staircase_training,cRDM,,0.1533088738836659,0.16088341853737592,0.11474529150304325,256.83326370001305,210,21,male,True,2567,2571,False,False,expiration,expiration
34,0.18,25,down,down,0.5403648000210524,0.4783099641356374,,psi_staircase_training,cRDM,,0.13747146237482788,0.14519649428426112,0.117024993427699,257.9998862000648,210,21,male,True,2579,2584,False,False,expiration,inspiration
35,0.16,25,down,down,0.4002454000292346,1.409446122056478,,psi_staircase_training,cRDM,,0.1235084939531084,0.1312501447469713,0.11727674964876796,260.23315059999004,210,21,male,True,2601,2605,False,False,expiration,expiration
36,0.13,25,up,up,0.7414866000181064,1.7644631264686064,,psi_staircase_training,cRDM,,0.11100238590762823,0.11867092021163303,0.11616912228289887,262.69973820005544,210,21,male,True,2626,2633,False,False,inspiration,expiration
37,0.12,25,up,down,0.3838595999404788,1.27804110701881,,psi_staircase_training,cRDM,,0.09932153392740392,0.10688706081911878,0.11460868319506615,264.9996570000658,210,21,male,True,2649,2653,False,False,trough,inspiration
38,0.19,25,down,up,0.2838296999689192,1.0142517570722858,,psi_staircase_training,cRDM,,0.13619345675731073,0.14441555373858436,0.12455493472078652,266.7162549999776,210,21,male,True,2666,2669,False,False,expiration,expiration
39,0.2,25,down,down,0.4517348000081256,1.4768516910833502,,psi_staircase_training,cRDM,,0.17803029167937412,0.18656440305659816,0.1292815796153994,268.8995014000684,210,21,male,True,2688,2693,False,False,inspiration,expiration
40,0.2,25,up,up,0.5364630999974906,1.890661069659982,,psi_staircase_training,cRDM,,0.1652190428362556,0.17405893929749608,0.13391385788516486,271.5327335000038,210,21,male,True,2714,2719,False,False,inspiration,inspiration
41,0.19,25,up,down,0.3671785000478849,1.240611491459094,,psi_staircase_training,cRDM,,0.1537433083964162,0.16277201075273168,0.1367740413626314,273.56598990003107,210,21,male,True,2735,2739,False,False,expiration,inspiration
42,0.23,25,up,up,0.3004961999831721,1.8939352851303657,,psi_staircase_training,cRDM,,0.18938012620001202,0.19792108470876754,0.12938530546816834,276.1492289999733,210,21,male,True,2760,2763,False,False,expiration,expiration
43,0.23,25,up,down,0.3671391999814659,1.446862486908034,,psi_staircase_training,cRDM,,0.17996401517814511,0.18847754248363224,0.12896975554943166,278.28251170006115,210,21,male,True,2782,2786,False,False,inspiration,expiration
44,0.27,25,down,up,0.6521464999532327,1.5233739092552725,,psi_staircase_training,cRDM,,0.2137892931743677,0.2226812793795584,0.13470295520086362,280.4990741000511,210,21,male,True,2804,2811,False,False,inspiration,inspiration
45,0.33,25,down,down,0.5572518999688327,1.3178623590751355,,psi_staircase_training,cRDM,,0.2534539207435577,0.26330751870758745,0.14927022315230373,282.7489996000659,210,21,male,True,2826,2832,False,False,expiration,expiration
46,0.32,25,down,down,0.416824399959296,1.0042692631823384,,psi_staircase_training,cRDM,,0.2426707756633477,0.25243835216662025,0.147967100913099,284.58229270007,210,21,male,True,2845,2849,False,False,inspiration,inspiration
47,0.31,25,up,up,0.4777325999457389,1.5385033914644035,,psi_staircase_training,cRDM,,0.23329647606600296,0.2429430658190657,0.1461342963610754,286.8155178000452,210,21,male,True,2867,2872,False,False,expiration,inspiration
48,0.26,25,up,down,1.1000606999732554,0.5767048301626856,,psi_staircase_training,cRDM,,0.2250833688869973,0.234590177941786,0.14401678597553655,288.1321290000342,210,21,male,True,2880,2891,False,False,peak,expiration
49,0.32,25,down,up,0.4781564000295475,0.8643486492601691,,psi_staircase_training,cRDM,,0.2577422268385039,0.26700872292138894,0.14037633189232845,290.38206930004526,210,21,male,True,2903,2908,False,False,inspiration,peak
50,0.37,25,down,down,0.4411879000253976,1.5434619895482362,,psi_staircase_training,cRDM,,0.2950970639718842,0.30535429904917144,0.15538484262312496,292.6820005000336,210,21,male,True,2926,2930,False,False,expiration,trough
51,0.36,25,up,up,0.4496084999991581,0.5378240492351316,,psi_staircase_training,cRDM,,0.2852501241997144,0.29546405372394124,0.15472881529253407,293.9485776000656,210,21,male,True,2938,2942,False,False,inspiration,inspiration
52,0.35000000000000003,25,up,up,0.5136104000266641,0.4304649549756274,,psi_staircase_training,cRDM,,0.27634748383278024,0.2864822732550639,0.15352993740848786,295.0986039000564,210,21,male,True,2950,2955,False,False,expiration,expiration
53,100.0,25,M,up,0.6316857999190688,1.3869593040420405,,psi_staircase_training,emotion,,100.0,100.0,25.00050000000001,304.081501299981,210,21,male,True,3040,3046,False,False,inspiration,inspiration
54,55.0,25,M,down,0.4540834999643266,1.5296674686138203,,psi_staircase_training,emotion,,54.742809467541896,54.742809467541896,25.00050000000011,306.5981147000566,210,21,male,True,3065,3070,False,False,expiration,inspiration
55,79.0,25,F,down,0.6166275999275967,1.860984073495456,,psi_staircase_training,emotion,,79.636070985635,79.636070985635,25.71326925488641,309.2646706000669,210,21,male,True,3091,3097,False,False,expiration,expiration
56,103.0,25,F,down,0.44932750007137656,1.2364097412157848,,psi_staircase_training,emotion,,97.61123893914808,97.61123893914808,26.1463337262867,311.46486770000774,210,21,male,True,3114,3118,False,False,inspiration,inspiration
57,127.0,25,M,down,0.6593674999894574,0.3808132542209408,,psi_staircase_training,emotion,,117.15641007867752,117.15641007867752,31.432291447829705,312.6648179000476,210,21,male,True,3126,3133,False,False,expiration,expiration
58,148.0,25,F,up,0.3835531000513584,1.5773279015511,,psi_staircase_training,emotion,,137.43317204546622,137.43317204546622,34.340881921268554,315.2811326000374,210,21,male,True,3152,3156,False,False,inspiration,expiration
59,132.0,25,M,up,0.4228239998919889,1.8054397559669069,,psi_staircase_training,emotion,,125.26880931386356,125.26880931386356,34.38193433170599,317.8643872999819,210,21,male,True,3178,3182,False,False,inspiration,inspiration
60,122.0,25,M,up,0.4545904999831691,1.3651312380242329,,psi_staircase_training,emotion,,116.61367826218077,116.61367826218077,33.75872751210514,320.04761650005815,210,21,male,True,3199,3204,False,False,inspiration,inspiration
61,96.0,25,F,up,0.3667929000221193,1.108913028779798,,psi_staircase_training,emotion,,109.76167858007268,109.76167858007268,33.329509437450305,321.96424340002704,210,21,male,True,3219,3223,False,False,expiration,expiration
62,85.0,25,F,up,0.4964216999942437,1.1370282649376915,,psi_staircase_training,emotion,,100.93436968613935,100.93436968613935,35.19521261871789,323.88076400000136,210,21,male,True,3238,3243,False,False,inspiration,expiration
63,75.0,25,F,up,0.33351759996730834,0.8140918617952864,,psi_staircase_training,emotion,,92.47695896725972,92.47695896725972,37.11265368799633,325.54740380006837,210,21,male,True,3254,3257,False,False,expiration,expiration
64,68.0,25,F,down,0.5191645000595599,1.1814125868246768,,psi_staircase_training,emotion,,84.26894526509312,84.26894526509312,38.87653395855404,327.51400490000384,210,21,male,True,3274,3279,False,False,expiration,expiration
65,71.0,25,F,down,0.5380720999091864,1.897426424962796,,psi_staircase_training,emotion,,88.30646738689761,88.30646738689761,38.178336314654665,330.26416849996895,210,21,male,True,3302,3307,False,False,inspiration,inspiration
66,101.0,25,F,down,0.5130158000392839,0.4161727543781196,,psi_staircase_training,emotion,,91.65623179561614,91.65623179561614,37.53662891748478,331.5471883000573,210,21,male,True,3314,3319,False,False,inspiration,inspiration
67,115.0,25,M,down,0.4238081000512466,1.505339524506804,,psi_staircase_training,emotion,,96.8624533010383,96.8624533010383,38.12011745023987,333.93043700000266,210,21,male,True,3338,3342,False,False,expiration,expiration
68,121.0,25,M,down,0.4001722000539303,1.5058610346681989,,psi_staircase_training,emotion,,102.3956637011521,102.3956637011521,39.26563224345233,336.2303545000032,210,21,male,True,3361,3365,False,False,inspiration,inspiration
69,126.0,25,M,down,0.41683650005143136,1.2258924376000242,,psi_staircase_training,emotion,,107.6611009007864,107.6611009007864,40.31530299647567,338.21361590002203,210,21,male,True,3381,3385,False,False,expiration,expiration
70,131.0,25,M,down,0.3335855999030173,0.7251987106630658,,psi_staircase_training,emotion,,112.68265516476373,112.68265516476373,41.2483051949384,339.7302436999744,210,21,male,True,3396,3399,False,False,expiration,trough
71,134.0,25,F,down,0.3168095999862999,1.4390151847459045,,psi_staircase_training,emotion,,117.52611132178266,117.52611132178266,42.0866190469885,341.94683550007176,210,21,male,True,3418,3421,False,False,inspiration,inspiration
72,138.0,25,M,up,0.33348509995266795,0.9558389481997434,,psi_staircase_training,emotion,,122.08542614469351,122.08542614469351,42.771436064535216,343.6800985999871,210,21,male,True,3436,3439,False,False,expiration,expiration
73,136.0,25,M,up,0.3501424000132829,1.6833878690718749,,psi_staircase_training,emotion,,119.61430697374756,119.61430697374756,42.432155082116935,346.1466734000714,210,21,male,True,3460,3464,False,False,trough,inspiration
74,134.0,25,F,up,0.3002309000585228,0.3744951507622839,,psi_staircase_training,emotion,,117.3656039187426,117.3656039187426,42.1080835351928,347.27995240001474,210,21,male,True,3472,3475,False,False,inspiration,inspiration
75,132.0,25,M,up,0.4168873999733478,1.4106557076010462,,psi_staircase_training,emotion,,115.29204862328864,115.29204862328864,41.80093602607602,349.46314860007266,210,21,male,True,3494,3498,False,False,inspiration,inspiration
76,129.0,25,F,up,0.3835121999727562,1.5835381127870745,,psi_staircase_training,emotion,,113.35919350587692,113.35919350587692,41.512736377225316,351.82975719997194,210,21,male,True,3517,3521,False,False,expiration,expiration
77,91.0,25,F,up,0.2668688999256119,0.5886523740315118,,psi_staircase_training,emotion,,111.4999847717437,111.4999847717437,41.25509201333415,353.1964214000618,210,21,male,True,3531,3534,False,False,expiration,expiration
78,89.0,25,M,up,0.2665770000312477,0.3836139126872781,,psi_staircase_training,emotion,,108.04328177258715,108.04328177258715,41.964453342835405,354.3632758000167,210,21,male,True,3543,3546,False,False,expiration,expiration
79,86.0,25,M,up,0.30026119993999606,0.8129753728616421,,psi_staircase_training,emotion,,104.77308640032206,104.77308640032206,42.55694901967772,355.96292029996397,210,21,male,True,3559,3562,False,False,expiration,expiration
80,84.0,25,F,down,0.4166024000151083,0.7217597755237884,,psi_staircase_training,emotion,,101.61135984947832,101.61135984947832,43.09714319928778,357.4631574000232,210,21,male,True,3574,3578,False,False,expiration,expiration
81,85.0,25,M,up,0.3334835999412462,0.8328214672895524,,psi_staircase_training,emotion,,103.21126936314356,103.21126936314356,42.84829140773015,359.0628635999746,210,21,male,True,3590,3593,False,False,expiration,expiration
82,83.0,25,F,down,0.33358119998592883,1.02391007297423,,psi_staircase_training,emotion,,100.30180792790549,100.30180792790549,43.319599136726715,360.846097300062,210,21,male,True,3607,3610,False,False,expiration,expiration
83,0.29,25,up,up,0.5094842999242246,0.7084408948235941,,psi_staircase,cRDM,,0.25,0.25693124029946324,0.10500000000000002,398.39471919997595,210,21,male,True,3983,3988,False,False,inspiration,inspiration
84,0.25,25,up,down,0.3838828000007197,1.727752417924478,,psi_staircase,cRDM,,0.21910266653183127,0.2260132002683493,0.10468632033873933,400.89463260001503,210,21,male,True,4008,4012,False,False,inspiration,inspiration
85,0.36,25,down,down,0.4436270999722183,1.7245537163802591,,psi_staircase,cRDM,,0.3202997408361979,0.3276103223604739,0.1107465658214764,403.29454450006597,210,21,male,True,4032,4036,False,False,expiration,expiration
86,0.33,25,down,down,0.4169063000008464,1.4653086284322434,,psi_staircase,cRDM,,0.2990372097977385,0.30641398280716875,0.1117492876491608,405.4610595999984,210,21,male,True,4054,4058,False,False,inspiration,expiration
87,0.31,25,up,down,0.3338205000618473,0.6052807124045966,,psi_staircase,cRDM,,0.2780189805609542,0.28539811096413914,0.1117849993448388,406.744422400021,210,21,male,True,4066,4069,False,False,expiration,expiration
88,0.38,25,down,down,0.4167594000464305,1.7300151375257973,,psi_staircase,cRDM,,0.3480112713744075,0.3555759797870763,0.11459628421651034,409.16101130004967,210,21,male,True,4091,4095,False,False,expiration,expiration
89,0.37,25,up,up,0.4002539999783039,1.4971959774275116,,psi_staircase,cRDM,,0.33275112902232923,0.3403144375400541,0.11457507748254148,411.3442444000393,210,21,male,True,4112,4116,False,False,inspiration,inspiration
90,0.36,25,down,down,0.35076639999169856,1.585546830599991,,psi_staircase,cRDM,,0.3187137376408176,0.32617272109363865,0.11299467753366782,413.6108380999649,210,21,male,True,4135,4139,False,False,inspiration,inspiration
91,0.35000000000000003,25,down,down,0.4691356000257656,1.9089616959695777,,psi_staircase,cRDM,,0.30596975648440544,0.3132667732807009,0.11054107641749954,416.19405160006136,210,21,male,True,4161,4166,False,False,expiration,inspiration
92,0.34,25,up,down,0.300577100017108,0.5345642249692252,,psi_staircase,cRDM,,0.2943179689559817,0.3014448684310647,0.10796400248043088,417.4606802000199,210,21,male,True,4174,4177,False,False,inspiration,inspiration
93,0.38,25,down,down,0.4295353998895735,0.9719267848856791,,psi_staircase,cRDM,,0.34152794033008604,0.3492052806602582,0.11630252304634395,419.11061039997736,210,21,male,True,4190,4194,False,False,expiration,expiration
94,0.38,25,down,down,0.4492484999354929,0.8717375471829979,,psi_staircase,cRDM,,0.3316890337600639,0.33912636043264693,0.1126666032169888,420.69392950006295,210,21,male,True,4206,4210,False,False,inspiration,peak
95,0.38,25,down,down,0.4906938000349328,0.4538539163237613,,psi_staircase,cRDM,,0.3234955629019517,0.3306265609061909,0.10802609029484854,421.8605194999837,210,21,male,True,4218,4223,False,False,expiration,expiration
96,0.38,25,up,up,0.4167498999740928,1.1258415032476226,,psi_staircase,cRDM,,0.3168864997504408,0.3236737354060921,0.1028185018918731,423.743797800038,210,21,male,True,4236,4240,False,False,inspiration,inspiration
97,0.32,25,up,up,0.6200971000362188,1.4522609209472173,,psi_staircase,cRDM,,0.3117136647407687,0.3181419489480405,0.0973808167949108,425.8770797000034,210,21,male,True,4258,4264,False,False,trough,inspiration
98,0.32,25,down,down,0.4250235999934375,1.7036168570095884,,psi_staircase,cRDM,,0.2987093348080693,0.305858125463845,0.10829562768362967,428.4601963000605,210,21,male,True,4284,4288,False,False,expiration,expiration
99,0.32,25,down,down,0.33389240002725273,0.7551242092486162,,psi_staircase,cRDM,,0.2853487488461728,0.2930925449601346,0.1173092486822238,429.91022760001937,210,21,male,True,4298,4301,False,False,inspiration,inspiration
100,0.31,25,up,up,0.5446526000741869,0.5555393283947927,,psi_staircase,cRDM,,0.2724145428466008,0.2806057774784816,0.124087407042298,431.14351449999964,210,21,male,True,4311,4316,False,False,expiration,expiration
101,0.3,25,up,up,0.518001800053753,0.472557846567783,,psi_staircase,cRDM,,0.2594874873560125,0.2680781700588422,0.13013856753270686,432.41014829999773,210,21,male,True,4323,4328,False,False,expiration,inspiration
102,0.29,25,up,up,0.5734189000213519,1.5914084021099841,,psi_staircase,cRDM,,0.2468545670473493,0.255780986875673,0.13522458340487253,434.77674420003314,210,21,male,True,4347,4353,False,False,expiration,expiration
103,0.29,25,up,up,0.4969113999977708,1.3272456161644413,,psi_staircase,cRDM,,0.23470838199487706,0.2438998405746923,0.13923960347404726,436.9432758999757,210,21,male,True,4368,4373,False,False,inspiration,expiration
104,0.29,25,down,down,0.4179056999273598,0.5385088942812374,,psi_staircase,cRDM,,0.22372356451347555,0.23307312218715925,0.1416346156419956,438.24325269996183,210,21,male,True,4381,4385,False,False,expiration,expiration
105,0.24,25,down,down,0.4940597000531852,0.5126709968568065,,psi_staircase,cRDM,,0.21391645787498573,0.22334031912248606,0.14276022590995108,439.44318689999636,210,21,male,True,4393,4398,False,False,inspiration,inspiration
106,0.23,25,down,up,0.6747776999836788,1.2159265207657106,,psi_staircase,cRDM,,0.20180704169766006,0.2115052079488066,0.146915618615797,441.426477400004,210,21,male,True,4413,4420,False,False,expiration,inspiration
107,0.3,25,up,up,0.4417659000027925,0.5029830213964148,,psi_staircase,cRDM,,0.23801076475916486,0.2470727528107245,0.13727827983217442,442.87644560006447,210,21,male,True,4428,4432,False,False,inspiration,expiration
108,0.29,25,up,up,0.4422878000186756,1.866637500640748,,psi_staircase,cRDM,,0.23060645719437314,0.23964522565392996,0.13692653078655434,445.4599232999608,210,21,male,True,4454,4458,False,False,inspiration,inspiration
109,0.24,25,down,down,0.4305374000687152,0.3075829891325733,,psi_staircase,cRDM,,0.2235744261933309,0.2325793204033514,0.13641337642346202,446.45961100002745,210,21,male,True,4464,4468,False,False,expiration,expiration
110,0.23,25,down,down,0.7463058999273926,0.744797301065975,,psi_staircase,cRDM,,0.21350956139309565,0.22290086020461464,0.14226694395314096,447.8928982999642,210,21,male,True,4478,4485,False,False,trough,inspiration
111,0.23,25,up,up,0.3839980000630021,0.8161737666193649,,psi_staircase,cRDM,,0.2034441983134337,0.21317375958301327,0.14739121559311308,449.70949899998965,210,21,male,True,4496,4500,False,False,expiration,expiration
112,0.23,25,up,up,0.5290434999624267,0.9332356812370972,,psi_staircase,cRDM,,0.1937959543860548,0.203785750325469,0.15133345957140165,451.3261115000351,210,21,male,True,4512,4517,False,False,inspiration,inspiration
113,0.22,25,down,down,0.4184402999235317,1.0669641829534893,,psi_staircase,cRDM,,0.18465457114590272,0.1948392920187316,0.15428633916066073,453.19270829996094,210,21,male,True,4531,4535,False,False,expiration,expiration
114,0.21,25,up,up,0.3671787000494078,1.1832428996502382,,psi_staircase,cRDM,,0.17568278103452775,0.1860311569263444,0.1567655169486605,455.05933690001257,210,21,male,True,4550,4554,False,False,expiration,expiration
115,0.19,25,down,down,0.4462635000236333,1.739049288625398,,psi_staircase,cRDM,,0.1668805578475451,0.1773645668114304,0.15882019575821096,457.4759026999818,210,21,male,True,4574,4578,False,False,inspiration,peak
116,0.18,25,up,up,0.42236500000581145,1.3297363391058412,,psi_staircase,cRDM,,0.15794067944717147,0.16855123256386464,0.1607371883123224,459.525790899992,210,21,male,True,4594,4598,False,False,expiration,inspiration
117,0.17,25,down,down,0.5193925000494346,0.3027294090356953,,psi_staircase,cRDM,,0.14915941500098687,0.15987368607900446,0.16230839136813136,460.5257654000306,210,21,male,True,4604,4609,False,False,inspiration,peak
118,0.16,25,up,up,0.33390399999916553,0.9026677558199026,,psi_staircase,cRDM,,0.14055251633284865,0.15134852916672456,0.1635466811971229,462.22569220000884,210,21,male,True,4621,4624,False,False,expiration,expiration
119,0.15,25,down,up,0.4662834999617189,0.3071270486286482,,psi_staircase,cRDM,,0.13214197895471194,0.14299709002321606,0.16444194876365645,463.2090068999678,210,21,male,True,4631,4636,False,False,inspiration,inspiration
120,0.19,25,up,up,0.5756123999599367,1.5817389148888812,,psi_staircase,cRDM,,0.1571573668354159,0.16790647767029074,0.1628361720122819,465.52556980005465,210,21,male,True,4654,4660,False,False,expiration,inspiration
121,0.19,25,up,up,0.5346864999737589,1.7541735255533417,,psi_staircase,cRDM,,0.14983013549350893,0.1606622734034369,0.16409393288968951,468.1254809000529,210,21,male,True,4680,4685,False,False,expiration,expiration
122,0.19,25,down,down,0.4228025999618694,1.9412385073237493,,psi_staircase,cRDM,,0.14290988980653327,0.15380089578166806,0.1649857136647976,470.8753869000357,210,21,male,True,4708,4712,False,False,inspiration,inspiration
123,0.19,25,down,up,0.6668111999751999,0.3235313885098631,,psi_staircase,cRDM,,0.13640131969059108,0.14732864617541672,0.16553592594323166,471.8753788999748,210,21,male,True,4718,4725,False,False,expiration,expiration
124,0.18,25,down,down,0.6258382999803871,0.4736751564127441,,psi_staircase,cRDM,,0.15965096278859306,0.1705211786529456,0.1646707683537393,473.2753262000624,210,21,male,True,4732,4738,False,False,expiration,expiration
125,0.17,25,up,up,0.4167709000175819,1.9430990514951585,,psi_staircase,cRDM,,0.15277616888152004,0.16375820789623016,0.16636475532869016,476.10852820007136,210,21,male,True,4760,4764,False,False,inspiration,expiration
126,0.17,25,up,down,0.3504503999138251,1.8049208369511447,,psi_staircase,cRDM,,0.14595918864610175,0.15705454733589516,0.16808141286322525,478.59178859996615,210,21,male,True,4785,4789,False,False,expiration,expiration
127,0.2,25,down,up,0.7342160000698641,1.4508206658792908,,psi_staircase,cRDM,,0.16626155064773251,0.17705586414427826,0.16352093826916786,480.7250055000186,210,21,male,True,4806,4813,False,False,inspiration,expiration
128,0.22,25,down,down,0.40036950004287053,1.8477624214322104,,psi_staircase,cRDM,,0.1861480482644135,0.1966819846801892,0.15957653693554688,483.5581908000168,210,21,male,True,4835,4839,False,False,inspiration,inspiration
129,0.2,25,down,up,0.5850522000109777,0.8115192045907258,,psi_staircase,cRDM,,0.1804986131340067,0.19110780335828895,0.16071654212246858,485.05818090005783,210,21,male,True,4850,4856,False,False,inspiration,expiration
130,0.24,25,up,up,0.6693298999452963,0.9609131938070784,,psi_staircase,cRDM,,0.1983454453045568,0.2086542963176928,0.15616676231281432,486.8748267999618,210,21,male,True,4868,4875,False,False,expiration,expiration
131,0.24,25,up,down,0.9827897000359372,1.2774070873690244,,psi_staircase,cRDM,,0.19335032761138896,0.2037027068515435,0.15682616288752885,489.09138070000336,210,21,male,True,4890,4900,False,False,inspiration,expiration
132,0.24,25,up,up,0.6372394000645727,1.5826025355321298,,psi_staircase,cRDM,,0.21099492029455366,0.22122936665912188,0.1550396208832755,491.9079510000302,210,21,male,True,4918,4924,False,False,inspiration,peak
133,100.0,25,M,up,0.7397591000190005,1.8330809422951455,,psi_staircase,emotion,,100.0,100.0,25.00050000000001,498.12439730006736,210,21,male,True,4980,4987,False,False,expiration,expiration
134,55.0,25,M,down,0.4761611999711022,0.3840653852214296,,psi_staircase,emotion,,54.742809467541896,54.742809467541896,25.00050000000011,499.5910091999685,210,21,male,True,4995,5000,False,False,trough,inspiration
135,79.0,25,F,down,0.5981929999543354,0.5868041660819959,,psi_staircase,emotion,,79.636070985635,79.636070985635,25.71326925488641,500.9909610999748,210,21,male,True,5009,5015,False,False,expiration,expiration
136,103.0,25,F,up,0.5566211999394001,1.1175184403881364,,psi_staircase,emotion,,97.61123893914808,97.61123893914808,26.1463337262867,503.05755580007104,210,21,male,True,5030,5036,False,False,inspiration,inspiration
137,87.0,25,M,down,0.4640333000570536,0.7607887818772692,,psi_staircase,emotion,,85.98876744579668,85.98876744579668,23.003056417783494,504.72414820001,210,21,male,True,5046,5051,False,False,expiration,expiration
138,95.0,25,F,down,0.6141395999584347,1.4905294341574942,,psi_staircase,emotion,,95.05640406123078,95.05640406123078,22.150603223582724,507.02406930003787,210,21,male,True,5069,5075,False,False,inspiration,expiration
139,108.0,25,M,down,0.7359566999366507,1.7551296094696236,,psi_staircase,emotion,,102.67895770092095,102.67895770092095,23.933073614491192,509.7571951000718,210,21,male,True,5097,5104,False,False,inspiration,inspiration
140,126.0,25,F,up,0.5785523999948055,0.4552271702607311,,psi_staircase,emotion,,113.52218870526065,113.52218870526065,31.611106717665084,511.2905546000693,210,21,male,True,5112,5118,False,False,peak,expiration
141,122.0,25,F,up,0.6160157000413164,0.3795389364717893,,psi_staircase,emotion,,107.37737850761332,107.37737850761332,29.23899594163205,512.6071641000453,210,21,male,True,5125,5131,False,False,expiration,expiration
142,120.0,25,M,up,0.687086799996905,1.357087509753722,,psi_staircase,emotion,,103.399560746868,103.399560746868,27.102653483724946,514.9570723000215,210,21,male,True,5149,5156,False,False,inspiration,expiration
143,85.0,25,F,down,0.6288039999781176,0.4924413503461321,,psi_staircase,emotion,,100.68299433852276,100.68299433852276,25.224425752927647,516.4903849000111,210,21,male,True,5164,5170,False,False,expiration,expiration
144,119.0,25,F,up,0.3669160000281408,0.8653372240656556,,psi_staircase,emotion,,102.90796399394476,102.90796399394476,23.38137491483795,518.3403001000406,210,21,male,True,5183,5187,False,False,inspiration,inspiration
145,86.0,25,F,down,0.4432986000319943,0.841758319693988,,psi_staircase,emotion,,101.03048750272734,101.03048750272734,21.495346489968792,519.9569371000398,210,21,male,True,5199,5203,False,False,expiration,expiration
146,116.0,25,M,up,0.6839529999997467,0.8916840369603058,,psi_staircase,emotion,,102.56848107266028,102.56848107266028,19.699854222428318,521.6902012999635,210,21,male,True,5216,5223,False,False,inspiration,expiration
147,88.0,25,M,down,0.3668149000732228,1.1797540884162252,,psi_staircase,emotion,,101.12966445670249,101.12966445670249,17.94103701303449,523.9067741000326,210,21,male,True,5238,5242,False,False,inspiration,inspiration
148,113.0,25,F,up,0.4407496999483556,1.2534616237381326,,psi_staircase,emotion,,102.2583733482534,102.2583733482534,16.32489012690738,525.9233649000524,210,21,male,True,5258,5262,False,False,expiration,expiration
149,91.0,25,F,down,0.4711922999704257,0.6686966621071553,,psi_staircase,emotion,,101.09470516250818,101.09470516250818,14.803082749590054,527.3899617000717,210,21,male,True,5273,5278,False,False,trough,inspiration
150,101.0,25,M,down,0.3668210000032559,1.5501362795798301,,psi_staircase,emotion,,102.01380355520357,102.01380355520357,13.440054466474642,529.7732076999963,210,21,male,True,5297,5301,False,False,expiration,expiration
151,115.0,25,M,down,0.3335282999323681,0.9538119647688204,,psi_staircase,emotion,,103.87694352856363,103.87694352856363,13.796165182456072,531.5064803999849,210,21,male,True,5314,5317,False,False,inspiration,inspiration
152,125.0,25,M,up,0.3501677999738604,1.407463609476857,,psi_staircase,emotion,,107.16027382637671,107.16027382637671,19.10737179194585,533.6897230000468,210,21,male,True,5336,5340,False,False,expiration,expiration
153,123.0,25,M,up,0.40011059993412346,0.7780599953958702,,psi_staircase,emotion,,106.3189925601264,106.3189925601264,17.671401766530927,535.2563579999842,210,21,male,True,5352,5356,False,False,inspiration,expiration
154,90.0,25,F,up,0.3669233999680728,1.984128843191468,,psi_staircase,emotion,,105.66041463668873,105.66041463668873,16.446607880081707,538.0395636999747,210,21,male,True,5380,5384,False,False,inspiration,inspiration
155,82.0,25,F,down,0.4168022000230849,1.5398717535209656,,psi_staircase,emotion,,102.84109933675623,102.84109933675623,21.80195919334276,540.3728438999971,210,21,male,True,5403,5407,False,False,expiration,expiration
156,124.0,25,F,down,0.458439499954693,1.7198163661275572,,psi_staircase,emotion,,103.4829326554422,103.4829326554422,20.63565481818476,542.872730400064,210,21,male,True,5428,5433,False,False,expiration,expiration
157,132.0,25,M,up,0.54489190003369,1.5440865094905944,,psi_staircase,emotion,,106.54035455518152,106.54035455518152,26.46561269680141,545.2393005000196,210,21,male,True,5451,5456,False,False,inspiration,inspiration
158,131.0,25,M,up,0.7812299999641255,1.9672346851693765,,psi_staircase,emotion,,105.81935334080748,105.81935334080748,25.344882790799087,548.1058964000548,210,21,male,True,5480,5488,False,False,trough,inspiration
159,81.0,25,F,down,0.6920414000051096,0.4079287052004966,,psi_staircase,emotion,,105.21711710708678,105.21711710708678,24.310647220112426,549.6891331999797,210,21,male,True,5496,5503,False,False,expiration,expiration
160,130.0,25,F,down,0.7621305999346077,0.791779043791994,,psi_staircase,emotion,,105.79539477412337,105.79539477412337,23.30551550778647,551.5390602999832,210,21,male,True,5514,5522,False,False,inspiration,inspiration
161,137.0,25,M,up,0.799210499972105,1.962544447738377,,psi_staircase,emotion,,108.63996317573074,108.63996317573074,28.584732408472235,554.6389681999572,210,21,male,True,5545,5553,False,False,expiration,inspiration
162,137.0,25,M,up,0.4001881000585854,1.4237742825273645,,psi_staircase,emotion,,108.01375439071032,108.01375439071032,27.650247790743972,557.2055238999892,210,21,male,True,5571,5575,False,False,expiration,expiration
163,80.0,25,F,down,0.5440128999762237,1.3881404544688467,,psi_staircase,emotion,,107.490287776703,107.490287776703,26.78280353790653,559.3721375999739,210,21,male,True,5593,5598,False,False,inspiration,expiration
164,135.0,25,M,up,0.4001856000395492,1.1717467236540362,,psi_staircase,emotion,,108.02101400422347,108.02101400422347,25.913201399273998,561.4720695000142,210,21,male,True,5614,5618,False,False,inspiration,inspiration
165,81.0,25,F,down,0.6152515999274328,1.9816575331354531,,psi_staircase,emotion,,107.54387161388053,107.54387161388053,25.085912786729732,564.221943099983,210,21,male,True,5641,5647,False,False,expiration,expiration
166,134.0,25,M,up,0.5682945000007749,1.9746416354384528,,psi_staircase,emotion,,108.01114776077884,108.01114776077884,24.278972420347557,567.1718390999595,210,21,male,True,5671,5677,False,False,inspiration,expiration
167,83.0,25,F,down,0.6317550999810919,0.4431065394562375,,psi_staircase,emotion,,107.59147716187927,107.59147716187927,23.522354891977177,568.5384557000361,210,21,male,True,5684,5690,False,False,expiration,expiration
168,84.0,25,M,up,0.467463199980557,1.9066234169778256,,psi_staircase,emotion,,108.02663612532754,108.02663612532754,22.77797750620399,571.421683600056,210,21,male,True,5713,5718,False,False,expiration,expiration
169,77.0,25,F,down,0.7508669999660924,0.3255237299875989,,psi_staircase,emotion,,105.80598049279978,105.80598049279978,26.678442482870786,572.5882903999883,210,21,male,True,5725,5733,False,False,expiration,inspiration
170,134.0,25,M,up,0.7766220000339672,1.1447003373833524,,psi_staircase,emotion,,106.21560962376464,106.21560962376464,25.96829616991292,574.8215615999653,210,21,male,True,5747,5755,False,False,expiration,expiration
171,78.0,25,M,down,0.6370183998951688,1.340594867910669,,psi_staircase,emotion,,105.8077469541095,105.8077469541095,25.27064825886437,577.288112499984,210,21,male,True,5772,5778,False,False,inspiration,inspiration
172,133.0,25,F,up,0.6311728999717161,1.7990410065203797,,psi_staircase,emotion,,106.17865823041664,106.17865823041664,24.614531563099852,580.0879991999827,210,21,male,True,5800,5806,False,False,inspiration,inspiration
173,80.0,25,F,down,0.4922267999500036,1.1099359009286187,,psi_staircase,emotion,,105.80841470643078,105.80841470643078,23.976164669364753,582.1879382999614,210,21,male,True,5821,5826,False,False,expiration,inspiration
174,132.0,25,F,up,0.6689592000329867,1.4491326712091397,,psi_staircase,emotion,,106.16472698635306,106.16472698635306,23.369016988695435,584.4711885000579,210,21,male,True,5844,5851,False,False,expiration,expiration
175,81.0,25,M,down,0.7753569000633433,0.3404682082132271,,psi_staircase,emotion,,105.82522111877205,105.82522111877205,22.791865614344353,585.8377867999952,210,21,male,True,5857,5865,False,False,expiration,inspiration
176,130.0,25,M,up,0.7305197999812663,1.5738583828561807,,psi_staircase,emotion,,106.15432695521443,106.15432695521443,22.245279220253412,588.554660600028,210,21,male,True,5885,5892,False,False,expiration,inspiration
177,82.0,25,F,up,0.6199236999964342,1.1708125344049818,,psi_staircase,emotion,,105.82173894314387,105.82173894314387,21.7186486934548,590.8042977000588,210,21,male,True,5907,5913,False,False,expiration,expiration
178,76.0,25,F,up,1.057639200007543,1.8394967935106892,,psi_staircase,emotion,,103.97042548500751,103.97042548500751,24.66570017830399,593.637505199993,210,21,male,True,5935,5946,False,False,inspiration,expiration
179,71.0,25,F,down,0.8257659999653697,1.585298136366455,,psi_staircase,emotion,,102.01575986075107,102.01575986075107,28.116668001909893,596.6374215000543,210,21,male,True,5965,5973,False,False,inspiration,expiration
180,71.0,25,M,down,0.6568393999477848,1.6846325545119898,,psi_staircase,emotion,,102.3583911286593,102.3583911286593,27.53377943021668,599.4873042000689,210,21,male,True,5994,6001,False,False,inspiration,inspiration
181,133.0,25,M,up,0.7846645000390708,1.9234673744083144,,psi_staircase,emotion,,102.66321734114194,102.66321734114194,26.989119008300037,602.4205285999924,210,21,male,True,6023,6031,False,False,inspiration,peak
182,72.0,25,M,down,0.8020555999828503,1.1511196807838722,,psi_staircase,emotion,,102.352953563938,102.352953563938,26.45407153705932,604.7370906000724,210,21,male,True,6046,6054,False,False,expiration,inspiration
183,0.20600873288670732,25,down,down,0.6351270999293774,1.6325465109455612,,experiment,cRDM,0.0,,,,615.670002900064,210,21,male,True,6156,6162,True,True,inspiration,inspiration
184,0.20600873288670732,25,up,up,0.5065185999264941,1.5153673758481654,,experiment,cRDM,0.0,,,,618.0866197999568,210,21,male,True,6180,6185,True,True,inspiration,inspiration
185,0.20600873288670732,25,down,down,0.4167177999624983,1.3581701598671172,,experiment,cRDM,0.0,,,,620.2198570000472,210,21,male,True,6201,6205,True,True,inspiration,inspiration
186,0.20600873288670732,25,up,up,0.4664264000020921,1.327795233341041,,experiment,cRDM,0.0,,,,622.2367229000665,210,21,male,True,6222,6227,True,True,expiration,expiration
187,0.20600873288670732,25,down,down,0.4743203000398353,0.6131647331685828,,experiment,cRDM,0.0,,,,623.5698090000078,210,21,male,True,6235,6240,True,True,expiration,expiration
188,0.20600873288670732,25,down,down,0.5951594000216573,1.2996360912736045,,experiment,cRDM,0.0,,,,625.6030082000652,210,21,male,True,6255,6261,True,True,expiration,expiration
189,0.20600873288670732,25,up,up,0.3838142999447882,1.8296414877424845,,experiment,cRDM,0.0,,,,628.286257800064,210,21,male,True,6282,6286,False,False,inspiration,expiration
190,0.20600873288670732,25,down,down,0.4883051000069827,0.7723619564492625,,experiment,cRDM,0.0,,,,629.7528522000648,210,21,male,True,6297,6302,False,False,expiration,expiration
191,0.20600873288670732,25,up,up,0.4005705999443308,0.9408168077947974,,experiment,cRDM,0.0,,,,631.4361000000499,210,21,male,True,6314,6318,False,False,inspiration,inspiration
192,0.20600873288670732,25,up,up,0.4913451999891549,0.7938507074463352,,experiment,cRDM,0.0,,,,632.9027686000336,210,21,male,True,6328,6333,False,False,expiration,expiration
193,0.20600873288670732,25,down,down,0.4241772999521345,1.4323961467648674,,experiment,cRDM,0.0,,,,635.0859888000414,210,21,male,True,6350,6354,False,False,inspiration,inspiration
194,0.20600873288670732,25,up,up,0.2504723001038656,1.0740361196041062,,experiment,cRDM,0.0,,,,636.8692350999918,210,21,male,True,6368,6371,False,False,expiration,expiration
195,0.20600873288670732,25,up,down,0.3171352000208572,0.9079590760177902,,experiment,cRDM,0.0,,,,638.4525523000631,210,21,male,True,6384,6387,False,False,inspiration,inspiration
196,0.20600873288670732,25,up,up,0.6260283999145031,1.1389829544158383,,experiment,cRDM,0.0,,,,640.2691382999765,210,21,male,True,6402,6408,False,False,expiration,expiration
197,0.20600873288670732,25,down,down,0.4495303999865428,1.4773995227033023,,experiment,cRDM,0.0,,,,642.6356736000163,210,21,male,True,6426,6430,False,False,inspiration,inspiration
198,0.20600873288670732,25,down,down,0.5371708000311628,1.6764099616298878,,experiment,cRDM,0.0,,,,645.0189567999914,210,21,male,True,6449,6454,False,False,expiration,inspiration
199,0.20600873288670732,25,up,up,0.5545458999695256,1.1781254685155904,,experiment,cRDM,0.0,,,,646.985564099974,210,21,male,True,6469,6475,False,False,expiration,expiration
200,0.20600873288670732,25,up,up,0.6636371000204235,1.1949844471773212,,experiment,cRDM,0.0,,,,648.9854967000429,210,21,male,True,6489,6496,False,False,inspiration,inspiration
201,0.20600873288670732,25,down,down,0.5554221000056714,1.8091497108696164,,experiment,cRDM,0.0,,,,651.718706500018,210,21,male,True,6516,6522,False,False,trough,inspiration
202,0.20600873288670732,25,down,down,0.4371147999772802,0.9610303767256858,,experiment,cRDM,0.0,,,,653.5019775000401,210,21,male,True,6534,6538,False,False,expiration,expiration
203,0.20600873288670732,25,up,down,0.4211019000504166,0.8705509678269434,,experiment,cRDM,0.0,,,,655.0519805999937,210,21,male,True,6550,6554,False,False,expiration,inspiration
204,0.20600873288670732,25,down,up,0.4002445000223816,0.9381754290162608,,experiment,cRDM,0.0,,,,656.6852009000722,210,21,male,True,6566,6570,False,False,expiration,expiration
205,0.20600873288670732,25,up,up,0.4350267000263557,1.1842421312507434,,experiment,cRDM,0.0,,,,658.5351360000203,210,21,male,True,6585,6589,False,False,inspiration,inspiration
206,0.20600873288670732,25,down,down,0.4561612999532372,1.7110168617867438,,experiment,cRDM,0.0,,,,660.9350359999808,210,21,male,True,6609,6614,False,False,expiration,expiration
207,0.20600873288670732,25,down,down,0.8016335000284016,1.7075498739537007,,experiment,cRDM,0.0,,,,663.3515193000202,210,21,male,True,6633,6641,False,False,inspiration,expiration
208,0.20600873288670732,25,up,up,0.4679524999810383,0.3022935659818267,,experiment,cRDM,0.0,,,,664.7182327000191,210,21,male,True,6646,6651,False,False,expiration,expiration
209,0.20600873288670732,25,up,up,0.4403924000216648,0.668294950616378,,experiment,cRDM,0.0,,,,666.1348145999947,210,21,male,True,6660,6664,False,False,inspiration,peak
210,0.20600873288670732,25,down,down,0.4677079999819398,0.980398402171598,,experiment,cRDM,0.0,,,,667.8014491000213,210,21,male,True,6677,6682,False,False,expiration,expiration
211,0.20600873288670732,25,up,up,0.4168819000478834,1.4138709407740115,,experiment,cRDM,0.0,,,,669.9346769000404,210,21,male,True,6698,6702,False,False,inspiration,inspiration
212,0.20600873288670732,25,down,up,0.3671826999634504,1.1471786253874292,,experiment,cRDM,0.0,,,,671.7512716000201,210,21,male,True,6717,6721,False,False,expiration,expiration
213,0.20600873288670732,25,up,down,0.3171557999448851,1.8483158677304157,,experiment,cRDM,0.0,,,,674.284532199963,210,21,male,True,6742,6745,False,False,expiration,expiration
214,0.20600873288670732,25,down,up,0.3504859000677243,0.4551481821934773,,experiment,cRDM,0.0,,,,675.4178564000176,210,21,male,True,6753,6757,False,False,expiration,expiration
215,0.20600873288670732,25,up,up,0.4002076999749988,0.3667077301496028,,experiment,cRDM,0.0,,,,676.4678185000084,210,21,male,True,6764,6768,False,False,inspiration,inspiration
216,0.20600873288670732,25,down,down,0.4780641000252217,1.7984693950975337,,experiment,cRDM,0.0,,,,678.9510648000288,210,21,male,True,6789,6794,False,False,expiration,inspiration
217,0.20600873288670732,25,up,up,0.4584545000689104,0.7340006332538561,,experiment,cRDM,0.0,,,,680.4176739000251,210,21,male,True,6803,6808,False,False,inspiration,inspiration
218,0.20600873288670732,25,down,down,0.4889101000735536,0.8849468346947122,,experiment,cRDM,0.0,,,,682.0342468000017,210,21,male,True,6819,6824,False,False,expiration,expiration
219,0.20600873288670732,25,up,up,0.38382470002397895,1.380403339046368,,experiment,cRDM,0.0,,,,684.1675260000628,210,21,male,True,6841,6845,False,False,expiration,inspiration
220,0.20600873288670732,25,down,down,0.4486412000842392,0.6342711014239144,,experiment,cRDM,0.0,,,,685.4675105999922,210,21,male,True,6854,6858,False,False,inspiration,inspiration
221,0.20600873288670732,25,up,up,0.6107050999999046,0.6942510788373284,,experiment,cRDM,0.0,,,,686.8674457999878,210,21,male,True,6868,6874,False,False,expiration,expiration
222,0.20600873288670732,25,down,down,0.33380340004805475,0.6509100367220658,,experiment,cRDM,0.0,,,,688.3840365000069,210,21,male,True,6883,6886,False,False,expiration,expiration
223,0.20600873288670732,25,down,down,0.6315420999890193,1.7161222729869132,,experiment,cRDM,0.0,,,,690.8005858999678,210,21,male,True,6907,6913,False,False,inspiration,expiration
224,0.20600873288670732,25,up,up,0.4519346000161022,0.7790232589885853,,experiment,cRDM,0.0,,,,692.4671959000408,210,21,male,True,6924,6929,False,False,expiration,inspiration
225,0.20600873288670732,25,down,down,0.5183283000951633,1.6920343249442698,,experiment,cRDM,0.0,,,,694.8837759000016,210,21,male,True,6948,6953,False,False,expiration,inspiration
226,0.20600873288670732,25,up,up,0.5010380999883637,0.4001854313071316,,experiment,cRDM,0.0,,,,696.0671113000717,210,21,male,True,6960,6965,False,False,expiration,expiration
227,0.20600873288670732,25,up,up,0.6981310999253765,1.6418694342793632,,experiment,cRDM,0.0,,,,698.4670000000624,210,21,male,True,6984,6991,False,False,inspiration,expiration
228,0.20600873288670732,25,down,down,0.4595516000408679,1.5704468452109546,,experiment,cRDM,0.0,,,,700.9835572000592,210,21,male,True,7009,7014,False,False,expiration,expiration
229,0.20600873288670732,25,down,up,0.4976884999778122,1.4308480918942597,,experiment,cRDM,0.0,,,,703.1334597000388,210,21,male,True,7030,7035,False,False,expiration,expiration
230,0.20600873288670732,25,up,up,0.4817611000034958,1.34343778980134,,experiment,cRDM,0.0,,,,705.2333847000264,210,21,male,True,7051,7056,False,False,trough,inspiration
231,0.20600873288670732,25,down,down,0.4355449000140652,1.330069119468844,,experiment,cRDM,0.0,,,,707.3166520000667,210,21,male,True,7072,7076,False,False,expiration,expiration
232,0.20600873288670732,25,up,up,0.4766404000110924,1.7969396798388368,,experiment,cRDM,0.0,,,,709.8165825000032,210,21,male,True,7097,7102,False,False,expiration,expiration
233,0.20600873288670732,25,up,down,0.4406560999341309,0.9570864963648844,,experiment,cRDM,0.0,,,,711.5164892000612,210,21,male,True,7114,7118,False,False,expiration,inspiration
234,0.20600873288670732,25,up,up,0.44116439996287227,0.7266860612507299,,experiment,cRDM,0.0,,,,712.9500448000618,210,21,male,True,7129,7133,False,False,inspiration,expiration
235,0.20600873288670732,25,up,up,0.7407580999424681,0.555304127981832,,experiment,cRDM,0.0,,,,714.2164026000537,210,21,male,True,7141,7148,False,False,expiration,expiration
236,0.20600873288670732,25,up,up,0.6917674000142142,0.8373046981483101,,experiment,cRDM,0.0,,,,716.0663633999648,210,21,male,True,7160,7167,False,False,inspiration,expiration
237,0.20600873288670732,25,down,down,0.7278425999684259,0.8047622805144545,,experiment,cRDM,0.0,,,,717.8162808000342,210,21,male,True,7177,7184,False,False,expiration,inspiration
238,0.20600873288670732,25,down,down,0.8616379000013694,0.9472633200302404,,experiment,cRDM,0.0,,,,719.7495485000545,210,21,male,True,7197,7206,False,False,expiration,expiration
239,0.20600873288670732,25,down,down,0.9800301999785006,1.141531066727544,,experiment,cRDM,0.0,,,,722.0161070000612,210,21,male,True,7219,7229,False,False,inspiration,expiration
240,0.20600873288670732,25,up,up,0.5424256999976933,0.5598080676754118,,experiment,cRDM,0.0,,,,723.8327070999658,210,21,male,True,7237,7242,False,False,expiration,expiration
241,0.20600873288670732,25,down,down,0.6481412999564782,0.4188710871168476,,experiment,cRDM,0.0,,,,725.0660057000349,210,21,male,True,7250,7256,False,False,inspiration,inspiration
242,0.20600873288670732,25,down,up,0.7501789999660105,1.7770183884049668,,experiment,cRDM,0.0,,,,727.7659444999881,210,21,male,True,7277,7285,False,False,trough,inspiration
243,0.20600873288670732,25,down,down,0.7683029000181705,1.8754414506464168,,experiment,cRDM,0.0,,,,730.6658251000335,210,21,male,True,7306,7314,False,False,expiration,inspiration
244,0.20600873288670732,25,up,up,0.5613887999206781,0.9598869821976206,,experiment,cRDM,0.0,,,,732.6657699999632,210,21,male,True,7326,7332,False,False,expiration,expiration
245,0.20600873288670732,25,down,up,0.7211551000364125,1.7147758563346496,,experiment,cRDM,0.0,,,,735.1989820000017,210,21,male,True,7351,7358,False,False,inspiration,expiration
246,0.20600873288670732,25,up,up,0.5469354999950156,1.0430479469832403,,experiment,cRDM,0.0,,,,737.2322184999939,210,21,male,True,7371,7376,False,False,expiration,inspiration
247,0.20600873288670732,25,up,up,0.5666479000356048,0.386425505867362,,experiment,cRDM,0.0,,,,738.4155068000546,210,21,male,True,7383,7389,False,False,inspiration,expiration
248,0.20600873288670732,25,down,down,0.5660295999841765,1.597863671762542,,experiment,cRDM,0.0,,,,740.8320781000658,210,21,male,True,7407,7413,False,False,inspiration,inspiration
249,0.20600873288670732,25,up,up,0.5664828999433666,1.3294532676644155,,experiment,cRDM,0.0,,,,742.9986599000405,210,21,male,True,7429,7435,False,False,expiration,trough
250,0.20600873288670732,25,down,down,0.4618367999792099,0.8298989956751792,,experiment,cRDM,0.0,,,,744.6652985999826,210,21,male,True,7446,7451,False,False,peak,expiration
251,0.20600873288670732,25,up,up,0.43391450005583465,0.6720957607067566,,experiment,cRDM,0.0,,,,746.0652394000208,210,21,male,True,7460,7464,False,False,expiration,trough
252,0.20600873288670732,25,down,down,0.35051780007779604,1.5658169835092304,,experiment,cRDM,0.0,,,,748.3151468000142,210,21,male,True,7482,7486,False,False,expiration,expiration
253,0.20600873288670732,25,up,up,0.3838576999260113,1.2275405058930828,,experiment,cRDM,0.0,,,,750.2150428000605,210,21,male,True,7501,7505,False,False,inspiration,inspiration
254,0.20600873288670732,25,down,down,0.5028059000615029,1.8075904997147865,,experiment,cRDM,0.0,,,,752.6983290000353,210,21,male,True,7526,7531,False,False,expiration,inspiration
255,0.20600873288670732,25,down,down,0.6440066000213847,1.2312640669012065,,experiment,cRDM,0.0,,,,754.6982507000212,210,21,male,True,7546,7552,False,False,expiration,expiration
256,0.20600873288670732,25,down,down,0.5023319999454543,0.35847947886586895,,experiment,cRDM,0.0,,,,755.9648591000588,210,21,male,True,7559,7564,False,False,expiration,expiration
257,0.20600873288670732,25,down,down,0.5456670999992639,1.052080656114062,,experiment,cRDM,0.0,,,,757.7814572000642,210,21,male,True,7577,7582,False,False,peak,expiration
258,0.20600873288670732,25,down,down,0.28384289995301515,1.7012804902558665,,experiment,cRDM,0.0,,,,760.2813690999756,210,21,male,True,7602,7605,False,False,inspiration,inspiration
259,0.20600873288670732,25,up,up,0.4167702000122517,1.8130811078554616,,experiment,cRDM,0.0,,,,762.7646341000218,210,21,male,True,7627,7631,False,False,inspiration,inspiration
260,0.20600873288670732,25,up,up,0.462553899968043,0.4612225308110148,,experiment,cRDM,0.0,,,,763.9145641999785,210,21,male,True,7638,7643,False,False,inspiration,expiration
261,0.20600873288670732,25,up,up,0.4686729999957606,1.465308263062464,,experiment,cRDM,0.0,,,,766.1144719000439,210,21,male,True,7660,7665,False,False,expiration,trough
262,0.20600873288670732,25,up,up,0.3505324999568984,0.5639562032138007,,experiment,cRDM,0.0,,,,767.4144368000561,210,21,male,True,7673,7677,False,False,inspiration,peak
263,112.0,25,M,up,0.9081198999192566,1.408713919941676,,experiment,emotion,0.0,,,,797.6299937999574,210,21,male,True,7976,7985,False,False,peak,expiration
264,92.0,25,M,down,0.7555625999812037,1.4516102915141766,,experiment,emotion,0.0,,,,800.2965618000599,210,21,male,True,8002,8010,False,False,expiration,inspiration
265,105.0,25,F,down,0.4249744999688119,0.8353902531109703,,experiment,emotion,0.0,,,,802.1631503000391,210,21,male,True,8021,8025,False,False,expiration,expiration
266,112.0,25,F,down,0.6847022000001743,1.9789600537736387,,experiment,emotion,0.0,,,,804.8464003000407,210,21,male,True,8048,8055,False,False,inspiration,expiration
267,105.0,25,M,down,0.7395261999918148,1.9716788501053015,,experiment,emotion,0.0,,,,807.7796101999702,210,21,male,True,8077,8084,False,False,inspiration,inspiration
268,99.0,25,F,down,0.8269447999773547,0.9552236839571692,,experiment,emotion,0.0,,,,809.7962070000357,210,21,male,True,8097,8105,False,False,expiration,expiration
269,92.0,25,M,down,0.7660531000001356,1.5906966450507314,,experiment,emotion,0.0,,,,812.4961055000313,210,21,male,True,8124,8132,False,False,expiration,expiration
270,99.0,25,M,up,0.5724175999639556,0.9258459270577312,,experiment,emotion,0.0,,,,814.462699500029,210,21,male,True,8144,8150,False,False,expiration,inspiration
271,112.0,25,F,up,0.6895329999970272,1.0091646353835932,,experiment,emotion,0.0,,,,816.3126181999687,210,21,male,True,8162,8169,False,False,expiration,expiration
272,99.0,25,F,up,0.7775486999889836,0.5432816952366788,,experiment,emotion,0.0,,,,817.8125618000049,210,21,male,True,8177,8185,False,False,expiration,expiration
273,105.0,25,F,up,0.6419187999563292,1.2105340440450594,,experiment,emotion,0.0,,,,820.0791631999891,210,21,male,True,8200,8206,False,False,expiration,expiration
274,112.0,25,F,down,0.7049448000034317,0.3475062780856977,,experiment,emotion,0.0,,,,821.3291434000713,210,21,male,True,8213,8220,False,False,expiration,trough
275,105.0,25,F,up,0.535416099941358,0.8897303946168467,,experiment,emotion,0.0,,,,823.1957033000654,210,21,male,True,8231,8236,False,False,inspiration,expiration
276,92.0,25,F,up,0.4734905998921022,1.4272538124449072,,experiment,emotion,0.0,,,,825.4456472999882,210,21,male,True,8254,8259,False,False,inspiration,inspiration
277,99.0,25,M,up,0.575604600016959,1.3096447781679268,,experiment,emotion,0.0,,,,827.4955517000052,210,21,male,True,8274,8280,False,False,inspiration,inspiration
278,92.0,25,M,up,0.40020629996433854,1.6811217668360081,,experiment,emotion,0.0,,,,830.0121205999749,210,21,male,True,8299,8303,False,False,expiration,expiration
279,112.0,25,M,up,0.7107077999971807,0.597898088454468,,experiment,emotion,0.0,,,,831.2954075000017,210,21,male,True,8312,8319,False,False,expiration,expiration
280,92.0,25,M,down,0.7377948999637738,1.9250652645880904,,experiment,emotion,0.0,,,,834.1953096999788,210,21,male,True,8341,8348,False,False,inspiration,inspiration
281,105.0,25,F,up,0.8658310000319034,0.8387222752532921,,experiment,emotion,0.0,,,,836.0452576000242,210,21,male,True,8360,8369,False,False,inspiration,inspiration
282,105.0,25,M,up,0.8679387999000028,0.6543984194358194,,experiment,emotion,0.0,,,,837.8451693999814,210,21,male,True,8378,8387,False,False,inspiration,expiration
283,99.0,25,M,up,0.8917590999044478,0.30442045826016845,,experiment,emotion,0.0,,,,839.2784481999698,210,21,male,True,8392,8401,False,False,expiration,expiration
284,99.0,25,F,up,0.956373400054872,0.9183854165128004,,experiment,emotion,0.0,,,,841.3617280999898,210,21,male,True,8413,8423,False,False,expiration,expiration
285,92.0,25,M,down,1.3378611999796703,1.3368968793996985,,experiment,emotion,0.0,,,,843.9282609999646,210,21,male,True,8439,8452,False,False,expiration,peak
286,112.0,25,F,up,0.891219099983573,1.6987262067636315,,experiment,emotion,0.0,,,,847.2448763999855,210,21,male,True,8472,8481,False,False,trough,inspiration
287,105.0,25,F,up,0.6977109999861568,1.0571420898733963,,experiment,emotion,0.0,,,,849.4614215999609,210,21,male,True,8494,8501,False,False,expiration,expiration
288,92.0,25,M,down,0.6467428999021649,1.123195874129155,,experiment,emotion,0.0,,,,851.5613514999858,210,21,male,True,8515,8521,False,False,inspiration,expiration
289,112.0,25,M,up,0.7309031001059338,1.830788811677604,,experiment,emotion,0.0,,,,854.3112302999942,210,21,male,True,8542,8549,False,False,inspiration,inspiration
290,112.0,25,F,down,0.4722178999800235,0.4788578707660675,,experiment,emotion,0.0,,,,855.7778505999596,210,21,male,True,8557,8562,False,False,expiration,expiration
291,99.0,25,M,up,0.627317399950698,0.653176790182946,,experiment,emotion,0.0,,,,857.1778054999886,210,21,male,True,8571,8577,False,False,expiration,inspiration
292,92.0,25,F,down,0.9080702000064776,1.4151017315225254,,experiment,emotion,0.0,,,,859.5110343999695,210,21,male,True,8594,8603,False,False,expiration,expiration
293,99.0,25,F,down,0.8041530000045896,0.32361818907102635,,experiment,emotion,0.0,,,,861.010962100001,210,21,male,True,8609,8617,False,False,expiration,inspiration
294,105.0,25,F,up,0.7428814999293536,1.5087498287691528,,experiment,emotion,0.0,,,,863.5942198999692,210,21,male,True,8635,8642,False,False,expiration,expiration
295,92.0,25,M,up,0.4253055999288336,1.442508514911378,,experiment,emotion,0.0,,,,866.0607969000702,210,21,male,True,8660,8664,False,False,inspiration,expiration
296,112.0,25,M,up,0.5180183000629768,0.9808924826923162,,experiment,emotion,0.0,,,,867.7440878000342,210,21,male,True,8677,8682,False,False,expiration,inspiration
297,105.0,25,M,up,0.7893908999394625,0.7323438024060589,,experiment,emotion,0.0,,,,869.2606823999668,210,21,male,True,8692,8700,False,False,peak,expiration
298,112.0,25,F,up,0.8261604000581428,0.5701683614837889,,experiment,emotion,0.0,,,,870.8939487000463,210,21,male,True,8708,8716,False,False,expiration,inspiration
299,92.0,25,F,down,0.8285670999903232,1.6638611963297392,,experiment,emotion,0.0,,,,873.6605274999748,210,21,male,True,8736,8744,False,False,expiration,trough
300,105.0,25,M,up,0.8990029999986291,1.9186486849686892,,experiment,emotion,0.0,,,,876.6770991999657,210,21,male,True,8766,8775,False,False,expiration,expiration
301,99.0,25,F,up,0.5227767999749631,0.4117938669428797,,experiment,emotion,0.0,,,,878.2603253000417,210,21,male,True,8782,8787,False,False,inspiration,inspiration
302,99.0,25,M,down,0.7595467999344692,1.9436803041234243,,experiment,emotion,0.0,,,,880.9935782999963,210,21,male,True,8809,8817,False,False,expiration,inspiration
303,105.0,25,M,up,0.5919147999957204,1.29541168749955,,experiment,emotion,0.0,,,,883.3101777000121,210,21,male,True,8832,8838,False,False,expiration,expiration
304,112.0,25,M,down,0.6620114000979811,1.4839248316088045,,experiment,emotion,0.0,,,,885.6600722000003,210,21,male,True,8856,8863,False,False,peak,expiration
305,99.0,25,F,up,0.5201864999253303,1.7065407089676168,,experiment,emotion,0.0,,,,888.3099586999742,210,21,male,True,8882,8887,False,False,inspiration,inspiration
306,92.0,25,F,up,0.4775943999411538,1.810916199929887,,experiment,emotion,0.0,,,,890.9265351999784,210,21,male,True,8909,8914,False,False,expiration,expiration
307,92.0,25,M,up,0.5569477999815717,0.8723043048997285,,experiment,emotion,0.0,,,,892.5431536000688,210,21,male,True,8925,8931,False,False,inspiration,expiration
308,99.0,25,F,down,0.6089887999696657,0.4293114268127641,,experiment,emotion,0.0,,,,893.7931169000221,210,21,male,True,8937,8943,False,False,expiration,expiration
309,112.0,25,F,up,0.5840808999491856,1.5183565147078593,,experiment,emotion,0.0,,,,896.1930134000721,210,21,male,True,8961,8967,False,False,inspiration,expiration
310,105.0,25,M,up,0.6578296000370756,0.8617545007129443,,experiment,emotion,0.0,,,,897.9262708000606,210,21,male,True,8978,8985,False,False,expiration,inspiration
311,92.0,25,M,down,0.7432437000097707,1.3845178009909396,,experiment,emotion,0.0,,,,900.2428954000352,210,21,male,True,9002,9009,False,False,expiration,expiration
312,112.0,25,F,down,0.7039584000594914,0.4193247364673428,,experiment,emotion,0.0,,,,901.6761427000163,210,21,male,True,9016,9023,False,False,inspiration,inspiration
313,105.0,25,M,down,0.7627467999700457,0.9636759383973136,,experiment,emotion,0.0,,,,903.6094168999698,210,21,male,True,9035,9043,False,False,expiration,expiration
314,105.0,25,F,down,0.7481350000016391,1.6766942862351568,,experiment,emotion,0.0,,,,906.325964299962,210,21,male,True,9062,9069,False,False,expiration,expiration
315,92.0,25,F,down,0.7282440999988467,1.6461308614185577,,experiment,emotion,0.0,,,,908.9758672000607,210,21,male,True,9089,9096,False,False,inspiration,expiration
316,99.0,25,F,down,0.4167621999513358,0.4084435589658745,,experiment,emotion,0.0,,,,910.3924972000533,210,21,male,True,9103,9107,False,False,expiration,expiration
317,112.0,25,M,down,0.718030699994415,1.3312411125842956,,experiment,emotion,0.0,,,,912.4090599999763,210,21,male,True,9123,9130,False,False,inspiration,expiration
318,99.0,25,M,down,0.5840803999453783,0.7530468728276534,,experiment,emotion,0.0,,,,914.1590416000689,210,21,male,True,9141,9147,False,False,expiration,inspiration
319,99.0,25,F,down,0.8788312000688165,1.6386666162537438,,experiment,emotion,0.0,,,,916.642265600036,210,21,male,True,9166,9175,False,False,expiration,expiration
320,99.0,25,F,down,0.5595344000030309,0.53003000495438,,experiment,emotion,0.0,,,,918.3255604000296,210,21,male,True,9183,9189,False,False,inspiration,inspiration
321,112.0,25,M,up,0.8156857999274507,1.6257335062359923,,experiment,emotion,0.0,,,,920.7754492000676,210,21,male,True,9207,9215,False,False,expiration,inspiration
322,105.0,25,M,up,0.6274205999216065,1.83109684744502,,experiment,emotion,0.0,,,,923.708685599966,210,21,male,True,9236,9242,False,False,expiration,expiration
323,92.0,25,M,up,0.6451459999661893,0.9751812280262292,,experiment,emotion,0.0,,,,925.5919381000567,210,21,male,True,9255,9261,False,False,inspiration,expiration
324,92.0,25,M,up,0.7702338999370113,0.7288965647404817,,experiment,emotion,0.0,,,,927.2418610999595,210,21,male,True,9272,9280,False,False,expiration,inspiration
325,105.0,25,M,down,0.8186544999480247,1.8864324051825223,,experiment,emotion,0.0,,,,930.1584343999857,210,21,male,True,9301,9309,False,False,expiration,inspiration
326,112.0,25,F,up,0.7564119999296963,1.1633200296270312,,experiment,emotion,0.0,,,,932.4416853999719,210,21,male,True,9324,9332,False,False,expiration,expiration
327,112.0,25,F,up,0.5461523000849411,0.9499636587433606,,experiment,emotion,0.0,,,,934.4249464999884,210,21,male,True,9343,9348,False,False,inspiration,inspiration
328,92.0,25,M,up,0.5935979000059888,1.8053744282741333,,experiment,emotion,0.0,,,,937.0415269000224,210,21,male,True,9370,9376,False,False,expiration,inspiration
329,112.0,25,F,up,0.5466460000025108,1.2373768108673209,,experiment,emotion,0.0,,,,939.1414298999588,210,21,male,True,9391,9396,False,False,expiration,expiration
330,99.0,25,F,up,0.6093727999832481,0.5038727590638558,,experiment,emotion,0.0,,,,940.4747185000454,210,21,male,True,9404,9410,False,False,expiration,inspiration
331,105.0,25,F,up,0.4187907999148592,1.4713845420870817,,experiment,emotion,0.0,,,,942.8412991999647,210,21,male,True,9428,9432,False,False,expiration,expiration
332,99.0,25,M,up,0.6958288999740034,1.0075506698532557,,experiment,emotion,0.0,,,,944.5412308999803,210,21,male,True,9445,9452,False,False,inspiration,inspiration
333,92.0,25,F,up,1.0239360999548808,1.5929917899136057,,experiment,emotion,0.0,,,,947.0911156999646,210,21,male,True,9470,9480,False,False,expiration,inspiration
334,105.0,25,F,up,0.7624233999522403,1.3097458876204533,,experiment,emotion,0.0,,,,949.7076871000464,210,21,male,True,9496,9504,False,False,expiration,inspiration
335,99.0,25,F,up,0.6064575000200421,0.37005011440594143,,experiment,emotion,0.0,,,,951.1076482000062,210,21,male,True,9510,9516,False,False,inspiration,expiration
336,105.0,25,M,up,0.6741997000062838,1.8948321389257143,,experiment,emotion,0.0,,,,953.8908856000052,210,21,male,True,9538,9545,False,False,inspiration,peak
337,92.0,25,M,up,0.6682814999949187,1.2699770854666483,,experiment,emotion,0.0,,,,956.0908082000677,210,21,male,True,9560,9567,False,False,expiration,inspiration
338,112.0,25,F,up,0.7354186000302434,1.7030617538820219,,experiment,emotion,0.0,,,,958.7406909000129,210,21,male,True,9587,9594,False,False,expiration,expiration
339,105.0,25,M,up,0.5731421000091359,1.7288152063285094,,experiment,emotion,0.0,,,,961.473943399964,210,21,male,True,9614,9620,False,False,expiration,expiration
340,112.0,25,F,up,0.7413621000014246,1.1576627523152891,,experiment,emotion,0.0,,,,963.4738894000183,210,21,male,True,9634,9641,False,False,inspiration,inspiration
341,92.0,25,M,up,0.6739820999791846,0.8104973870584322,,experiment,emotion,0.0,,,,965.3071079000363,210,21,male,True,9652,9659,False,False,expiration,expiration
342,99.0,25,M,down,1.1714011000003666,1.28897731549423,,experiment,emotion,0.0,,,,967.5737171999644,210,21,male,True,9675,9687,False,False,inspiration,expiration
343,0.20600873288670732,25,up,up,0.450665699900128,1.6097351146171566,,experiment,cRDM,1.0,,,,973.8234134999803,210,21,male,True,9738,9743,False,False,inspiration,inspiration
344,0.20600873288670732,25,up,up,0.4676385000348091,1.1764740031413867,,experiment,cRDM,1.0,,,,975.723446500022,210,21,male,True,9757,9762,False,False,expiration,expiration
345,0.20600873288670732,25,down,down,0.5090889000566676,1.6392830092078368,,experiment,cRDM,1.0,,,,978.0899922000244,210,21,male,True,9780,9785,False,False,expiration,expiration
346,0.20600873288670732,25,down,down,0.5398098001023754,0.6639032689002531,,experiment,cRDM,1.0,,,,979.523313099984,210,21,male,True,9795,9800,False,False,expiration,inspiration
347,0.20600873288670732,25,up,up,0.4686400999780744,1.8786070928340384,,experiment,cRDM,1.0,,,,982.2064830999587,210,21,male,True,9821,9826,False,False,expiration,expiration
348,0.20600873288670732,25,down,down,0.5626497999764979,1.1769347075843,,experiment,cRDM,1.0,,,,984.1064336000708,210,21,male,True,9840,9846,False,False,inspiration,peak
349,0.20600873288670732,25,up,up,0.4513776999665424,1.4067783466704649,,experiment,cRDM,1.0,,,,986.3397116999839,210,21,male,True,9863,9868,False,False,expiration,inspiration
350,0.20600873288670732,25,up,up,0.5164728999370709,0.4825866303481703,,experiment,cRDM,1.0,,,,987.539682200062,210,21,male,True,9875,9880,False,False,inspiration,expiration
351,0.20600873288670732,25,down,down,0.367158200009726,1.79254190736011,,experiment,cRDM,1.0,,,,990.1062119000127,210,21,male,True,9900,9904,False,False,inspiration,inspiration
352,0.20600873288670732,25,down,down,0.4526176999788731,1.7621895329098582,,experiment,cRDM,1.0,,,,992.5394932000199,210,21,male,True,9925,9930,False,False,expiration,expiration
353,0.20600873288670732,25,down,down,0.5063723000930622,1.3278438346834454,,experiment,cRDM,1.0,,,,994.5727114999901,210,21,male,True,9945,9950,False,False,expiration,expiration
354,0.20600873288670732,25,down,down,0.5307935000164434,0.4281413016861509,,experiment,cRDM,1.0,,,,995.7893623000708,210,21,male,True,9957,9962,False,False,expiration,expiration
355,0.20600873288670732,25,down,up,0.5288497000001371,1.8133777843205192,,experiment,cRDM,1.0,,,,998.3892342000037,210,21,male,True,9983,9988,False,False,expiration,expiration
356,0.20600873288670732,25,down,down,0.4906759000150487,1.3819739182241877,,experiment,cRDM,1.0,,,,1000.5724885000383,210,21,male,True,10005,10010,False,False,inspiration,inspiration
357,0.20600873288670732,25,up,up,0.4839941000100225,0.4550889962238041,,experiment,cRDM,1.0,,,,1001.7891103000148,210,21,male,True,10017,10022,False,False,expiration,expiration
358,0.20600873288670732,25,up,up,0.6352119999937713,1.6685321128822252,,experiment,cRDM,1.0,,,,1004.1890284999972,210,21,male,True,10041,10047,False,False,inspiration,expiration
359,0.20600873288670732,25,up,up,0.5131563000613824,1.9610679232020949,,experiment,cRDM,1.0,,,,1007.038883500034,210,21,male,True,10070,10075,False,False,inspiration,inspiration
360,0.20600873288670732,25,up,up,0.5018847000319511,0.8629442819832178,,experiment,cRDM,1.0,,,,1008.672195799998,210,21,male,True,10086,10091,False,False,expiration,expiration
361,0.20600873288670732,25,down,down,0.5246466000098735,1.8188972361387812,,experiment,cRDM,1.0,,,,1011.2554534999654,210,21,male,True,10112,10117,False,False,inspiration,inspiration
362,0.20600873288670732,25,up,up,0.5350770999211818,1.5733383646670922,,experiment,cRDM,1.0,,,,1013.6219995999706,210,21,male,True,10136,10141,False,False,expiration,expiration
363,0.20600873288670732,25,up,up,0.5108273000223562,1.4400216051123118,,experiment,cRDM,1.0,,,,1015.8552688000493,210,21,male,True,10158,10163,False,False,inspiration,expiration
364,0.20600873288670732,25,down,down,0.5262000999646261,0.6405162336245912,,experiment,cRDM,1.0,,,,1017.2718863000628,210,21,male,True,10172,10177,False,False,expiration,expiration
365,0.20600873288670732,25,up,up,0.5187186000403017,1.1928027168254096,,experiment,cRDM,1.0,,,,1019.2383520000149,210,21,male,True,10192,10197,False,False,peak,expiration
366,0.20600873288670732,25,down,down,0.5030637999298051,1.2761426156877094,,experiment,cRDM,1.0,,,,1021.3050664999756,210,21,male,True,10212,10217,False,False,inspiration,inspiration
367,0.20600873288670732,25,down,up,0.5350679999683052,1.749865906233044,,experiment,cRDM,1.0,,,,1023.8049828000368,210,21,male,True,10237,10242,False,False,expiration,expiration
368,0.20600873288670732,25,up,up,0.4401737999869511,1.9505507327718268,,experiment,cRDM,1.0,,,,1026.5548914000392,210,21,male,True,10265,10269,False,False,expiration,expiration
369,0.20600873288670732,25,up,up,0.4939264999702573,1.2932568595717142,,experiment,cRDM,1.0,,,,1028.5381522000534,210,21,male,True,10285,10290,False,False,inspiration,expiration
370,0.20600873288670732,25,down,down,0.4410425999667496,1.690880271774737,,experiment,cRDM,1.0,,,,1030.9880365000572,210,21,male,True,10309,10313,False,False,inspiration,inspiration
371,0.20600873288670732,25,up,up,0.5147029000800103,0.8387041108179651,,experiment,cRDM,1.0,,,,1032.521342699998,210,21,male,True,10325,10330,False,False,expiration,expiration
372,0.20600873288670732,25,down,down,0.427828700048849,1.2610334686842672,,experiment,cRDM,1.0,,,,1034.5712276999839,210,21,male,True,10345,10349,False,False,inspiration,inspiration
373,0.20600873288670732,25,down,down,0.7876555999973789,1.5408067328527344,,experiment,cRDM,1.0,,,,1036.804461600026,210,21,male,True,10367,10375,False,False,expiration,inspiration
374,0.20600873288670732,25,down,down,0.6666339000221342,0.30040135863300177,,experiment,cRDM,1.0,,,,1038.1544450999936,210,21,male,True,10381,10388,False,False,inspiration,expiration
375,0.20600873288670732,25,up,up,0.6790427999803796,0.3968303839951576,,experiment,cRDM,1.0,,,,1039.4710526000708,210,21,male,True,10394,10401,False,False,expiration,expiration
376,0.20600873288670732,25,up,up,0.6518313999986276,1.6892931066799222,,experiment,cRDM,1.0,,,,1042.104287700029,210,21,male,True,10420,10427,False,False,expiration,expiration
377,0.20600873288670732,25,up,up,0.4699458000250161,1.6061140183153628,,experiment,cRDM,1.0,,,,1044.621132500004,210,21,male,True,10446,10451,False,False,inspiration,expiration
378,0.20600873288670732,25,down,down,0.5153289999580011,1.4137977422416703,,experiment,cRDM,1.0,,,,1046.7707979000406,210,21,male,True,10467,10472,False,False,expiration,inspiration
379,0.20600873288670732,25,down,down,0.5729716999921948,0.7123185215894272,,experiment,cRDM,1.0,,,,1048.2540587000549,210,21,male,True,10482,10488,False,False,expiration,expiration
380,0.20600873288670732,25,up,up,0.4354380000149831,1.8768792835546524,,experiment,cRDM,1.0,,,,1050.9706391000657,210,21,male,True,10509,10513,False,False,inspiration,peak
381,0.20600873288670732,25,down,down,0.4501763000153005,0.4949444604029113,,experiment,cRDM,1.0,,,,1052.1539190000622,210,21,male,True,10521,10526,False,False,expiration,expiration
382,0.20600873288670732,25,up,up,0.3837955000344664,1.4495686908023233,,experiment,cRDM,1.0,,,,1054.3205116000026,210,21,male,True,10543,10547,False,False,inspiration,expiration
383,0.20600873288670732,25,up,down,0.43902869999874383,1.9429741549599613,,experiment,cRDM,1.0,,,,1056.9370963000692,210,21,male,True,10569,10573,False,False,inspiration,inspiration
384,0.20600873288670732,25,up,up,0.5556942000985146,0.3095638839532987,,experiment,cRDM,1.0,,,,1057.9703884000191,210,21,male,True,10579,10585,False,False,expiration,expiration
385,0.20600873288670732,25,down,down,0.4168683000607416,1.438717842835212,,experiment,cRDM,1.0,,,,1060.2202650000106,210,21,male,True,10602,10606,False,False,inspiration,inspiration
386,0.20600873288670732,25,down,down,0.5108495000749826,0.8693960329478982,,experiment,cRDM,1.0,,,,1061.770245200023,210,21,male,True,10617,10622,False,False,expiration,expiration
387,0.20600873288670732,25,up,up,0.4899655000772327,1.3815465262429372,,experiment,cRDM,1.0,,,,1063.9201339000138,210,21,male,True,10639,10644,False,False,inspiration,expiration
388,0.20600873288670732,25,down,down,0.3504596999846399,0.7602120701122967,,experiment,cRDM,1.0,,,,1065.436794899986,210,21,male,True,10654,10658,False,False,expiration,expiration
389,0.20600873288670732,25,down,down,0.5271270999219269,1.3975592108775752,,experiment,cRDM,1.0,,,,1067.5200093999738,210,21,male,True,10675,10680,False,False,inspiration,expiration
390,0.20600873288670732,25,up,up,0.5664145000046119,0.8243969314117345,,experiment,cRDM,1.0,,,,1069.1366741000677,210,21,male,True,10691,10697,False,False,expiration,expiration
391,0.20600873288670732,25,up,down,0.4192415999714285,1.5634050397065309,,experiment,cRDM,1.0,,,,1071.5198842000682,210,21,male,True,10715,10719,False,False,expiration,expiration
392,0.20600873288670732,25,down,up,0.604653500020504,0.3815581497327105,,experiment,cRDM,1.0,,,,1072.5864757000236,210,21,male,True,10725,10731,False,False,expiration,expiration
393,0.20600873288670732,25,up,up,0.5546597000211477,1.6856781598573618,,experiment,cRDM,1.0,,,,1075.1364360000007,210,21,male,True,10751,10757,False,False,expiration,expiration
394,0.20600873288670732,25,down,down,0.450079399975948,0.9490639365366214,,experiment,cRDM,1.0,,,,1076.9029977000318,210,21,male,True,10768,10773,False,False,inspiration,inspiration
395,0.20600873288670732,25,down,down,0.38382789993193,1.9145148498317641,,experiment,cRDM,1.0,,,,1079.5362620999804,210,21,male,True,10795,10799,False,False,expiration,expiration
396,0.20600873288670732,25,down,down,0.4278444000519812,0.5258724069082736,,experiment,cRDM,1.0,,,,1080.7362274000188,210,21,male,True,10807,10811,False,False,expiration,inspiration
397,0.20600873288670732,25,up,down,0.40028709999751294,1.1969348819221224,,experiment,cRDM,1.0,,,,1082.6361360000446,210,21,male,True,10826,10830,False,False,expiration,expiration
398,0.20600873288670732,25,up,up,0.5799893999937922,0.6591094076869198,,experiment,cRDM,1.0,,,,1083.9860824999632,210,21,male,True,10839,10845,False,False,expiration,trough
399,0.20600873288670732,25,down,down,0.5154039000626653,0.7444541913331421,,experiment,cRDM,1.0,,,,1085.552698399988,210,21,male,True,10855,10860,False,False,inspiration,expiration
400,0.20600873288670732,25,down,down,0.5157917999895291,1.1339998766500985,,experiment,cRDM,1.0,,,,1087.4692762000486,210,21,male,True,10874,10879,False,False,expiration,expiration
401,0.20600873288670732,25,up,up,0.7429067000048235,0.679484024458731,,experiment,cRDM,1.0,,,,1088.9191589000402,210,21,male,True,10889,10896,False,False,inspiration,inspiration
402,0.20600873288670732,25,up,down,0.44722749991342425,0.6550472818883353,,experiment,cRDM,1.0,,,,1090.5858409999637,210,21,male,True,10905,10909,False,False,expiration,expiration
403,0.20600873288670732,25,up,up,0.5982859000796452,0.3079186856159378,,experiment,cRDM,1.0,,,,1091.5857826999854,210,21,male,True,10915,10921,False,False,expiration,inspiration
404,0.20600873288670732,25,up,up,0.616005799965933,0.5826469719429341,,experiment,cRDM,1.0,,,,1093.0191143000266,210,21,male,True,10930,10936,False,False,inspiration,expiration
405,0.20600873288670732,25,up,up,0.4257037000497803,0.7959462125722965,,experiment,cRDM,1.0,,,,1094.7023341000313,210,21,male,True,10946,10950,False,False,expiration,expiration
406,0.20600873288670732,25,down,down,0.606423299992457,0.5902428675592173,,experiment,cRDM,1.0,,,,1095.98564790003,210,21,male,True,10959,10965,False,False,inspiration,inspiration
407,0.20600873288670732,25,down,down,0.6522378000663593,0.3711068977729752,,experiment,cRDM,1.0,,,,1097.2188426000066,210,21,male,True,10972,10979,False,False,expiration,expiration
408,0.20600873288670732,25,up,up,0.5615507999900728,1.804405193131088,,experiment,cRDM,1.0,,,,1099.9355208000634,210,21,male,True,10999,11005,False,False,inspiration,expiration
409,0.20600873288670732,25,down,down,0.4168129999889061,1.489473316322674,,experiment,cRDM,1.0,,,,1102.2520464999834,210,21,male,True,11022,11026,False,False,expiration,inspiration
410,0.20600873288670732,25,down,down,0.5454011999536306,0.6352438778630413,,experiment,cRDM,1.0,,,,1103.5686851000646,210,21,male,True,11035,11040,False,False,inspiration,expiration
411,0.20600873288670732,25,down,down,0.5425075000384822,1.0313192532352338,,experiment,cRDM,1.0,,,,1105.4186176999938,210,21,male,True,11054,11059,False,False,expiration,inspiration
412,0.20600873288670732,25,up,up,0.4745759000070393,1.943823876382539,,experiment,cRDM,1.0,,,,1108.1685250999872,210,21,male,True,11081,11086,False,False,expiration,expiration
413,0.20600873288670732,25,down,down,0.4626664000097662,0.5522536174127647,,experiment,cRDM,1.0,,,,1109.468467000057,210,21,male,True,11094,11099,False,False,expiration,inspiration
414,0.20600873288670732,25,down,down,0.4376540000084788,0.5184448159338825,,experiment,cRDM,1.0,,,,1110.7184154000133,210,21,male,True,11107,11111,False,False,inspiration,expiration
415,0.20600873288670732,25,down,down,0.5124305000063032,1.1356728051490022,,experiment,cRDM,1.0,,,,1112.5517224000066,210,21,male,True,11125,11130,False,False,expiration,trough
416,0.20600873288670732,25,up,up,0.5733958000782877,0.3308380766431596,,experiment,cRDM,1.0,,,,1113.651725600008,210,21,male,True,11136,11142,False,False,inspiration,inspiration
417,0.20600873288670732,25,up,up,0.44406979996711016,0.6015340013865262,,experiment,cRDM,1.0,,,,1115.0849536999594,210,21,male,True,11150,11154,False,False,expiration,expiration
418,0.20600873288670732,25,down,down,0.464860099949874,0.8277067968894385,,experiment,cRDM,1.0,,,,1116.6182028000476,210,21,male,True,11165,11170,False,False,inspiration,inspiration
419,0.20600873288670732,25,up,up,0.4779509999789298,0.9701730212693388,,experiment,cRDM,1.0,,,,1118.3181172000477,210,21,male,True,11182,11187,False,False,expiration,expiration
420,0.20600873288670732,25,down,down,0.4289977999869734,1.2551832619297951,,experiment,cRDM,1.0,,,,1120.3180625999812,210,21,male,True,11202,11206,False,False,inspiration,inspiration
421,0.20600873288670732,25,up,up,0.4331021999241784,1.27044535969277,,experiment,cRDM,1.0,,,,1122.2679908999708,210,21,male,True,11222,11226,False,False,expiration,expiration
422,0.20600873288670732,25,up,up,0.5251575000584126,1.5618550142977548,,experiment,cRDM,1.0,,,,1124.5179043000098,210,21,male,True,11244,11249,False,False,expiration,expiration
423,112.0,25,M,down,1.0152798000490293,1.2827090508585772,,experiment,emotion,1.0,,,,1161.7998608000346,210,21,male,True,11617,11627,False,False,expiration,expiration
424,92.0,25,M,down,1.1049360000761226,1.1815820136554187,,experiment,emotion,1.0,,,,1164.2831147999968,210,21,male,True,11642,11653,False,False,expiration,inspiration
425,105.0,25,F,down,0.7867673999862745,0.8254139100960778,,experiment,emotion,1.0,,,,1166.516335500055,210,21,male,True,11665,11673,False,False,expiration,expiration
426,112.0,25,F,down,0.8488386999815702,1.3062681275591903,,experiment,emotion,1.0,,,,1168.8662674999796,210,21,male,True,11688,11696,False,False,expiration,expiration
427,105.0,25,M,down,0.9425476999022068,1.7714049219229278,,experiment,emotion,1.0,,,,1171.7495230999775,210,21,male,True,11717,11726,False,False,expiration,expiration
428,99.0,25,F,down,0.8203491999302059,1.8492183537505782,,experiment,emotion,1.0,,,,1174.8327363000715,210,21,male,True,11748,11756,False,False,inspiration,expiration
429,92.0,25,M,down,0.9287103000096976,0.7680213559465618,,experiment,emotion,1.0,,,,1176.699309800053,210,21,male,True,11766,11775,False,False,expiration,expiration
430,99.0,25,M,down,1.0274821000639351,1.7855320770887055,,experiment,emotion,1.0,,,,1179.6825634000124,210,21,male,True,11796,11806,False,False,expiration,expiration
431,112.0,25,F,up,1.0399165999842808,0.52055364301012,,experiment,emotion,1.0,,,,1181.4991368000626,210,21,male,True,11814,11824,False,False,inspiration,inspiration
432,99.0,25,F,down,1.0520212000701576,1.4017573536534924,,experiment,emotion,1.0,,,,1184.1990309000248,210,21,male,True,11841,11852,False,False,expiration,inspiration
433,105.0,25,F,up,1.4054180000675842,0.7397229777588141,,experiment,emotion,1.0,,,,1186.2656443000305,210,21,male,True,11862,11876,False,False,expiration,expiration
434,112.0,25,F,down,0.9052556999959052,1.6756279657655666,,experiment,emotion,1.0,,,,1189.615774600068,210,21,male,True,11896,11905,False,False,inspiration,expiration
435,105.0,25,F,up,0.6973013000097126,1.656414722545156,,experiment,emotion,1.0,,,,1192.4487579000415,210,21,male,True,11924,11931,False,False,inspiration,inspiration
436,92.0,25,F,down,0.8096992999780923,0.6522933592697906,,experiment,emotion,1.0,,,,1194.065352100064,210,21,male,True,11940,11948,False,False,expiration,expiration
437,99.0,25,M,up,0.693513400037773,0.8890549240402459,,experiment,emotion,1.0,,,,1196.048617099994,210,21,male,True,11960,11967,False,False,inspiration,inspiration
438,92.0,25,M,down,0.8968399000586942,0.7502345192342511,,experiment,emotion,1.0,,,,1197.765212600003,210,21,male,True,11977,11986,False,False,expiration,expiration
439,112.0,25,M,up,0.8356228000484407,1.9030000203033184,,experiment,emotion,1.0,,,,1200.848432000028,210,21,male,True,12008,12016,False,False,expiration,expiration
440,92.0,25,M,down,0.8826866999734193,1.9875364736130787,,experiment,emotion,1.0,,,,1203.9483311000513,210,21,male,True,12039,12048,False,False,expiration,expiration
441,105.0,25,F,up,0.3668347999919206,0.7961455522808463,,experiment,emotion,1.0,,,,1205.914911800064,210,21,male,True,12059,12063,False,False,inspiration,inspiration
442,105.0,25,M,down,0.4167699000099674,1.7842830484512064,,experiment,emotion,1.0,,,,1208.3814838000108,210,21,male,True,12083,12087,False,False,expiration,expiration
443,99.0,25,M,down,1.2669807999627665,1.7257738551763664,,experiment,emotion,1.0,,,,1210.7980643999765,210,21,male,True,12107,12120,False,False,expiration,expiration
444,99.0,25,F,down,0.790121000027284,1.3055367626579102,,experiment,emotion,1.0,,,,1213.6479485000016,210,21,male,True,12136,12144,False,False,inspiration,expiration
445,92.0,25,M,down,0.513166599906981,1.8100390749677948,,experiment,emotion,1.0,,,,1216.5478801999707,210,21,male,True,12165,12170,False,False,inspiration,inspiration
446,112.0,25,F,down,0.6272454999852926,0.9469104683665508,,experiment,emotion,1.0,,,,1218.2977685000515,210,21,male,True,12182,12188,False,False,expiration,expiration
447,105.0,25,F,down,0.856338300043717,0.7980280438107523,,experiment,emotion,1.0,,,,1219.9977140000556,210,21,male,True,12199,12208,False,False,inspiration,inspiration
448,92.0,25,M,down,0.6574539999710396,1.3685630416067145,,experiment,emotion,1.0,,,,1222.4976301999995,210,21,male,True,12224,12231,False,False,expiration,expiration
449,112.0,25,M,down,0.4845669999485835,1.415691631119699,,experiment,emotion,1.0,,,,1224.8475532999728,210,21,male,True,12248,12253,True,True,inspiration,expiration
450,112.0,25,F,down,1.4585270000388846,0.4423366376683573,,experiment,emotion,1.0,,,,1226.0475041000172,210,21,male,True,12260,12275,True,True,expiration,expiration
451,99.0,25,M,down,0.88808359997347,1.9213939379051523,,experiment,emotion,1.0,,,,1229.7139573000604,210,21,male,True,12297,12306,True,True,peak,expiration
452,92.0,25,F,down,0.7111447000643238,1.1858037989936798,,experiment,emotion,1.0,,,,1232.0639525000004,210,21,male,True,12320,12327,True,False,expiration,inspiration
453,99.0,25,F,up,0.8171644000103697,0.4642225173449387,,experiment,emotion,1.0,,,,1233.513882900006,210,21,male,True,12335,12343,False,False,inspiration,expiration
454,105.0,25,F,down,0.7048982999986038,1.237474578565415,,experiment,emotion,1.0,,,,1235.8471520000605,210,21,male,True,12358,12365,False,False,inspiration,inspiration
455,92.0,25,M,up,0.7717066999757662,1.1649261286261865,,experiment,emotion,1.0,,,,1237.980394100072,210,21,male,True,12379,12387,False,False,expiration,expiration
456,112.0,25,M,up,0.574472300009802,1.822748957344131,,experiment,emotion,1.0,,,,1240.8636329000585,210,21,male,True,12408,12414,False,False,expiration,expiration
457,105.0,25,M,up,1.1331596000818536,1.241241178817799,,experiment,emotion,1.0,,,,1242.9468874000013,210,21,male,True,12429,12440,False,False,inspiration,inspiration
458,112.0,25,F,down,0.8222274000290781,1.3390993345049027,,experiment,emotion,1.0,,,,1245.6967832000228,210,21,male,True,12456,12464,False,False,expiration,inspiration
459,92.0,25,F,down,1.0990244999993593,1.254167617703941,,experiment,emotion,1.0,,,,1248.030023499974,210,21,male,True,12480,12491,False,False,expiration,expiration
460,105.0,25,M,up,0.8477553999982774,0.4613386579105164,,experiment,emotion,1.0,,,,1249.863287699991,210,21,male,True,12498,12506,False,False,expiration,inspiration
461,99.0,25,F,up,0.7538556000217795,1.4441628414717598,,experiment,emotion,1.0,,,,1252.4631872000173,210,21,male,True,12524,12532,False,False,expiration,expiration
462,99.0,25,M,up,0.6792299000080675,1.4357291280698612,,experiment,emotion,1.0,,,,1254.929795700009,210,21,male,True,12549,12556,False,False,inspiration,expiration
463,105.0,25,M,up,0.8940223999088629,0.3712362888726135,,experiment,emotion,1.0,,,,1256.2630219999699,210,21,male,True,12562,12571,False,False,expiration,expiration
464,112.0,25,M,up,0.7410555999958888,0.6285880666882083,,experiment,emotion,1.0,,,,1258.0629886999961,210,21,male,True,12580,12587,False,False,inspiration,inspiration
465,99.0,25,F,up,0.6200743999797851,0.7916927458075554,,experiment,emotion,1.0,,,,1259.862934099976,210,21,male,True,12598,12604,False,False,expiration,expiration
466,92.0,25,F,up,0.6815205999882892,0.8639787173333522,,experiment,emotion,1.0,,,,1261.6295233999845,210,21,male,True,12616,12623,False,False,inspiration,inspiration
467,92.0,25,M,up,0.8379279999062419,1.0552654488858404,,experiment,emotion,1.0,,,,1263.6461117999859,210,21,male,True,12636,12644,False,False,expiration,expiration
468,99.0,25,F,up,0.5832945000147447,0.8445906065126079,,experiment,emotion,1.0,,,,1265.6127386000007,210,21,male,True,12656,12662,False,False,inspiration,inspiration
469,112.0,25,F,down,0.5764409999828786,1.7901733470933867,,experiment,emotion,1.0,,,,1268.2625991000095,210,21,male,True,12682,12688,False,False,expiration,inspiration
470,105.0,25,M,down,0.6008794000372291,1.5573464656221616,,experiment,emotion,1.0,,,,1270.6791662999894,210,21,male,True,12706,12712,False,False,expiration,expiration
471,92.0,25,M,down,0.6388932999689132,0.9745476651478976,,experiment,emotion,1.0,,,,1272.5291331000626,210,21,male,True,12725,12731,False,False,inspiration,inspiration
472,112.0,25,F,up,0.6967244000406936,1.8773974128776951,,experiment,emotion,1.0,,,,1275.312354200054,210,21,male,True,12753,12760,False,False,trough,inspiration
473,105.0,25,M,up,0.7054304999765009,0.7531783798187794,,experiment,emotion,1.0,,,,1277.0456238000188,210,21,male,True,12770,12777,False,False,expiration,expiration
474,105.0,25,F,up,0.9825888999039308,1.6669636188660333,,experiment,emotion,1.0,,,,1279.6955073999707,210,21,male,True,12796,12806,False,False,inspiration,expiration
475,92.0,25,F,up,0.5875770000275224,0.4003697204162926,,experiment,emotion,1.0,,,,1281.3454657000254,210,21,male,True,12813,12819,False,False,expiration,expiration
476,99.0,25,F,up,0.8387316999724135,1.3840909218996909,,experiment,emotion,1.0,,,,1283.5953681999815,210,21,male,True,12835,12843,False,False,inspiration,expiration
477,112.0,25,M,up,0.6167893999954686,0.4422773155030659,,experiment,emotion,1.0,,,,1285.1453154999765,210,21,male,True,12851,12857,False,False,expiration,expiration
478,99.0,25,M,up,0.5251318999798968,0.5656173411759577,,experiment,emotion,1.0,,,,1286.6119093999732,210,21,male,True,12866,12871,False,False,inspiration,inspiration
479,99.0,25,F,up,0.416778500075452,0.8198512716204915,,experiment,emotion,1.0,,,,1288.2285513000095,210,21,male,True,12882,12886,False,False,expiration,expiration
480,99.0,25,F,up,0.6612076000310481,1.4423966865623823,,experiment,emotion,1.0,,,,1290.361791800009,210,21,male,True,12903,12910,False,False,inspiration,inspiration
481,112.0,25,M,up,0.4254989000037313,0.8120417433829243,,experiment,emotion,1.0,,,,1292.1115835000528,210,21,male,True,12921,12925,False,False,expiration,expiration
482,105.0,25,M,up,0.9647024000296368,1.808626801573692,,experiment,emotion,1.0,,,,1294.6283368000295,210,21,male,True,12946,12956,False,False,expiration,expiration
483,92.0,25,M,up,0.7921716999262571,1.1158041822724651,,experiment,emotion,1.0,,,,1296.9948919999879,210,21,male,True,12969,12977,False,False,inspiration,inspiration
484,92.0,25,M,down,0.589609400019981,0.9565968111070716,,experiment,emotion,1.0,,,,1299.0114538000196,210,21,male,True,12990,12996,False,False,expiration,expiration
485,105.0,25,M,down,1.1829494999255985,0.8465928955672302,,experiment,emotion,1.0,,,,1300.7280878999734,210,21,male,True,13007,13019,False,False,inspiration,expiration
486,112.0,25,F,down,0.7183518999954686,0.3660016724466636,,experiment,emotion,1.0,,,,1302.5446838999633,210,21,male,True,13025,13032,False,False,expiration,inspiration
487,112.0,25,F,down,0.9174680000869556,1.8211574055030784,,experiment,emotion,1.0,,,,1305.3445750999965,210,21,male,True,13053,13062,False,False,expiration,expiration
488,92.0,25,M,down,0.9945342999417336,0.8590729105982758,,experiment,emotion,1.0,,,,1307.3944890999699,210,21,male,True,13073,13083,False,False,inspiration,expiration
489,112.0,25,F,up,1.33929839998018,0.6701484101346441,,experiment,emotion,1.0,,,,1309.3277472000336,210,21,male,True,13093,13106,False,False,expiration,inspiration
490,99.0,25,F,up,0.7110642000334337,0.7058103792048387,,experiment,emotion,1.0,,,,1311.6610125000589,210,21,male,True,13116,13123,False,False,expiration,expiration
491,105.0,25,F,up,0.7177316999295726,0.3310820221722669,,experiment,emotion,1.0,,,,1312.9942744000582,210,21,male,True,13129,13136,False,False,expiration,inspiration
492,99.0,25,M,up,0.985811399994418,0.9106145279420804,,experiment,emotion,1.0,,,,1314.894206100027,210,21,male,True,13148,13158,False,False,expiration,expiration
493,92.0,25,F,up,1.746218999964185,0.8022377530104967,,experiment,emotion,1.0,,,,1316.9608052000403,210,21,male,True,13169,13186,False,False,inspiration,expiration
494,105.0,25,F,down,1.01868049998302,0.7985071489176998,,experiment,emotion,1.0,,,,1319.7773649999872,210,21,male,True,13197,13207,False,False,trough,inspiration
495,99.0,25,F,down,0.7284118999959901,1.99964921422094,,experiment,emotion,1.0,,,,1323.0606185999932,210,21,male,True,13230,13237,False,False,inspiration,inspiration
496,105.0,25,M,down,0.9785640999907628,0.5447922872803824,,experiment,emotion,1.0,,,,1324.6105234000133,210,21,male,True,13246,13256,False,False,expiration,expiration
497,92.0,25,M,down,0.7659186000237241,0.4634370181423989,,experiment,emotion,1.0,,,,1326.3271154999966,210,21,male,True,13263,13271,False,False,inspiration,inspiration
498,112.0,25,F,down,0.8463129999581724,0.8638876599402738,,experiment,emotion,1.0,,,,1328.243724900065,210,21,male,True,13282,13290,False,False,expiration,expiration
499,105.0,25,M,up,0.9063592000165954,0.4297918089767431,,experiment,emotion,1.0,,,,1329.793670300045,210,21,male,True,13297,13306,False,False,inspiration,inspiration
500,112.0,25,F,up,0.6726632000645623,0.5128579474697559,,experiment,emotion,1.0,,,,1331.493379099993,210,21,male,True,13314,13321,False,False,expiration,expiration
501,92.0,25,M,down,0.775888100033626,1.4808789243396083,,experiment,emotion,1.0,,,,1333.9101253000556,210,21,male,True,13339,13347,False,False,inspiration,expiration
502,99.0,25,M,down,0.6970615000464022,1.7497325405866753,,experiment,emotion,1.0,,,,1336.7099910000106,210,21,male,True,13367,13374,False,False,inspiration,inspiration
503,0.20600873288670732,25,up,up,0.5779477999312803,1.1764660884524032,,experiment,cRDM,2.0,,,,1343.6931386999786,210,21,male,True,13436,13442,False,False,inspiration,inspiration
504,0.20600873288670732,25,up,up,0.6416124000679702,0.7907419470719744,,experiment,cRDM,2.0,,,,1345.3264573999913,210,21,male,True,13453,13459,False,False,inspiration,expiration
505,0.20600873288670732,25,down,down,0.6656026000855491,0.3961002693079735,,experiment,cRDM,2.0,,,,1346.6264072000051,210,21,male,True,13466,13473,False,False,expiration,expiration
506,0.20600873288670732,25,down,down,0.4729802999645472,0.6015471749542616,,experiment,cRDM,2.0,,,,1348.1430144000333,210,21,male,True,13481,13486,False,False,expiration,expiration
507,0.20600873288670732,25,up,up,0.8120913000311702,0.6135996824873032,,experiment,cRDM,2.0,,,,1349.4929608000675,210,21,male,True,13494,13502,False,False,expiration,expiration
508,0.20600873288670732,25,down,down,0.450186200090684,1.377967035326584,,experiment,cRDM,2.0,,,,1351.9428511000006,210,21,male,True,13519,13524,False,False,inspiration,expiration
509,0.20600873288670732,25,up,up,0.5467126000439748,1.9541893254817344,,experiment,cRDM,2.0,,,,1354.6093186000362,210,21,male,True,13546,13551,False,False,inspiration,inspiration
510,0.20600873288670732,25,up,up,0.4697174000320956,1.8016173455151965,,experiment,cRDM,2.0,,,,1357.2093148999847,210,21,male,True,13572,13577,False,False,inspiration,inspiration
511,0.20600873288670732,25,down,down,0.5580862999195233,1.1919707797575545,,experiment,cRDM,2.0,,,,1359.1259601999773,210,21,male,True,13591,13597,False,False,expiration,expiration
512,0.20600873288670732,25,down,down,0.5418946999125183,0.9039729429084424,,experiment,cRDM,2.0,,,,1360.8591883999761,210,21,male,True,13608,13613,False,False,inspiration,peak
513,0.20600873288670732,25,down,down,0.6669181999750435,0.398649757809901,,experiment,cRDM,2.0,,,,1362.059138200013,210,21,male,True,13620,13627,False,False,expiration,expiration
514,0.20600873288670732,25,down,down,0.7166483999462798,1.7424248399635678,,experiment,cRDM,2.0,,,,1364.7423780000536,210,21,male,True,13647,13654,False,False,expiration,expiration
515,0.20600873288670732,25,down,down,0.6637747000204399,1.451384296142919,,experiment,cRDM,2.0,,,,1367.192270200001,210,21,male,True,13671,13678,False,False,inspiration,peak
516,0.20600873288670732,25,down,up,1.0294687999412415,1.4079177682160644,,experiment,cRDM,2.0,,,,1369.5255690000486,210,21,male,True,13695,13705,False,False,expiration,inspiration
517,0.20600873288670732,25,up,up,0.7669836999848485,1.538189837718536,,experiment,cRDM,2.0,,,,1372.3420985999985,210,21,male,True,13723,13731,False,False,expiration,expiration
518,0.20600873288670732,25,up,up,0.5909891000483185,1.1706314990448572,,experiment,cRDM,2.0,,,,1374.542034800048,210,21,male,True,13745,13751,False,False,inspiration,inspiration
519,0.20600873288670732,25,up,up,0.5362124999519438,1.980189493418908,,experiment,cRDM,2.0,,,,1377.391883400036,210,21,male,True,13773,13778,False,False,inspiration,inspiration
520,0.20600873288670732,25,up,up,0.4892449999460951,1.3851485538736017,,experiment,cRDM,2.0,,,,1379.59181360004,210,21,male,True,13795,13800,False,False,expiration,expiration
521,0.20600873288670732,25,down,down,0.5912784000393003,1.0469853396408966,,experiment,cRDM,2.0,,,,1381.3917419000063,210,21,male,True,13813,13819,False,False,inspiration,inspiration
522,0.20600873288670732,25,up,up,0.5646413000067696,0.41028704249503545,,experiment,cRDM,2.0,,,,1382.6583891999908,210,21,male,True,13826,13832,False,False,expiration,expiration
523,0.20600873288670732,25,up,up,0.62274120002985,0.9222776001863248,,experiment,cRDM,2.0,,,,1384.4082866000244,210,21,male,True,13844,13850,False,False,inspiration,inspiration
524,0.20600873288670732,25,down,down,0.5798185999738052,1.7198954239459037,,experiment,cRDM,2.0,,,,1387.0082059999695,210,21,male,True,13870,13876,False,False,expiration,expiration
525,0.20600873288670732,25,up,up,0.553858800092712,1.2476375032263023,,experiment,cRDM,2.0,,,,1389.1081675000025,210,21,male,True,13891,13897,False,False,inspiration,expiration
526,0.20600873288670732,25,down,down,0.416751499986276,1.8427136467548144,,experiment,cRDM,2.0,,,,1391.7580696999796,210,21,male,True,13917,13921,False,False,inspiration,inspiration
527,0.20600873288670732,25,down,down,0.6411170000210404,1.4274062824948617,,experiment,cRDM,2.0,,,,1393.857966599986,210,21,male,True,13938,13944,False,False,expiration,expiration
528,0.20600873288670732,25,up,up,0.4721468000207096,1.5010453817167906,,experiment,cRDM,2.0,,,,1396.257880100049,210,21,male,True,13962,13967,False,False,expiration,expiration
529,0.20600873288670732,25,up,up,0.6545021999627352,1.1279010989523202,,experiment,cRDM,2.0,,,,1398.1245029000565,210,21,male,True,13981,13988,False,False,inspiration,inspiration
530,0.20600873288670732,25,down,down,0.4863593000918627,0.9891060249476542,,experiment,cRDM,2.0,,,,1400.0246775000126,210,21,male,True,14000,14005,False,False,expiration,expiration
531,0.20600873288670732,25,up,up,0.6866355999372901,0.7098591564628924,,experiment,cRDM,2.0,,,,1401.474355100072,210,21,male,True,14014,14021,False,False,inspiration,inspiration
532,0.20600873288670732,25,down,down,0.5943516999250278,1.3365336491293196,,experiment,cRDM,2.0,,,,1403.757607300067,210,21,male,True,14037,14043,False,False,expiration,trough
533,0.20600873288670732,25,down,up,0.5392451999941841,1.3965414596617909,,experiment,cRDM,2.0,,,,1405.9908384999726,210,21,male,True,14060,14065,False,False,expiration,expiration
534,0.20600873288670732,25,down,down,0.4428639999823645,1.6625530583524148,,experiment,cRDM,2.0,,,,1408.4741166000022,210,21,male,True,14084,14088,False,False,inspiration,inspiration
535,0.20600873288670732,25,up,up,0.5547935999929905,1.7313519596245162,,experiment,cRDM,2.0,,,,1410.9072762000144,210,21,male,True,14109,14115,False,False,expiration,inspiration
536,0.20600873288670732,25,up,up,0.4384379999246448,0.4686653450550626,,experiment,cRDM,2.0,,,,1412.1906303999713,210,21,male,True,14122,14126,False,False,inspiration,expiration
537,0.20600873288670732,25,up,up,0.35050490009598434,1.3135125380818706,,experiment,cRDM,2.0,,,,1414.1905402999835,210,21,male,True,14142,14146,False,False,expiration,inspiration
538,0.20600873288670732,25,down,up,0.3343122999649495,0.8760639958678023,,experiment,cRDM,2.0,,,,1415.7571647999575,210,21,male,True,14157,14160,False,False,inspiration,expiration
539,0.20600873288670732,25,down,down,0.6135809000115842,0.3022397214399991,,experiment,cRDM,2.0,,,,1416.740461600013,210,21,male,True,14167,14173,False,False,expiration,expiration
