,stimLvl,stimTime,rand,response,rt,precedingITI,trialNumber,trialType,stimuli,block,estIntens,estThres,estSlope,trialStart,subject,age,gender,headRest,onset,responsI,manBadOnset,manBadRespons,onset_phase,respons_phase
0,150.0,100,F,,,1.9151356495979452,,introTrial,emotion,,,,,228.2315626999989,211,25,male,True,2281,0,False,False,expiration,0
1,0.9,100,down,,,0.5776939339741263,,introTrial,cRDM,,,,,232.748071,211,25,male,True,2326,0,False,False,expiration,0
2,0.9,25,up,up,0.7081355000009353,0.951413290073038,,tutorial,cRDM,,,,,274.0797540000003,211,25,male,True,2740,2747,False,False,trough,inspiration
3,0.9,25,up,up,0.7753399000011996,0.4805080455058809,,tutorial,cRDM,,,,,275.54651360000025,211,25,male,True,2754,2762,False,False,expiration,expiration
4,0.9,25,up,up,0.6364417999993748,1.985100173301196,,tutorial,cRDM,,,,,278.59641009999905,211,25,male,True,2785,2791,False,False,expiration,expiration
5,0.9,25,down,down,0.9482325000008132,1.7252045068333268,,tutorial,cRDM,,,,,281.22964469999897,211,25,male,True,2811,2820,False,False,trough,inspiration
6,0.9,25,up,down,0.7309574999999313,0.7097664077119158,,tutorial,cRDM,,,,,283.1628889999992,211,25,male,True,2830,2837,False,False,expiration,expiration
7,0.9,25,down,down,0.543058100000053,0.7840253886482018,,tutorial,cRDM,,,,,284.96281689999887,211,25,male,True,2848,2853,False,False,expiration,inspiration
8,0.9,25,up,up,0.3838568999999552,0.7820112996831037,,tutorial,cRDM,,,,,286.5627576000006,211,25,male,True,2864,2868,False,False,expiration,expiration
9,0.9,25,down,down,0.6037560000004305,1.1934823996467163,,tutorial,cRDM,,,,,288.4460571999989,211,25,male,True,2883,2889,False,False,expiration,inspiration
10,0.9,25,down,down,0.5975721000013436,1.0041580337161518,,tutorial,cRDM,,,,,290.32930599999963,211,25,male,True,2902,2908,False,False,expiration,expiration
11,0.9,25,down,down,0.4583570000013424,0.4553087022908791,,tutorial,cRDM,,,,,291.6795087999999,211,25,male,True,2916,2921,False,False,expiration,expiration
12,200.0,25,M,up,1.5208979999988514,1.717939479896126,,tutorial,emotion,,,,,299.52897019999915,211,25,male,True,2994,3009,False,False,inspiration,expiration
13,200.0,25,M,up,0.8880220000010013,1.9046899902478367,,tutorial,emotion,,,,,303.2288595999998,211,25,male,True,3031,3040,False,False,expiration,inspiration
14,200.0,25,F,up,0.7578008000000409,0.7675850478751391,,tutorial,emotion,,,,,305.1620734999997,211,25,male,True,3050,3058,False,False,expiration,expiration
15,0.0,25,F,down,0.6878843000013148,1.801432898040363,,tutorial,emotion,,,,,308.0119945999995,211,25,male,True,3079,3086,False,False,inspiration,inspiration
16,0.0,25,M,down,0.3668362000007619,1.7412204640133202,,tutorial,emotion,,,,,310.7285463999997,211,25,male,True,3106,3110,False,False,expiration,expiration
17,200.0,25,F,up,0.7267157999995106,1.405545296144697,,tutorial,emotion,,,,,312.84512659999933,211,25,male,True,3127,3134,False,False,inspiration,inspiration
18,0.0,25,M,down,0.5898158999989391,1.5985855221292862,,tutorial,emotion,,,,,315.4450503999997,211,25,male,True,3153,3159,False,False,expiration,expiration
19,200.0,25,M,down,0.8122230999997555,0.9889697847309982,,tutorial,emotion,,,,,317.311653499999,211,25,male,True,3172,3180,False,False,inspiration,peak
20,0.0,25,F,down,0.5479254999991099,0.7320797355151527,,tutorial,emotion,,,,,319.1448989000001,211,25,male,True,3190,3195,False,False,expiration,expiration
21,0.0,25,F,down,0.5484372999999323,1.4970104817326602,,tutorial,emotion,,,,,321.4784201999992,211,25,male,True,3214,3219,False,False,expiration,inspiration
22,0.29,25,up,up,0.61452780000036,1.1934228306804642,,psi_staircase_training,cRDM,,0.25,0.25693124029946324,0.10500000000000002,334.2943448000005,211,25,male,True,3342,3348,False,False,expiration,expiration
23,0.25,25,up,down,0.9365522999996756,0.7425962330824596,,psi_staircase_training,cRDM,,0.21910266653183127,0.2260132002683493,0.10468632033873933,335.9442872999989,211,25,male,True,3358,3367,False,False,inspiration,peak
24,0.36,25,down,down,0.6597386000012193,0.6987824185714295,,psi_staircase_training,cRDM,,0.3202997408361979,0.3276103223604739,0.1107465658214764,337.8611438999997,211,25,male,True,3378,3385,False,False,expiration,expiration
25,0.33,25,down,down,0.5697662000002309,1.6441737114657111,,psi_staircase_training,cRDM,,0.2990372097977385,0.30641398280716875,0.1117492876491608,340.4441155999993,211,25,male,True,3403,3409,False,False,peak,expiration
26,0.31,25,up,up,0.4704863999995723,0.4444354431781711,,psi_staircase_training,cRDM,,0.2780189805609542,0.28539811096413914,0.1117849993448388,341.7274156000003,211,25,male,True,3416,3421,False,False,expiration,expiration
27,0.31,25,down,down,0.6262355999988358,1.8411656238090568,,psi_staircase_training,cRDM,,0.2582073586141265,0.2655339603556145,0.11098925295027023,344.3106702999994,211,25,male,True,3442,3448,False,False,inspiration,inspiration
28,0.29,25,up,up,0.8882690999998886,0.9011411954405426,,psi_staircase_training,cRDM,,0.24138240409280395,0.2485489846939697,0.1085651240775294,346.11060580000054,211,25,male,True,3460,3469,False,False,expiration,expiration
29,0.24,25,down,down,0.5490616000006412,1.2576592601929453,,psi_staircase_training,cRDM,,0.22544905583343344,0.2325152283915249,0.107044062324179,348.5438118999992,211,25,male,True,3484,3489,False,False,expiration,expiration
30,0.24,25,down,down,0.5616320000008272,0.34111758351536753,,psi_staircase_training,cRDM,,0.20474749939231834,0.21227317020784012,0.11400491131305583,349.72714210000055,211,25,male,True,3496,3502,False,False,inspiration,inspiration
31,0.23,25,up,up,0.7031511999994109,0.4191720052636245,,psi_staircase_training,cRDM,,0.18503962375809055,0.1928548615388246,0.11839150448161755,350.9937401000006,211,25,male,True,3509,3516,False,False,expiration,expiration
32,0.22,25,down,down,0.4656238999996276,1.7336182881271631,,psi_staircase_training,cRDM,,0.1668004946365475,0.17476932355743144,0.12071822654274562,353.71030969999987,211,25,male,True,3536,3541,False,False,expiration,expiration
33,0.19,25,down,down,0.5689229999989038,1.5130701452526356,,psi_staircase_training,cRDM,,0.1506096300720314,0.15859812929352204,0.12101620806906235,355.97695249999924,211,25,male,True,3559,3565,False,False,peak,expiration
34,0.16,25,down,down,0.5160727000002225,1.5871393584435098,,psi_staircase_training,cRDM,,0.13550708967370206,0.14343887879110018,0.12015711782367405,358.42680809999916,211,25,male,True,3583,3588,False,False,expiration,expiration
35,0.14,25,up,down,0.4861267000014777,1.6452024295370329,,psi_staircase_training,cRDM,,0.12135183675393126,0.1291794776051846,0.118579396164529,360.8767453,211,25,male,True,3608,3613,False,False,peak,expiration
36,0.22,25,up,up,0.4665543000010075,0.3876119262709931,,psi_staircase_training,cRDM,,0.16564583679879558,0.17402595270387278,0.1269487324081439,362.04332489999985,211,25,male,True,3619,3624,False,False,expiration,expiration
37,0.2,25,down,down,0.5562079999999696,1.9790144156497804,,psi_staircase_training,cRDM,,0.15417741454319087,0.16248648609496086,0.12587249543251378,364.75970790000076,211,25,male,True,3647,3653,False,False,inspiration,inspiration
38,0.19,25,down,down,0.5466892999993433,1.7654733431978744,,psi_staircase_training,cRDM,,0.14389253170282815,0.1520881337337472,0.12415356791383175,367.3431574000005,211,25,male,True,3672,3677,False,False,expiration,expiration
39,0.18,25,up,up,0.7012608999993972,1.0945354272157932,,psi_staircase_training,cRDM,,0.13490240059012035,0.14294955096215042,0.121904702846414,369.2595793,211,25,male,True,3692,3699,False,False,inspiration,inspiration
40,0.13,25,up,down,0.698860299999069,0.34648892609185605,,psi_staircase_training,cRDM,,0.12688460002528631,0.13477672335952232,0.11955622865347075,370.59302489999936,211,25,male,True,3705,3712,False,False,expiration,expiration
41,0.19,25,up,up,0.636572299999898,1.6449626698463835,,psi_staircase_training,cRDM,,0.1528140460341809,0.15979456555944704,0.10574652132746072,373.22627219999964,211,25,male,True,3731,3737,False,False,expiration,inspiration
42,0.19,25,up,down,1.7653408000005584,1.1594026600394738,,psi_staircase_training,cRDM,,0.1465349445957989,0.15318937838231853,0.10080671242038236,375.3095233999993,211,25,male,True,3752,3770,False,False,expiration,expiration
43,0.22,25,down,down,0.4495559999995749,0.5874533265612144,,psi_staircase_training,cRDM,,0.17307798439874228,0.18171180254330507,0.13079201788016118,377.9593427,211,25,male,True,3779,3783,False,False,inspiration,expiration
44,0.22,25,down,up,0.6507801000007021,0.473307134631017,,psi_staircase_training,cRDM,,0.1650561034586816,0.1735496154460721,0.12866654742082173,379.17609289999933,211,25,male,True,3791,3798,False,False,expiration,expiration
45,0.24,25,down,down,0.4358993000005285,1.8137893980619293,,psi_staircase_training,cRDM,,0.19619203864073895,0.20557732652394534,0.1421758855789458,381.92594920000016,211,25,male,True,3818,3822,False,False,inspiration,inspiration
46,0.24,25,up,up,0.5443390999989788,0.39786463282683177,,psi_staircase_training,cRDM,,0.18706054678007014,0.1964786846085432,0.1426735229575358,383.04256229999913,211,25,male,True,3829,3834,False,False,expiration,expiration
47,0.24,25,up,up,0.4773709000000963,0.3749486325093047,,psi_staircase_training,cRDM,,0.17905748601350968,0.18845506329008285,0.14236205518896716,384.2425120999997,211,25,male,True,3841,3846,False,False,expiration,expiration
48,0.21,25,down,down,0.4400420999991184,0.9414164061212488,,psi_staircase_training,cRDM,,0.17207294209159013,0.18141044557304012,0.14145200904781408,385.92580330000055,211,25,male,True,3858,3862,False,False,expiration,inspiration
49,0.21,25,down,down,0.5591303000001062,1.7301603447906833,,psi_staircase_training,cRDM,,0.16478401548791716,0.17413153586384406,0.14160375301781528,388.3757416999997,211,25,male,True,3883,3889,False,False,expiration,expiration
50,0.21,25,up,up,0.6095013000012841,0.9362821994355232,,psi_staircase_training,cRDM,,0.15824632547192907,0.16756438836758136,0.1411575074260882,390.142323,211,25,male,True,3900,3906,False,False,expiration,expiration
51,0.21,25,up,up,0.6111307999999553,0.6367947222648161,,psi_staircase_training,cRDM,,0.1524077450836203,0.16166421406110842,0.14022443323910128,391.6587521999992,211,25,male,True,3916,3922,False,False,inspiration,inspiration
52,100.0,25,M,up,0.7898647000001802,0.9114581049293856,,psi_staircase_training,emotion,,100.0,100.0,25.00050000000001,405.9250646,211,25,male,True,4058,4066,False,False,expiration,expiration
53,55.0,25,M,down,0.654224100000647,1.6225017039574372,,psi_staircase_training,emotion,,54.742809467541896,54.742809467541896,25.00050000000011,408.691646199999,211,25,male,True,4086,4093,False,False,inspiration,expiration
54,79.0,25,F,up,0.7466311000007408,0.37617298369438507,,psi_staircase_training,emotion,,79.636070985635,79.636070985635,25.71326925488641,410.07521970000016,211,25,male,True,4100,4107,False,False,expiration,expiration
55,63.0,25,F,up,0.7983188999987759,1.4156711334534735,,psi_staircase_training,emotion,,62.164016703383474,62.164016703383474,25.29232598628389,412.5914945000004,211,25,male,True,4125,4133,False,False,inspiration,expiration
56,46.0,25,M,down,0.921440199999779,1.6827924610703504,,psi_staircase_training,emotion,,49.957069998297065,49.957069998297065,27.05499044974309,415.44139929999983,211,25,male,True,4153,4162,False,False,expiration,inspiration
57,51.0,25,F,down,0.6878940000005969,0.5935863617964884,,psi_staircase_training,emotion,,58.26662899858864,58.26662899858864,23.997705832462845,417.30798180000056,211,25,male,True,4172,4179,False,False,expiration,expiration
58,67.0,25,M,down,0.5961913999999524,0.5190467832515607,,psi_staircase_training,emotion,,63.294256717543284,63.294256717543284,21.21474996822986,418.87460189999916,211,25,male,True,4188,4194,False,False,inspiration,inspiration
59,83.0,25,F,down,1.2543779999996332,0.9043569946082416,,psi_staircase_training,emotion,,71.29232787585137,71.29232787585137,26.360444414861732,420.72452650000014,211,25,male,True,4206,4219,False,False,expiration,expiration
60,98.0,25,F,up,0.8767119999993156,1.0100811729621073,,psi_staircase_training,emotion,,80.78650885710546,80.78650885710546,31.924727865802478,423.3411016999999,211,25,male,True,4232,4241,False,False,expiration,expiration
61,95.0,25,M,up,0.7574638000005507,1.7716468316027607,,psi_staircase_training,emotion,,76.63859547651717,76.63859547651717,30.194258128544174,426.32433259999925,211,25,male,True,4262,4270,False,False,expiration,inspiration
62,93.0,25,F,up,0.5699194000007992,1.3095049967685433,,psi_staircase_training,emotion,,73.5983608381915,73.5983608381915,28.645758757240763,428.74091249999947,211,25,male,True,4286,4292,False,False,expiration,expiration
63,52.0,25,F,down,0.6946788999994169,0.8401514365355665,,psi_staircase_training,emotion,,71.29372358681222,71.29372358681222,27.259002476820587,430.5241659000003,211,25,male,True,4304,4311,False,False,expiration,inspiration
64,92.0,25,F,up,0.7014687000009872,1.738174078084005,,psi_staircase_training,emotion,,73.41531210335218,73.41531210335218,25.68571554258429,433.3074096999989,211,25,male,True,4332,4339,False,False,expiration,expiration
65,53.0,25,M,up,0.6305585999998584,1.0063270916740787,,psi_staircase_training,emotion,,71.69240124628455,71.69240124628455,24.268687976016427,435.37428809999983,211,25,male,True,4353,4359,False,False,inspiration,expiration
66,43.0,25,M,up,0.7372670000004291,1.7185559368609633,,psi_staircase_training,emotion,,65.88044851295274,65.88044851295274,29.842684770723828,438.09056169999883,211,25,male,True,4380,4387,False,False,expiration,inspiration
67,35.0,25,F,down,0.8447166000005382,0.6060026529311908,,psi_staircase_training,emotion,,59.76831154579458,59.76831154579458,34.47429823422692,439.80716709999984,211,25,male,True,4397,4405,False,False,inspiration,expiration
68,36.0,25,F,down,0.6741504000001441,1.518960060190481,,psi_staircase_training,emotion,,61.713074227540524,61.713074227540524,33.42977296445375,442.5237314999995,211,25,male,True,4424,4431,False,False,expiration,inspiration
69,37.0,25,M,down,0.6779437999994116,1.5083487783490843,,psi_staircase_training,emotion,,63.335834691313025,63.335834691313025,32.437777741383364,445.0568853999994,211,25,male,True,4450,4457,False,False,expiration,expiration
70,90.0,25,M,up,0.5629814000003535,0.6238038545489142,,psi_staircase_training,emotion,,64.70564083088341,64.70564083088341,31.497764865146607,446.7069090999994,211,25,male,True,4466,4472,False,False,inspiration,inspiration
71,37.0,25,M,down,0.7129705999996077,0.5006451188987147,,psi_staircase_training,emotion,,63.403502080449,63.403502080449,30.53831771482181,448.1068572999993,211,25,male,True,4480,4487,False,False,expiration,expiration
72,90.0,25,M,up,0.8690171999987797,0.4459512045375617,,psi_staircase_training,emotion,,64.52733770410534,64.52733770410534,29.57949765350992,449.6068027999992,211,25,male,True,4495,4504,False,False,expiration,trough
73,37.0,25,F,down,0.942512399999032,1.900685188980264,,psi_staircase_training,emotion,,63.450269199252176,63.450269199252176,28.611501593669747,452.7233581,211,25,male,True,4526,4535,False,False,expiration,expiration
74,89.0,25,F,up,0.8847784999998112,1.252090704460837,,psi_staircase_training,emotion,,64.37183175080703,64.37183175080703,27.669061137451205,455.27310079999916,211,25,male,True,4552,4561,False,False,inspiration,expiration
75,38.0,25,F,up,0.8030605999992986,1.7789014999988395,,psi_staircase_training,emotion,,63.44331772510536,63.44331772510536,26.71881163956504,458.2898098000005,211,25,male,True,4582,4590,False,False,expiration,inspiration
76,31.0,25,M,up,0.7138985000001412,0.5049208357215311,,psi_staircase_training,emotion,,59.70378614684212,59.70378614684212,31.012620668842533,459.9729413000005,211,25,male,True,4599,4606,False,False,expiration,expiration
77,25.0,25,M,down,0.8272242000002734,1.6721098891328443,,psi_staircase_training,emotion,,55.789425791497905,55.789425791497905,34.79373860796555,462.73965610000056,211,25,male,True,4626,4634,False,False,expiration,inspiration
78,26.0,25,F,up,0.8206086000009236,1.1748572518342593,,psi_staircase_training,emotion,,56.760393073032105,56.760393073032105,34.070324753880335,465.1062390000006,211,25,male,True,4650,4658,False,False,expiration,expiration
79,22.0,25,F,down,0.6454051000000618,1.661257375716542,,psi_staircase_training,emotion,,53.02551426334057,53.02551426334057,37.074119818437524,467.93947569999915,211,25,male,True,4678,4684,False,False,inspiration,inspiration
80,22.0,25,M,down,0.6095112999992125,0.906393793574084,,psi_staircase_training,emotion,,54.00275158447153,54.00275158447153,36.48405147312269,469.83936919999917,211,25,male,True,4697,4703,False,False,expiration,expiration
81,86.0,25,M,up,0.5461977000013576,1.8597652759382148,,psi_staircase_training,emotion,,54.87346926229312,54.87346926229312,35.907702981003816,472.6726214999998,211,25,male,True,4726,4731,False,False,expiration,expiration
82,0.29,25,up,up,0.6620394000001397,0.3530049868695357,,psi_staircase,cRDM,,0.25,0.25693124029946324,0.10500000000000002,486.0387993000004,211,25,male,True,4859,4866,False,False,expiration,expiration
83,0.25,25,up,up,0.6284119000010833,0.5475178877173505,,psi_staircase,cRDM,,0.21910266653183127,0.2260132002683493,0.10468632033873933,487.50541159999915,211,25,male,True,4874,4880,False,False,expiration,expiration
84,0.21,25,down,down,0.6742202999994333,1.9373077903760323,,psi_staircase,cRDM,,0.1900540959403307,0.19684979615540016,0.10294672984249993,490.3386525999995,211,25,male,True,4902,4909,False,False,expiration,expiration
85,0.18,25,down,down,0.6165502000003471,0.3776982393541484,,psi_staircase,cRDM,,0.1635257589279754,0.1701521334256793,0.100381647756865,491.6552462,211,25,male,True,4916,4922,False,False,expiration,expiration
86,0.15,25,up,up,0.5860398999993777,1.099746181845611,,psi_staircase,cRDM,,0.14018955742449365,0.14660133511875031,0.0971307628663642,493.62182629999916,211,25,male,True,4935,4941,False,False,inspiration,expiration
87,0.13,25,down,down,0.5154775999999401,1.823996160264098,,psi_staircase,cRDM,,0.11987606021454796,0.12605547676183335,0.09361076941961036,496.28843369999964,211,25,male,True,4962,4967,False,False,expiration,expiration
88,0.11,25,up,up,0.6605166999997891,1.1210812392294534,,psi_staircase,cRDM,,0.10257735236965487,0.10849103445698656,0.08958521019937955,498.1883791,211,25,male,True,4981,4988,False,False,inspiration,expiration
89,0.09,25,down,down,0.3672060999997484,1.4026716788444655,,psi_staircase,cRDM,,0.08784432595859408,0.09348182153209693,0.08540131486476357,500.50493309999916,211,25,male,True,5004,5008,False,False,expiration,trough
90,0.08,25,down,up,0.31727519999913056,0.8733006596243809,,psi_staircase,cRDM,,0.07518520921180863,0.0805556301471181,0.08135545354720439,502.05477359999895,211,25,male,True,5020,5023,False,False,peak,expiration
91,0.13,25,up,up,0.7477512000004936,1.50081868006301,,psi_staircase,cRDM,,0.1145374077699418,0.12103712105675656,0.09846288191283688,504.23812619999984,211,25,male,True,5041,5048,False,False,expiration,expiration
92,0.13,25,down,down,0.4767843999998149,1.6837113020986187,,psi_staircase,cRDM,,0.1023941484636294,0.10857748278643099,0.09367011903258447,506.93801349999916,211,25,male,True,5068,5073,False,False,expiration,expiration
93,0.12,25,down,down,0.6045191000011982,1.2948349772557302,,psi_staircase,cRDM,,0.093157405715179,0.09896538803474302,0.08798398514641666,508.9713093999998,211,25,male,True,5089,5095,False,False,expiration,expiration
94,0.11,25,down,down,1.2327999000008276,1.9149615401295732,,psi_staircase,cRDM,,0.0859226620933624,0.09137013233424036,0.0825226583669993,511.7550647999997,211,25,male,True,5117,5129,False,False,expiration,expiration
95,0.1,25,up,up,0.735072699999364,1.0924184228696534,,psi_staircase,cRDM,,0.07993993986706525,0.08508630373561188,0.07796125698300181,514.3377617999995,211,25,male,True,5142,5149,False,False,expiration,inspiration
96,0.07,25,up,down,0.5505214000004344,1.9664146498810533,,psi_staircase,cRDM,,0.07451104613556002,0.07946231361901372,0.0750057801058921,517.3043188999999,211,25,male,True,5172,5178,False,False,expiration,expiration
97,0.11,25,down,down,0.6268728999984887,0.954437628879925,,psi_staircase,cRDM,,0.08964288342260639,0.09375657727217196,0.06231754138401916,519.0709492999995,211,25,male,True,5190,5196,False,False,expiration,inspiration
98,0.11,25,down,down,0.5468516000000818,1.2027237954644985,,psi_staircase,cRDM,,0.08591199278641959,0.08967523699779757,0.057008648542352026,521.1540518999992,211,25,male,True,5211,5216,False,False,expiration,expiration
99,0.1,25,up,up,0.42804830000022775,0.6605115915818685,,psi_staircase,cRDM,,0.08333523038764748,0.08675992128066247,0.05187997071670148,522.6207899000002,211,25,male,True,5225,5229,False,False,expiration,expiration
100,0.1,25,up,up,0.6943933000002289,0.35640309277705,,psi_staircase,cRDM,,0.08078524248240826,0.08400524915635804,0.04877924962303056,523.6874372000002,211,25,male,True,5236,5243,False,False,inspiration,inspiration
101,0.09,25,up,up,0.6020864000001893,0.6082335066456679,,psi_staircase,cRDM,,0.07889861502095068,0.08190572909997185,0.04555418145316259,525.2540207999991,211,25,male,True,5252,5258,False,False,expiration,expiration
102,0.09,25,up,up,0.6002895000001445,1.1088005835151618,,psi_staircase,cRDM,,0.07632227527047274,0.07930751887459203,0.04522286991792774,527.2206079999996,211,25,male,True,5271,5277,False,False,expiration,expiration
103,0.09,25,down,down,0.5022710000012012,0.6335848753598825,,psi_staircase,cRDM,,0.0741563580751663,0.07708520823376025,0.04436857667107268,528.7205560999992,211,25,male,True,5286,5291,False,False,inspiration,inspiration
104,0.08,25,down,down,0.6246460000002116,1.7977370681027585,,psi_staircase,cRDM,,0.07237796212938435,0.07522318072186784,0.04310165847718491,531.2872066999988,211,25,male,True,5312,5318,False,False,expiration,expiration
105,0.07,25,down,down,0.6741936999987956,0.9813018633803644,,psi_staircase,cRDM,,0.06937900034326135,0.07237502823077116,0.04538623891208776,533.1707114000002,211,25,male,True,5331,5338,False,False,inspiration,expiration
106,0.06,25,up,up,0.7495288999998593,1.9108894591012315,,psi_staircase,cRDM,,0.06508580199197217,0.06849101028175232,0.05158483258106094,536.0203053999994,211,25,male,True,5359,5366,False,False,expiration,inspiration
107,0.06,25,up,up,0.6478978000013741,0.8062086290029813,,psi_staircase,cRDM,,0.05975362449954025,0.06375291411656271,0.0605844541012201,537.8368955000005,211,25,male,True,5377,5383,False,False,inspiration,expiration
108,0.06,25,down,down,0.5997480999994877,0.7633708501739567,,psi_staircase,cRDM,,0.05403893358933652,0.05859607696227258,0.06903527124796688,539.5201682999996,211,25,male,True,5394,5400,False,False,expiration,expiration
109,0.06,25,down,down,0.8900864000006551,0.6634804728656062,,psi_staircase,cRDM,,0.04834515576388919,0.05336546146557648,0.07605162653471784,541.0367872999997,211,25,male,True,5409,5418,False,False,expiration,inspiration
110,0.05,25,up,down,0.5945171000003029,1.312376558060064,,psi_staircase,cRDM,,0.04304585835393869,0.04839330345641006,0.0810073971613672,543.5033449000001,211,25,male,True,5434,5440,False,False,expiration,expiration
111,0.06,25,up,down,0.9215170000006764,1.23177283074614,,psi_staircase,cRDM,,0.056270911549201684,0.060921033176378064,0.0704437805873402,545.6033000999996,211,25,male,True,5455,5464,False,False,expiration,expiration
112,0.08,25,down,down,1.027242699999988,0.4480906250905048,,psi_staircase,cRDM,,0.06656128153485176,0.07011705577392584,0.05386572661918666,547.2365625999992,211,25,male,True,5471,5481,False,False,inspiration,expiration
113,0.08,25,up,down,0.5440526000002137,0.6026982483782983,,psi_staircase,cRDM,,0.06433314065715276,0.06791462161250393,0.05425515262268353,549.1198112999991,211,25,male,True,5490,5495,False,False,expiration,expiration
114,0.11,25,down,down,0.8514442000014242,1.0609951360433143,,psi_staircase,cRDM,,0.07149423596576074,0.07515295596187553,0.05542523170374044,550.986422,211,25,male,True,5509,5518,False,False,inspiration,expiration
115,0.11,25,up,up,0.59289119999994,0.9499925921405928,,psi_staircase,cRDM,,0.07156563524074626,0.07488371335329214,0.0502649146133768,553.0529375999995,211,25,male,True,5530,5536,False,False,expiration,expiration
116,0.09,25,down,down,0.6386281000013696,1.3838541290802755,,psi_staircase,cRDM,,0.07182020169225632,0.07482938350545404,0.04558550515269662,555.2862600999997,211,25,male,True,5552,5558,False,False,inspiration,expiration
117,0.09,25,up,up,0.8246935000006488,1.5534711885182115,,psi_staircase,cRDM,,0.0709148821756656,0.07379665425051693,0.043655400013013504,557.7361467999998,211,25,male,True,5576,5584,False,False,expiration,inspiration
118,0.08,25,down,down,0.5811567999990075,1.2755446729868074,,psi_staircase,cRDM,,0.0702392820755963,0.07298422618327685,0.0415826199718941,560.1027537999998,211,25,male,True,5600,5606,False,False,expiration,expiration
119,0.07,25,up,up,0.5464741999985563,0.5221609656335252,,psi_staircase,cRDM,,0.0683005551024014,0.07113892929490115,0.04299797400409725,561.4693666999991,211,25,male,True,5614,5619,False,False,expiration,inspiration
120,0.06,25,up,down,0.5855279999996128,0.9864233982194772,,psi_staircase,cRDM,,0.0649626628695668,0.0681864821792218,0.0488370064936268,563.2693242000005,211,25,male,True,5632,5638,False,False,expiration,expiration
121,0.08,25,down,up,0.40023520000067947,0.8758942608725957,,psi_staircase,cRDM,,0.07202606016827992,0.07423282322893836,0.03342982083409776,564.9859084,211,25,male,True,5649,5653,False,False,expiration,expiration
122,0.09,25,down,down,0.6653530000003229,0.831210615967769,,psi_staircase,cRDM,,0.0768474110313236,0.07894449829293365,0.031768363663009405,566.5025000999995,211,25,male,True,5664,5671,False,False,inspiration,peak
123,0.09,25,down,down,0.7180726999995386,1.4031138899528792,,psi_staircase,cRDM,,0.07620233307781793,0.07819340636423576,0.030162378743391907,568.8357357999994,211,25,male,True,5687,5694,False,False,expiration,expiration
124,0.09,25,up,up,0.5128457999999227,0.9134784919740442,,psi_staircase,cRDM,,0.0757002280894964,0.0775856993495246,0.028562634355396906,570.7190191999998,211,25,male,True,5706,5711,False,False,inspiration,inspiration
125,0.09,25,up,up,0.5422063999994862,0.5303708209440788,,psi_staircase,cRDM,,0.07531658671425694,0.07709919793148412,0.02700442773905131,572.0356221000002,211,25,male,True,5719,5724,False,False,expiration,expiration
126,0.08,25,down,up,0.5673915999996098,1.793738479135564,,psi_staircase,cRDM,,0.07502915022070503,0.07671331588258973,0.02551309532748244,574.6355203000003,211,25,male,True,5745,5751,False,False,expiration,expiration
127,0.09,25,down,down,0.6900583999995433,1.693080949021642,,psi_staircase,cRDM,,0.07841659744784578,0.07995805015406815,0.023351164749818826,577.168795399999,211,25,male,True,5771,5778,False,False,expiration,expiration
128,0.09,25,down,down,0.6584573000000091,1.264245566551438,,psi_staircase,cRDM,,0.0780281188798551,0.07949626853887196,0.02224071126327952,579.3853634999996,211,25,male,True,5793,5800,False,False,expiration,inspiration
129,0.09,25,up,up,0.5040030000000115,0.641298070650173,,psi_staircase,cRDM,,0.07771975377424478,0.07911794026085557,0.021180852885089224,580.9518472,211,25,male,True,5809,5814,False,False,peak,expiration
130,0.09,25,up,up,0.5629734000012832,1.188203035282139,,psi_staircase,cRDM,,0.07747780890207594,0.07881008316230513,0.02018236149378629,582.9018976999996,211,25,male,True,5828,5834,False,False,expiration,expiration
131,0.09,25,up,up,0.5033435000004829,0.7381555175481332,,psi_staircase,cRDM,,0.07728992458450046,0.0785607588230884,0.019251618655043226,584.4685076999995,211,25,male,True,5844,5849,False,False,expiration,inspiration
132,100.0,25,M,up,0.902909099999306,1.3018534167993585,,psi_staircase,emotion,,100.0,100.0,25.00050000000001,591.2349204000002,211,25,male,True,5911,5920,False,False,expiration,expiration
133,55.0,25,M,down,0.6143053999985568,0.7177616530727805,,psi_staircase,emotion,,54.742809467541896,54.742809467541896,25.00050000000011,593.2015375999998,211,25,male,True,5931,5937,False,False,expiration,expiration
134,79.0,25,F,up,0.7987929000009899,1.857432194353421,,psi_staircase,emotion,,79.636070985635,79.636070985635,25.71326925488641,596.0180737999998,211,25,male,True,5959,5967,False,False,expiration,expiration
135,63.0,25,F,up,0.982265599999664,0.5765151724798079,,psi_staircase,emotion,,62.164016703383474,62.164016703383474,25.29232598628389,597.7347119999995,211,25,male,True,5976,5986,False,False,expiration,inspiration
136,46.0,25,M,down,0.874236399999063,0.548148838037848,,psi_staircase,emotion,,49.957069998297065,49.957069998297065,27.05499044974309,599.6346257000006,211,25,male,True,5995,6004,False,False,inspiration,expiration
137,51.0,25,F,up,1.079291199999716,1.5808549405164989,,psi_staircase,emotion,,58.26662899858864,58.26662899858864,23.997705832462845,602.4345503000004,211,25,male,True,6023,6034,False,False,trough,inspiration
138,36.0,25,M,down,0.5957873999996082,1.24130657314515,,psi_staircase,emotion,,48.45406469212928,48.45406469212928,29.429280106919933,605.1010846999998,211,25,male,True,6050,6056,False,False,expiration,expiration
139,38.0,25,F,down,1.2384579999998095,1.3914711564209368,,psi_staircase,emotion,,53.277882077578965,53.277882077578965,27.18830157749732,607.4343353000004,211,25,male,True,6073,6085,False,False,inspiration,expiration
140,69.0,25,F,down,0.9682566000010412,1.7807620710185674,,psi_staircase,emotion,,56.61448539950966,56.61448539950966,25.17090983557616,610.8175572,211,25,male,True,6107,6117,False,False,inspiration,expiration
141,82.0,25,M,down,0.9176907000000938,0.4921057354881063,,psi_staircase,emotion,,64.40506866454986,64.40506866454986,30.512361943616146,612.6341460999993,211,25,male,True,6126,6135,False,False,expiration,expiration
142,93.0,25,F,up,0.5527887999996892,0.5198573453840889,,psi_staircase,emotion,,72.68267003619403,72.68267003619403,34.710648540139196,614.4340749000003,211,25,male,True,6143,6149,False,False,inspiration,peak
143,91.0,25,F,up,0.4424780999997893,0.3437909018402521,,psi_staircase,emotion,,69.41373210258779,69.41373210258779,33.51017088061924,615.6673781999998,211,25,male,True,6156,6160,False,False,expiration,expiration
144,89.0,25,F,up,1.0161738000006153,0.4444110223495165,,psi_staircase,emotion,,66.82039240659736,66.82039240659736,32.397683330915875,616.9006719999998,211,25,male,True,6168,6178,False,False,trough,inspiration
145,42.0,25,M,down,0.7678980000000593,1.1287859967204257,,psi_staircase,emotion,,64.68693660309701,64.68693660309701,31.36633787088545,619.3839245999989,211,25,male,True,6193,6201,False,False,expiration,inspiration
146,90.0,25,M,up,0.9250530999997864,1.6785531715934086,,psi_staircase,emotion,,66.64445722632536,66.64445722632536,30.19444134618392,622.1838198000005,211,25,male,True,6221,6230,False,False,expiration,expiration
147,42.0,25,F,down,0.9220870000008291,1.5542940175834044,,psi_staircase,emotion,,65.03543827995712,65.03543827995712,29.09964978352363,624.9836974999997,211,25,male,True,6249,6258,False,False,inspiration,inspiration
148,90.0,25,F,up,0.8758820000002743,1.7209122033792603,,psi_staircase,emotion,,66.56732337684197,66.56732337684197,27.906225751245934,627.9669457,211,25,male,True,6279,6288,False,False,expiration,expiration
149,43.0,25,M,,,0.43443667679341896,,psi_staircase,emotion,,65.30482999981129,65.30482999981129,26.80269628764613,629.6335146000001,211,25,male,True,6295,0,False,False,inspiration,0
150,43.0,25,F,down,1.44306399999914,0.43443667679341896,,psi_staircase,emotion,,65.30482999981129,65.30482999981129,26.80269628764613,632.7498832000001,211,25,male,True,6327,6341,False,False,expiration,peak
151,89.0,25,M,up,0.7246156000001065,1.3104226486203343,,psi_staircase,emotion,,66.55349618068882,66.55349618068882,25.633199727343804,635.8502258999998,211,25,male,True,6358,6365,False,False,expiration,expiration
152,44.0,25,M,down,0.8073217000001023,1.8424466712588032,,psi_staircase,emotion,,65.51453829253873,65.51453829253873,24.564408467723023,638.7665281999998,211,25,male,True,6387,6395,False,False,expiration,expiration
153,87.0,25,M,up,0.5614765999998781,1.7366247016828358,,psi_staircase,emotion,,66.54172845852055,66.54172845852055,23.464702562636994,641.6663912000004,211,25,male,True,6416,6422,False,False,expiration,inspiration
154,46.0,25,F,down,0.9559461999997438,0.9711099301610044,,psi_staircase,emotion,,65.63255040041632,65.63255040041632,22.464042329036058,643.5499242999995,211,25,male,True,6435,6445,False,False,expiration,expiration
155,85.0,25,F,up,0.6243068000003404,1.7531350169320223,,psi_staircase,emotion,,66.53112068960071,66.53112068960071,21.45653594556027,646.5995698999997,211,25,male,True,6465,6471,False,False,inspiration,inspiration
156,48.0,25,F,up,0.7259855000011157,0.3975127791992323,,psi_staircase,emotion,,65.71477420799856,65.71477420799856,20.550472879504387,647.9828610000004,211,25,male,True,6479,6486,False,False,expiration,expiration
157,38.0,25,M,up,0.6797468000004301,1.3595756358880708,,psi_staircase,emotion,,62.35471285681538,62.35471285681538,24.28493634540084,650.4160888999995,211,25,male,True,6503,6510,False,False,expiration,expiration
158,31.0,25,M,down,0.6246035999993182,1.7004082847153987,,psi_staircase,emotion,,58.75414709759925,58.75414709759925,29.089962858628468,653.1492703999992,211,25,male,True,6531,6537,False,False,expiration,expiration
159,32.0,25,F,down,0.7692059999990306,0.8662017194414537,,psi_staircase,emotion,,59.567789397779045,59.567789397779045,28.166033725641128,654.9826066000005,211,25,male,True,6549,6557,False,False,expiration,expiration
160,86.0,25,F,up,0.5767818000003899,0.445606523909294,,psi_staircase,emotion,,60.27398045507461,60.27398045507461,27.3025850103824,656.5490351999998,211,25,male,True,6565,6571,False,False,inspiration,inspiration
161,33.0,25,M,down,0.7560788999999204,1.582825653507317,,psi_staircase,emotion,,59.590834851958476,59.590834851958476,26.47848265231855,659.0657749999991,211,25,male,True,6590,6598,False,False,expiration,expiration
162,85.0,25,M,up,1.3590956000007282,0.6961783314294581,,psi_staircase,emotion,,60.20677931459689,60.20677931459689,25.663442053236736,660.8657105999991,211,25,male,True,6608,6622,False,False,inspiration,expiration
163,34.0,25,F,down,0.8169479999996838,1.8569924285246917,,psi_staircase,emotion,,59.59528704225298,59.59528704225298,24.885198782275353,664.4489192000002,211,25,male,True,6644,6652,False,False,expiration,inspiration
164,83.0,25,M,up,0.7026857000000746,1.1599658449777115,,psi_staircase,emotion,,60.13591537879411,60.13591537879411,24.133875382686053,666.7821729000008,211,25,male,True,6667,6674,False,False,expiration,expiration
165,35.0,25,F,down,0.7691935000002559,1.217971746358442,,psi_staircase,emotion,,59.555319210883816,59.555319210883816,23.405333361326708,669.0486292999993,211,25,male,True,6690,6698,False,False,peak,expiration
166,81.0,25,M,up,0.6133526000012353,1.9864181118606417,,psi_staircase,emotion,,60.034376519531435,60.034376519531435,22.72484598988571,672.148513099999,211,25,male,True,6721,6727,False,False,inspiration,expiration
167,80.0,25,F,up,0.4882457000003342,0.5971387386439839,,psi_staircase,emotion,,59.47445712372877,59.47445712372877,22.05291848411209,673.6985724999995,211,25,male,True,6736,6741,False,False,expiration,expiration
168,37.0,25,M,down,0.653974200000448,0.6463938056302002,,psi_staircase,emotion,,58.957550074073886,58.957550074073886,21.43102302616548,675.1818698000006,211,25,male,True,6751,6758,False,False,inspiration,inspiration
169,78.0,25,F,up,0.9058646000012232,1.7845695453467676,,psi_staircase,emotion,,59.408748300398344,59.408748300398344,20.827020478185833,677.9649735999992,211,25,male,True,6779,6788,False,False,expiration,expiration
170,77.0,25,M,down,0.6527863999999681,0.488841478725769,,psi_staircase,emotion,,58.89408359986682,58.89408359986682,20.258368111945483,679.7150048999993,211,25,male,True,6796,6803,False,False,expiration,inspiration
171,38.0,25,M,down,0.8648905999998533,0.4580978766987458,,psi_staircase,emotion,,60.979630856938286,60.979630856938286,22.52707339835625,681.1649596999996,211,25,male,True,6811,6820,False,False,inspiration,expiration
172,39.0,25,F,up,0.583729800000583,1.4167658684503273,,psi_staircase,emotion,,61.41007689816865,61.41007689816865,21.945581354706572,683.7981820000006,211,25,male,True,6837,6843,False,False,expiration,inspiration
173,32.0,25,F,down,1.0290520999988075,1.3733603547644124,,psi_staircase,emotion,,59.29316215384544,59.29316215384544,24.775578028411694,686.1147820000006,211,25,male,True,6860,6870,False,False,expiration,expiration
174,85.0,25,F,up,0.6217988999997033,1.1562199231393258,,psi_staircase,emotion,,59.66096477818129,59.66096477818129,24.20081017675536,688.6480226999993,211,25,male,True,6886,6892,False,False,expiration,inspiration
175,33.0,25,M,down,0.8355572000000393,1.1240914029629654,,psi_staircase,emotion,,59.2821887763989,59.2821887763989,23.648890291020088,690.7312715999997,211,25,male,True,6906,6914,False,False,expiration,expiration
176,84.0,25,M,up,1.242015600000741,1.3191215504150635,,psi_staircase,emotion,,59.62154521429511,59.62154521429511,23.128863038236947,693.2478525000006,211,25,male,True,6932,6944,False,False,inspiration,expiration
177,35.0,25,F,down,0.6608433000001241,1.8997781641674127,,psi_staircase,emotion,,59.264842733714005,59.264842733714005,22.627615264568554,696.7310302000004,211,25,male,True,6967,6974,False,False,expiration,inspiration
178,83.0,25,F,up,0.6385327000007237,0.7822599839167277,,psi_staircase,emotion,,59.5991362000187,59.5991362000187,22.152513739435367,698.5143005999997,211,25,male,True,6984,6990,False,False,peak,expiration
179,82.0,25,F,up,0.8195819000011397,0.7539007564539768,,psi_staircase,emotion,,59.25987124847142,59.25987124847142,21.69867884295272,700.2642655999989,211,25,male,True,7002,7010,False,False,expiration,expiration
180,36.0,25,M,down,0.7305640000013227,0.6832716168914228,,psi_staircase,emotion,,58.93510223097454,58.93510223097454,21.274947135807377,702.1142213000003,211,25,male,True,7020,7027,False,False,inspiration,peak
181,80.0,25,M,up,0.8580216999998811,0.3561358774378734,,psi_staircase,emotion,,59.249577795762555,59.249577795762555,20.861844658791,703.5308055000005,211,25,male,True,7034,7043,False,False,expiration,expiration
182,38.0,25,M,down,0.7294898999989528,1.5677902899965754,,psi_staircase,emotion,,58.91524621432894,58.91524621432894,20.47249971817859,706.2973698000004,211,25,male,True,7062,7069,False,False,trough,inspiration
183,0.07714516178834692,25,down,up,0.6305019999999786,0.43229771224390795,,experiment,cRDM,0.0,,,,714.7803738999993,211,25,male,True,7147,7153,False,False,expiration,expiration
184,0.07714516178834692,25,down,down,0.9421344000002136,0.8325469629091156,,experiment,cRDM,0.0,,,,716.5136554999989,211,25,male,True,7164,7173,False,False,inspiration,expiration
185,0.07714516178834692,25,down,up,0.7078867000000173,1.2191420433799842,,experiment,cRDM,0.0,,,,718.9469219999993,211,25,male,True,7189,7196,False,False,expiration,expiration
186,0.07714516178834692,25,up,up,0.6373659000000771,1.0382026174094598,,experiment,cRDM,0.0,,,,720.9635242000003,211,25,male,True,7209,7215,False,False,expiration,trough
187,0.07714516178834692,25,up,up,0.6570948999997199,1.0341217696636098,,experiment,cRDM,0.0,,,,722.8967646000001,211,25,male,True,7228,7235,False,False,inspiration,expiration
188,0.07714516178834692,25,up,down,2.121829000001526,0.5599080825035923,,experiment,cRDM,0.0,,,,724.3800362000003,211,25,male,True,7243,7264,False,False,expiration,inspiration
189,0.07714516178834692,25,up,up,0.4686488000006648,1.464238994256803,,experiment,cRDM,0.0,,,,728.2132521000003,211,25,male,True,7281,7286,False,False,expiration,expiration
190,0.07714516178834692,25,up,up,0.711397200000647,1.4465990133925402,,experiment,cRDM,0.0,,,,730.3964655999989,211,25,male,True,7303,7310,False,False,expiration,expiration
191,0.07714516178834692,25,down,down,0.6364625000005617,1.3342318401249906,,experiment,cRDM,0.0,,,,732.6963914999997,211,25,male,True,7326,7332,False,False,peak,expiration
192,0.07714516178834692,25,down,down,0.6082428999998228,1.5897769494023164,,experiment,cRDM,0.0,,,,735.1796350999994,211,25,male,True,7351,7357,False,False,expiration,expiration
193,0.07714516178834692,25,up,up,0.5715895000012097,0.5380182378286975,,experiment,cRDM,0.0,,,,736.5962688999989,211,25,male,True,7365,7371,False,False,inspiration,inspiration
194,0.07714516178834692,25,down,down,0.6304263000001811,1.8982015367880605,,experiment,cRDM,0.0,,,,739.3294786000006,211,25,male,True,7392,7398,False,False,expiration,expiration
195,0.07714516178834692,25,down,down,0.5661532000012812,0.4372393514538063,,experiment,cRDM,0.0,,,,740.6627602999997,211,25,male,True,7406,7412,False,False,expiration,expiration
196,0.07714516178834692,25,up,up,0.498924999999872,0.36216246825111853,,experiment,cRDM,0.0,,,,741.8459370999989,211,25,male,True,7418,7423,False,False,inspiration,inspiration
197,0.07714516178834692,25,down,down,0.612824300000284,0.4882736029580106,,experiment,cRDM,0.0,,,,743.0960403999997,211,25,male,True,7430,7436,False,False,peak,expiration
198,0.07714516178834692,25,down,up,0.6645726999995532,1.6402816792033226,,experiment,cRDM,0.0,,,,745.6292357999993,211,25,male,True,7455,7462,False,False,expiration,inspiration
199,0.07714516178834692,25,up,down,0.4836893000010605,1.0617614369770163,,experiment,cRDM,0.0,,,,747.6292013000003,211,25,male,True,7475,7480,False,False,expiration,expiration
200,0.07714516178834692,25,up,up,1.0137118000002374,1.5161335447729605,,experiment,cRDM,0.0,,,,749.8791142999999,211,25,male,True,7498,7508,False,False,expiration,inspiration
201,0.07714516178834692,25,down,down,0.7424928000000364,1.7136069794613455,,experiment,cRDM,0.0,,,,752.8623606000001,211,25,male,True,7528,7535,False,False,expiration,expiration
202,0.07714516178834692,25,up,up,0.5640604999989591,1.072294417998604,,experiment,cRDM,0.0,,,,754.9458450999991,211,25,male,True,7549,7555,False,False,expiration,expiration
203,0.07714516178834692,25,down,down,0.6390109999993001,0.5474584678533743,,experiment,cRDM,0.0,,,,756.3288541000003,211,25,male,True,7562,7568,False,False,expiration,trough
204,0.07714516178834692,25,down,up,0.6580175999988569,0.9370802976099416,,experiment,cRDM,0.0,,,,758.1788068999996,211,25,male,True,7581,7588,False,False,peak,expiration
205,0.07714516178834692,25,up,up,0.699471199999607,0.6855863620787287,,experiment,cRDM,0.0,,,,759.7953923999994,211,25,male,True,7597,7604,False,False,expiration,expiration
206,0.07714516178834692,25,down,down,0.5751751000007062,1.0824207763711906,,experiment,cRDM,0.0,,,,761.8286523000006,211,25,male,True,7617,7623,False,False,inspiration,inspiration
207,0.07714516178834692,25,up,up,0.6539296999999351,1.6524039173620773,,experiment,cRDM,0.0,,,,764.3119251999997,211,25,male,True,7642,7649,False,False,expiration,expiration
208,0.07714516178834692,25,up,down,0.6487399000016012,1.5609457544739231,,experiment,cRDM,0.0,,,,766.7951403000006,211,25,male,True,7667,7673,False,False,expiration,inspiration
209,0.07714516178834692,25,down,down,0.8184400000009191,1.6057582560353856,,experiment,cRDM,0.0,,,,769.3283788999997,211,25,male,True,7692,7700,False,False,expiration,expiration
210,0.07714516178834692,25,up,up,0.5952462000004743,0.4573512903093183,,experiment,cRDM,0.0,,,,770.8616124,211,25,male,True,7708,7714,False,False,expiration,expiration
211,0.07714516178834692,25,down,down,0.6012558999991597,0.7793673811952444,,experiment,cRDM,0.0,,,,772.5116079,211,25,male,True,7724,7730,False,False,inspiration,inspiration
212,0.07714516178834692,25,up,up,0.5209472999995342,0.9209668505141272,,experiment,cRDM,0.0,,,,774.2948620999997,211,25,male,True,7742,7747,False,False,expiration,expiration
213,0.07714516178834692,25,up,up,0.787119900000107,1.7759624178987534,,experiment,cRDM,0.0,,,,776.8447412999994,211,25,male,True,7768,7776,False,False,inspiration,expiration
214,0.07714516178834692,25,down,down,0.4005945999997493,1.5455024973693885,,experiment,cRDM,0.0,,,,779.4446090000001,211,25,male,True,7794,7798,False,False,expiration,expiration
215,0.07714516178834692,25,down,up,0.3671820999988995,1.4554748386301193,,experiment,cRDM,0.0,,,,781.5779351999989,211,25,male,True,7815,7819,False,False,peak,expiration
216,0.07714516178834692,25,down,up,0.5933664000003773,0.3883501875883757,,experiment,cRDM,0.0,,,,782.6444477999994,211,25,male,True,7826,7832,False,False,expiration,expiration
217,0.07714516178834692,25,down,down,0.9194370000004709,0.8408130535898841,,experiment,cRDM,0.0,,,,784.344424699999,211,25,male,True,7843,7852,False,False,expiration,inspiration
218,0.07714516178834692,25,up,up,0.6389250000011089,1.9177014159533388,,experiment,cRDM,0.0,,,,787.4279707000004,211,25,male,True,7874,7880,False,False,expiration,expiration
219,0.07714516178834692,25,up,up,1.1431823000002623,0.7446906664896104,,experiment,cRDM,0.0,,,,789.0776593999999,211,25,male,True,7890,7901,False,False,expiration,expiration
220,0.07714516178834692,25,up,,,0.8413631384494562,,experiment,cRDM,0.0,,,,791.3273805999997,211,25,male,True,7913,0,False,False,inspiration,0
221,0.07714516178834692,25,down,down,1.472028000000137,0.34846733159168125,,experiment,cRDM,0.0,,,,794.3608148999992,211,25,male,True,7943,7958,False,False,expiration,expiration
222,0.07714516178834692,25,up,down,1.3490793999990274,0.47458073486437297,,experiment,cRDM,0.0,,,,796.5607457000007,211,25,male,True,7965,7978,False,False,inspiration,expiration
223,0.07714516178834692,25,down,down,0.7321934000010515,1.5715126377201036,,experiment,cRDM,0.0,,,,799.7606519000002,211,25,male,True,7997,8004,False,False,inspiration,inspiration
224,0.07714516178834692,25,down,up,0.6038060999999288,1.3695229705035628,,experiment,cRDM,0.0,,,,802.1270167999992,211,25,male,True,8021,8027,False,False,expiration,expiration
225,0.07714516178834692,25,up,up,0.6694360999990749,1.7205136113265134,,experiment,cRDM,0.0,,,,804.7104012999989,211,25,male,True,8046,8053,False,False,expiration,inspiration
226,0.07714516178834692,25,down,down,0.6141392999998061,1.890652242222815,,experiment,cRDM,0.0,,,,807.5436914999991,211,25,male,True,8075,8081,False,False,expiration,expiration
227,0.07714516178834692,25,up,up,0.4168198000006669,1.363451671068697,,experiment,cRDM,0.0,,,,809.7768992000001,211,25,male,True,8097,8101,False,False,expiration,expiration
228,0.07714516178834692,25,up,up,0.648358599999483,0.5526513098413739,,experiment,cRDM,0.0,,,,810.9935129999994,211,25,male,True,8109,8115,False,False,inspiration,inspiration
229,0.07714516178834692,25,up,up,0.5517428000002838,1.6491644241957908,,experiment,cRDM,0.0,,,,813.5600883000006,211,25,male,True,8135,8141,False,False,expiration,expiration
230,0.07714516178834692,25,up,up,0.6448040999985096,1.1324441695420278,,experiment,cRDM,0.0,,,,815.5100134999992,211,25,male,True,8154,8160,False,False,expiration,inspiration
231,0.07714516178834692,25,down,down,0.6062944999994215,1.9637825091143304,,experiment,cRDM,0.0,,,,818.3765757999989,211,25,male,True,8183,8189,False,False,expiration,expiration
232,0.07714516178834692,25,down,up,1.2166836000014882,1.4595014355261382,,experiment,cRDM,0.0,,,,820.6931624999997,211,25,male,True,8206,8218,False,False,inspiration,expiration
233,0.07714516178834692,25,down,down,0.6150918999992427,1.9967602677513752,,experiment,cRDM,0.0,,,,824.1597284999989,211,25,male,True,8241,8247,False,False,expiration,expiration
234,0.07714516178834692,25,down,down,0.8548791999983223,1.6541528848478224,,experiment,cRDM,0.0,,,,826.6929500999995,211,25,male,True,8266,8275,False,False,peak,expiration
235,0.07714516178834692,25,up,up,0.598659499999485,1.8177053234846068,,experiment,cRDM,0.0,,,,829.6261787000003,211,25,male,True,8295,8301,False,False,expiration,expiration
236,0.07714516178834692,25,up,up,0.5994675000001735,1.8101565107947069,,experiment,cRDM,0.0,,,,832.3093936999994,211,25,male,True,8322,8328,False,False,expiration,expiration
237,0.07714516178834692,25,up,up,0.6717765000012149,1.293539147361063,,experiment,cRDM,0.0,,,,834.4760077999998,211,25,male,True,8344,8351,False,False,expiration,expiration
238,0.07714516178834692,25,up,up,0.6445490999994945,0.8515032241857337,,experiment,cRDM,0.0,,,,836.2592943999989,211,25,male,True,8362,8368,False,False,inspiration,expiration
239,0.07714516178834692,25,down,up,0.8886232000004384,0.3270712561052078,,experiment,cRDM,0.0,,,,837.5092002000001,211,25,male,True,8374,8383,False,False,expiration,expiration
240,0.07714516178834692,25,down,up,0.6093591000008018,1.0416269761814372,,experiment,cRDM,0.0,,,,839.6924600999993,211,25,male,True,8396,8402,False,False,inspiration,peak
241,0.07714516178834692,25,down,down,0.6563936999991711,0.4417713519534325,,experiment,cRDM,0.0,,,,840.9924327999997,211,25,male,True,8409,8416,False,False,expiration,expiration
242,0.07714516178834692,25,up,up,0.6548274999986461,1.482467004905416,,experiment,cRDM,0.0,,,,843.4089858999997,211,25,male,True,8433,8440,False,False,expiration,inspiration
243,0.07714516178834692,25,up,,,0.5608746787215764,,experiment,cRDM,0.0,,,,844.8922846000005,211,25,male,True,8448,0,False,False,inspiration,0
244,0.07714516178834692,25,down,down,0.7066828000006353,1.410740181045231,,experiment,cRDM,0.0,,,,848.9921293999997,211,25,male,True,8489,8496,False,False,inspiration,inspiration
245,0.07714516178834692,25,up,up,0.5540674000003492,0.8006984461388622,,experiment,cRDM,0.0,,,,850.7587452999996,211,25,male,True,8507,8513,False,False,expiration,expiration
246,0.07714516178834692,25,down,down,0.5735998000000109,1.1618811916621348,,experiment,cRDM,0.0,,,,852.7253113999997,211,25,male,True,8526,8532,False,False,expiration,expiration
247,0.07714516178834692,25,up,up,0.6276569999990897,1.3684155026071672,,experiment,cRDM,0.0,,,,854.9252154000004,211,25,male,True,8548,8554,False,False,inspiration,expiration
248,0.07714516178834692,25,up,up,0.7867163000009896,1.9535955666855511,,experiment,cRDM,0.0,,,,857.7751277999997,211,25,male,True,8577,8585,False,False,expiration,expiration
249,0.07714516178834692,25,down,down,0.5872213000002375,0.4099183095015765,,experiment,cRDM,0.0,,,,859.2416350000003,211,25,male,True,8592,8598,False,False,inspiration,inspiration
250,0.07714516178834692,25,up,up,0.6263302000006661,1.9422664941771923,,experiment,cRDM,0.0,,,,862.0415219000006,211,25,male,True,8620,8626,False,False,expiration,expiration
251,0.07714516178834692,25,down,down,0.7489402000010159,0.5314930367175468,,experiment,cRDM,0.0,,,,863.4748944000003,211,25,male,True,8634,8641,False,False,inspiration,inspiration
252,0.07714516178834692,25,down,down,0.7824567000006937,1.9533011929427195,,experiment,cRDM,0.0,,,,866.4413676000003,211,25,male,True,8664,8672,False,False,expiration,expiration
253,0.07714516178834692,25,down,down,1.1729216000003362,0.5599526386199963,,experiment,cRDM,0.0,,,,868.0581012000004,211,25,male,True,8680,8692,False,False,inspiration,expiration
254,0.07714516178834692,25,down,down,0.9661345000004076,0.5237163034636364,,experiment,cRDM,0.0,,,,870.0246905999992,211,25,male,True,8699,8709,False,False,expiration,expiration
255,0.07714516178834692,25,up,up,0.4826269999994111,1.3772551567515143,,experiment,cRDM,0.0,,,,872.6412344,211,25,male,True,8726,8731,False,False,inspiration,expiration
256,0.07714516178834692,25,down,up,0.5329192000008334,0.8818078330447507,,experiment,cRDM,0.0,,,,874.2579067999995,211,25,male,True,8742,8747,False,False,expiration,expiration
257,0.07714516178834692,25,down,down,0.667046599999594,1.3593213512063593,,experiment,cRDM,0.0,,,,876.4077734000003,211,25,male,True,8763,8770,False,False,inspiration,inspiration
258,0.07714516178834692,25,down,down,0.9534942999998748,0.7845036168495739,,experiment,cRDM,0.0,,,,878.1243634999993,211,25,male,True,8780,8790,False,False,expiration,expiration
259,0.07714516178834692,25,up,up,0.7438402000007045,1.3476055351782157,,experiment,cRDM,0.0,,,,880.6909667000001,211,25,male,True,8806,8813,False,False,trough,inspiration
260,0.07714516178834692,25,up,up,0.8706034000006184,1.476005802526261,,experiment,cRDM,0.0,,,,883.1741916999998,211,25,male,True,8831,8840,False,False,expiration,expiration
261,0.07714516178834692,25,up,down,0.6067437000001519,1.22403037903597,,experiment,cRDM,0.0,,,,885.5240812999999,211,25,male,True,8854,8860,False,False,expiration,inspiration
262,0.07714516178834692,25,up,down,0.6492242000003898,1.956061771663844,,experiment,cRDM,0.0,,,,888.3406028999997,211,25,male,True,8883,8889,False,False,expiration,expiration
263,67.0,25,M,down,0.965517299999192,1.5727950141711768,,experiment,emotion,0.0,,,,907.2233085999997,211,25,male,True,9071,9081,False,False,peak,expiration
264,61.0,25,M,down,0.8575947999997879,1.3819414366338199,,experiment,emotion,0.0,,,,909.8732239,211,25,male,True,9098,9107,False,False,inspiration,inspiration
265,67.0,25,F,down,0.729674399999567,0.8578824683531229,,experiment,emotion,0.0,,,,911.8731564999997,211,25,male,True,9118,9125,False,False,inspiration,inspiration
266,51.0,25,F,down,0.5574629999991885,1.2182682104863691,,experiment,emotion,0.0,,,,914.1063746,211,25,male,True,9140,9146,False,False,expiration,expiration
267,56.0,25,M,down,0.7109108000004198,1.3795224645001205,,experiment,emotion,0.0,,,,916.3229169000006,211,25,male,True,9163,9170,False,False,expiration,inspiration
268,61.0,25,F,down,0.5795564000000013,0.8524070663127372,,experiment,emotion,0.0,,,,918.1562720000003,211,25,male,True,9181,9187,False,False,peak,expiration
269,56.0,25,M,down,0.7873773999999685,1.895680486914596,,experiment,emotion,0.0,,,,920.8894717999992,211,25,male,True,9208,9216,False,False,expiration,expiration
270,51.0,25,M,,,1.3131641019424418,,experiment,emotion,0.0,,,,923.2560680000006,211,25,male,True,9232,0,False,False,inspiration,0
271,51.0,25,F,down,1.0242682000007337,1.4272514832286307,,experiment,emotion,0.0,,,,927.372583299999,211,25,male,True,9273,9283,False,False,expiration,inspiration
272,67.0,25,F,down,0.8580238000013196,0.5809447607351853,,experiment,emotion,0.0,,,,929.2558262999993,211,25,male,True,9292,9301,False,False,expiration,expiration
273,61.0,25,F,down,0.7077833000003011,1.3904774435801552,,experiment,emotion,0.0,,,,931.7890685999993,211,25,male,True,9317,9324,False,False,expiration,inspiration
274,56.0,25,F,down,0.7218235000000277,1.8615585281606095,,experiment,emotion,0.0,,,,934.6389963999992,211,25,male,True,9346,9353,False,False,expiration,expiration
275,67.0,25,F,up,0.9592656000004354,0.4221903219323517,,experiment,emotion,0.0,,,,936.0555814,211,25,male,True,9360,9370,False,False,trough,inspiration
276,51.0,25,F,down,0.6368526000005659,1.9280644939597813,,experiment,emotion,0.0,,,,939.2219894999997,211,25,male,True,9392,9398,False,False,expiration,expiration
277,56.0,25,M,down,0.6907993999993778,0.4862758282098838,,experiment,emotion,0.0,,,,940.6220486999993,211,25,male,True,9406,9413,False,False,inspiration,inspiration
278,61.0,25,M,down,0.6241618000003655,0.5591299445699804,,experiment,emotion,0.0,,,,942.1386879,211,25,male,True,9421,9427,False,False,expiration,expiration
279,51.0,25,M,down,0.862554999999702,0.3996139984743762,,experiment,emotion,0.0,,,,943.4222592000007,211,25,male,True,9434,9443,False,False,expiration,expiration
280,61.0,25,M,up,1.003598499999498,1.7060346471500578,,experiment,emotion,0.0,,,,946.2552201,211,25,male,True,9462,9472,False,False,inspiration,expiration
281,61.0,25,F,down,0.5734238999993977,1.0818229856454094,,experiment,emotion,0.0,,,,948.5884580000003,211,25,male,True,9485,9491,False,False,expiration,expiration
282,67.0,25,M,up,1.3626028999988191,1.7787813214012385,,experiment,emotion,0.0,,,,951.2382039000003,211,25,male,True,9512,9526,False,False,expiration,expiration
283,51.0,25,M,down,1.3989244999993389,1.3338969763597173,,experiment,emotion,0.0,,,,954.2048966000003,211,25,male,True,9541,9555,False,False,expiration,inspiration
284,56.0,25,F,up,0.9733753000000434,0.7860350421038359,,experiment,emotion,0.0,,,,956.6714997999987,211,25,male,True,9566,9576,False,False,expiration,expiration
285,67.0,25,M,up,0.9224154999992606,1.5028193019160423,,experiment,emotion,0.0,,,,959.4213643000003,211,25,male,True,9594,9603,False,False,inspiration,expiration
286,56.0,25,F,up,0.7008811000014248,0.4159211037767978,,experiment,emotion,0.0,,,,961.0379436000003,211,25,male,True,9610,9617,False,False,expiration,expiration
287,56.0,25,F,up,1.1478984999994282,1.0761903240186368,,experiment,emotion,0.0,,,,963.0879258999994,211,25,male,True,9630,9641,False,False,inspiration,expiration
288,61.0,25,M,up,0.8240097000016249,0.9658040342956308,,experiment,emotion,0.0,,,,965.4878444999997,211,25,male,True,9654,9662,False,False,expiration,expiration
289,67.0,25,M,up,1.037414100001115,1.8782170880873368,,experiment,emotion,0.0,,,,968.4543890999994,211,25,male,True,9684,9694,False,False,expiration,inspiration
290,51.0,25,F,up,0.7991698999994696,0.414774782947335,,experiment,emotion,0.0,,,,970.1876536,211,25,male,True,9701,9709,False,False,inspiration,expiration
291,61.0,25,M,down,1.498899700000038,1.8646658393567943,,experiment,emotion,0.0,,,,973.1209063999997,211,25,male,True,9731,9746,False,False,expiration,inspiration
292,51.0,25,F,down,1.1210895000003802,1.6328284153744397,,experiment,emotion,0.0,,,,976.5207365000006,211,25,male,True,9764,9775,False,False,expiration,expiration
293,56.0,25,F,down,0.657184600000619,1.8436981231704364,,experiment,emotion,0.0,,,,979.7706517000006,211,25,male,True,9797,9804,False,False,expiration,expiration
294,67.0,25,F,down,1.058947800000169,1.7857766324865487,,experiment,emotion,0.0,,,,982.5038523999992,211,25,male,True,9824,9835,False,False,expiration,expiration
295,61.0,25,M,down,1.0690616000010775,1.266237543959654,,experiment,emotion,0.0,,,,985.1037627000003,211,25,male,True,9850,9861,False,False,expiration,expiration
296,51.0,25,M,down,0.7251353000010567,1.3070503712679773,,experiment,emotion,0.0,,,,987.7536877999993,211,25,male,True,9877,9884,False,False,expiration,expiration
297,56.0,25,M,down,0.6705703000006906,0.959957180843288,,experiment,emotion,0.0,,,,989.7202574000003,211,25,male,True,9897,9904,False,False,inspiration,inspiration
298,56.0,25,F,down,0.7285812000009173,0.4721306355019359,,experiment,emotion,0.0,,,,991.1202460000003,211,25,male,True,9911,9918,False,False,expiration,expiration
299,67.0,25,F,down,0.9253274999991844,0.9688952344790032,,experiment,emotion,0.0,,,,993.1034903999988,211,25,male,True,9930,9939,False,False,expiration,expiration
300,61.0,25,M,up,0.9044314000002488,1.5625354776688694,,experiment,emotion,0.0,,,,995.8533915999997,211,25,male,True,9958,9967,False,False,expiration,expiration
301,67.0,25,F,up,0.7823533999999199,0.3226150277646898,,experiment,emotion,0.0,,,,997.3365054000003,211,25,male,True,9973,9981,False,False,expiration,expiration
302,51.0,25,M,up,0.7049252999986493,1.622654108201251,,experiment,emotion,0.0,,,,1000.0198816999999,211,25,male,True,9999,10006,False,False,peak,expiration
303,56.0,25,M,up,0.8506363000014971,0.5228426528625352,,experiment,emotion,0.0,,,,1001.5031617000003,211,25,male,True,10014,10023,False,False,expiration,expiration
304,51.0,25,M,up,1.073740900001212,1.7759250474077346,,experiment,emotion,0.0,,,,1004.4030805000003,211,25,male,True,10043,10054,False,False,inspiration,expiration
305,51.0,25,F,down,0.8995453999996244,1.9601173714826148,,experiment,emotion,0.0,,,,1007.686270799999,211,25,male,True,10076,10085,False,False,expiration,inspiration
306,67.0,25,F,down,1.3363021000004665,0.4465018679131377,,experiment,emotion,0.0,,,,1009.3195357000003,211,25,male,True,10092,10105,False,False,expiration,expiration
307,61.0,25,M,up,0.8337234999999055,0.8487924618378782,,experiment,emotion,0.0,,,,1011.7861009999997,211,25,male,True,10117,10125,False,False,expiration,inspiration
308,56.0,25,F,up,0.7197591999993165,1.0771730367955197,,experiment,emotion,0.0,,,,1013.9860403000004,211,25,male,True,10139,10146,False,False,expiration,expiration
309,61.0,25,F,down,0.7775375000001077,1.2449197787833084,,experiment,emotion,0.0,,,,1016.2192878000003,211,25,male,True,10161,10169,False,False,expiration,inspiration
310,67.0,25,M,down,0.8952401999995345,0.32873992527456986,,experiment,emotion,0.0,,,,1017.6025804,211,25,male,True,10175,10184,False,False,inspiration,expiration
311,56.0,25,M,down,0.6473671000003378,0.8997078560548497,,experiment,emotion,0.0,,,,1019.6525342000003,211,25,male,True,10196,10202,False,False,expiration,expiration
312,67.0,25,F,up,0.6547300999991421,1.0633472773871249,,experiment,emotion,0.0,,,,1021.6190745000004,211,25,male,True,10215,10222,False,False,inspiration,expiration
313,61.0,25,M,down,0.5340891000014379,0.5542440070956542,,experiment,emotion,0.0,,,,1023.0857290999992,211,25,male,True,10230,10235,False,False,expiration,expiration
314,51.0,25,F,down,0.5881890000000567,0.5765295917123375,,experiment,emotion,0.0,,,,1024.4856696000006,211,25,male,True,10244,10250,False,False,inspiration,inspiration
315,61.0,25,F,down,0.6013598999998067,1.2793313066914371,,experiment,emotion,0.0,,,,1026.635490499999,211,25,male,True,10266,10272,False,False,expiration,expiration
316,56.0,25,F,down,0.44467160000021977,1.8258630433190293,,experiment,emotion,0.0,,,,1029.3521545999993,211,25,male,True,10293,10297,False,False,inspiration,inspiration
317,67.0,25,M,down,0.5824816000003921,0.4719846072386373,,experiment,emotion,0.0,,,,1030.5353403999998,211,25,male,True,10305,10311,False,False,expiration,expiration
318,51.0,25,M,down,0.5492037999993045,1.4190451368961643,,experiment,emotion,0.0,,,,1032.8187018999997,211,25,male,True,10327,10332,False,False,expiration,expiration
319,61.0,25,F,down,0.5046856000008121,0.6017952602341861,,experiment,emotion,0.0,,,,1034.2351589999996,211,25,male,True,10342,10347,False,False,inspiration,expiration
320,61.0,25,F,down,0.5348985999989964,0.7803665775045283,,experiment,emotion,0.0,,,,1035.801920599999,211,25,male,True,10357,10362,False,False,expiration,expiration
321,51.0,25,M,down,0.35028029999921273,0.6227905058755314,,experiment,emotion,0.0,,,,1037.2350616999993,211,25,male,True,10372,10376,False,False,expiration,inspiration
322,67.0,25,M,down,0.4198749000006501,0.9315851580144154,,experiment,emotion,0.0,,,,1038.8349282999989,211,25,male,True,10388,10392,False,False,expiration,expiration
323,67.0,25,M,down,0.4894199000009394,1.054386516874481,,experiment,emotion,0.0,,,,1040.5684062,211,25,male,True,10405,10410,False,False,expiration,expiration
324,56.0,25,M,down,0.6160935000007157,0.613618606197736,,experiment,emotion,0.0,,,,1041.951723,211,25,male,True,10419,10425,False,False,inspiration,expiration
325,56.0,25,M,down,0.4561907999996038,0.9761248885019403,,experiment,emotion,0.0,,,,1043.8016351999997,211,25,male,True,10437,10442,False,False,expiration,expiration
326,51.0,25,F,down,0.5782926999982011,1.8795863726615047,,experiment,emotion,0.0,,,,1046.4015244999991,211,25,male,True,10463,10469,False,False,expiration,expiration
327,56.0,25,F,down,0.5160074000013992,0.9776443282362332,,experiment,emotion,0.0,,,,1048.2348153000003,211,25,male,True,10482,10487,False,False,expiration,expiration
328,67.0,25,M,down,0.5374164000004384,0.6817042162872256,,experiment,emotion,0.0,,,,1049.7014022999992,211,25,male,True,10496,10501,False,False,inspiration,inspiration
329,61.0,25,F,down,0.7215746999991097,0.6913423519587087,,experiment,emotion,0.0,,,,1051.2013518999993,211,25,male,True,10511,10518,False,False,expiration,expiration
330,51.0,25,F,down,0.6305587000006199,0.4044424603143111,,experiment,emotion,0.0,,,,1052.6013184999993,211,25,male,True,10525,10531,False,False,expiration,expiration
331,51.0,25,F,down,0.5949455999998463,0.4298758777909064,,experiment,emotion,0.0,,,,1053.9179026000004,211,25,male,True,10538,10544,False,False,expiration,inspiration
332,61.0,25,M,down,0.5599655000005441,0.5374544840251653,,experiment,emotion,0.0,,,,1055.3178358999994,211,25,male,True,10552,10558,False,False,expiration,expiration
333,56.0,25,F,down,0.4443479000001389,0.7443238890509812,,experiment,emotion,0.0,,,,1056.8844735000002,211,25,male,True,10568,10572,False,False,expiration,expiration
334,67.0,25,F,up,0.7941211999986991,1.5089229246730032,,experiment,emotion,0.0,,,,1059.1176997000002,211,25,male,True,10590,10598,False,False,expiration,expiration
335,51.0,25,F,down,1.0162030999999845,1.5221220562459767,,experiment,emotion,0.0,,,,1061.7175996999997,211,25,male,True,10616,10626,False,False,inspiration,expiration
336,56.0,25,M,down,1.0949828000011619,1.1964004986315868,,experiment,emotion,0.0,,,,1064.2008692999989,211,25,male,True,10641,10652,False,False,expiration,expiration
337,51.0,25,M,down,0.5610710000000836,1.6259232606482326,,experiment,emotion,0.0,,,,1067.2007446999996,211,25,male,True,10671,10677,False,False,expiration,expiration
338,61.0,25,F,down,0.6437877999996999,0.8467070818204636,,experiment,emotion,0.0,,,,1068.8840679999994,211,25,male,True,10688,10694,False,False,expiration,expiration
339,67.0,25,M,down,0.5775670999992144,1.7844819961797604,,experiment,emotion,0.0,,,,1071.5672582999996,211,25,male,True,10715,10721,False,False,expiration,expiration
340,56.0,25,F,down,0.5806068000001687,0.8450251237429289,,experiment,emotion,0.0,,,,1073.2672105999989,211,25,male,True,10732,10738,False,False,expiration,expiration
341,67.0,25,M,down,0.6910485999997036,0.5690585000839525,,experiment,emotion,0.0,,,,1074.6838064000003,211,25,male,True,10746,10753,False,False,inspiration,inspiration
342,61.0,25,M,down,0.8181205999990198,1.0386782163439023,,experiment,emotion,0.0,,,,1076.6837598999991,211,25,male,True,10766,10774,False,False,expiration,expiration
343,0.07714516178834692,25,up,up,0.8104041000005964,0.9154313223448668,,experiment,cRDM,1.0,,,,1085.083408999999,211,25,male,True,10850,10858,False,False,expiration,inspiration
344,0.07714516178834692,25,up,up,0.4761483999991469,0.9950855096400509,,experiment,cRDM,1.0,,,,1087.1666956999998,211,25,male,True,10871,10876,False,False,expiration,expiration
345,0.07714516178834692,25,down,down,0.7465422999994189,1.4808894320932255,,experiment,cRDM,1.0,,,,1089.3832762999991,211,25,male,True,10893,10900,False,False,expiration,trough
346,0.07714516178834692,25,down,up,0.5498035000000527,1.553326259103288,,experiment,cRDM,1.0,,,,1091.9330119000006,211,25,male,True,10919,10924,False,False,expiration,expiration
347,0.07714516178834692,25,up,up,0.6249724000008428,0.4104727474636007,,experiment,cRDM,1.0,,,,1093.14984,211,25,male,True,10931,10937,False,False,expiration,expiration
348,0.07714516178834692,25,down,down,0.6764429000013479,1.7755292883307046,,experiment,cRDM,1.0,,,,1095.8163769999992,211,25,male,True,10957,10964,False,False,inspiration,expiration
349,0.07714516178834692,25,up,up,0.57653609999943,0.7559661606257952,,experiment,cRDM,1.0,,,,1097.5163042000004,211,25,male,True,10974,10980,False,False,expiration,expiration
350,0.07714516178834692,25,up,down,1.1599856999982876,1.6707901586509841,,experiment,cRDM,1.0,,,,1100.0327837000002,211,25,male,True,11000,11012,False,False,peak,expiration
351,0.07714516178834692,25,down,down,0.6527229000002989,1.9085123672834627,,experiment,cRDM,1.0,,,,1103.3660968999993,211,25,male,True,11033,11040,False,False,expiration,inspiration
352,0.07714516178834692,25,down,up,0.8908255000005738,1.8752080499628268,,experiment,cRDM,1.0,,,,1106.1659837999996,211,25,male,True,11061,11070,False,False,expiration,expiration
353,0.07714516178834692,25,down,down,0.5972657999991497,1.2483722573474043,,experiment,cRDM,1.0,,,,1108.5825499999992,211,25,male,True,11085,11091,False,False,inspiration,expiration
354,0.07714516178834692,25,down,down,0.6096715000003314,1.8013349982138362,,experiment,cRDM,1.0,,,,1111.2491725,211,25,male,True,11112,11118,False,False,inspiration,inspiration
355,0.07714516178834692,25,down,down,0.6744314000006852,1.5659599332536802,,experiment,cRDM,1.0,,,,1113.6823772999996,211,25,male,True,11136,11143,False,False,expiration,expiration
356,0.07714516178834692,25,down,down,0.6941798000007111,0.9480758382417518,,experiment,cRDM,1.0,,,,1115.565632599999,211,25,male,True,11155,11162,False,False,expiration,expiration
357,0.07714516178834692,25,up,up,0.6978756000007706,0.5266149690763857,,experiment,cRDM,1.0,,,,1117.0489371999993,211,25,male,True,11170,11177,False,False,inspiration,expiration
358,0.07714516178834692,25,up,up,0.8379343000015069,0.4478523409817456,,experiment,cRDM,1.0,,,,1118.4488863999998,211,25,male,True,11184,11192,False,False,expiration,expiration
359,0.07714516178834692,25,up,up,1.1727919000004476,1.973562356792785,,experiment,cRDM,1.0,,,,1121.5320321999989,211,25,male,True,11215,11227,False,False,inspiration,expiration
360,0.07714516178834692,25,up,down,0.5748084000006202,0.7174732407105412,,experiment,cRDM,1.0,,,,1123.682023899999,211,25,male,True,11236,11242,False,False,expiration,expiration
361,0.07714516178834692,25,down,down,0.6235880000003817,0.9146203269781176,,experiment,cRDM,1.0,,,,1125.4152462999991,211,25,male,True,11254,11260,False,False,inspiration,inspiration
362,0.07714516178834692,25,up,up,0.5783221000001504,1.7909591117829426,,experiment,cRDM,1.0,,,,1128.0984833000002,211,25,male,True,11280,11286,False,False,expiration,expiration
363,0.07714516178834692,25,up,up,0.6277410000002419,0.6728903988508261,,experiment,cRDM,1.0,,,,1129.6150708999996,211,25,male,True,11296,11302,False,False,inspiration,inspiration
364,0.07714516178834692,25,down,down,0.5342717999992601,1.6238018213615633,,experiment,cRDM,1.0,,,,1132.1315300000006,211,25,male,True,11321,11326,False,False,expiration,expiration
365,0.07714516178834692,25,up,up,0.5298705000004702,1.5549238549178073,,experiment,cRDM,1.0,,,,1134.4649418999998,211,25,male,True,11344,11349,False,False,inspiration,peak
366,0.07714516178834692,25,down,down,0.5969431000012264,1.3623692055754892,,experiment,cRDM,1.0,,,,1136.6148692999996,211,25,male,True,11365,11371,False,False,expiration,expiration
367,0.07714516178834692,25,down,up,0.7400947999994969,0.9427325374123052,,experiment,cRDM,1.0,,,,1138.4147763,211,25,male,True,11383,11390,False,False,inspiration,inspiration
368,0.07714516178834692,25,up,up,0.7824364999996759,0.7675963454592146,,experiment,cRDM,1.0,,,,1140.1814080000004,211,25,male,True,11401,11409,False,False,expiration,expiration
369,0.07714516178834692,25,up,down,1.1758503999990353,1.4627825675645412,,experiment,cRDM,1.0,,,,1142.6979642000006,211,25,male,True,11426,11438,False,False,trough,peak
370,0.07714516178834692,25,down,down,0.7162382999995316,0.7335357927935457,,experiment,cRDM,1.0,,,,1144.8645770000005,211,25,male,True,11448,11455,False,False,expiration,expiration
371,0.07714516178834692,25,up,up,0.8870012000006682,0.9649013294098904,,experiment,cRDM,1.0,,,,1146.7978119000002,211,25,male,True,11467,11476,False,False,inspiration,expiration
372,0.07714516178834692,25,down,down,0.9898769999999786,1.8954880938221876,,experiment,cRDM,1.0,,,,1149.8309203999995,211,25,male,True,11498,11508,False,False,expiration,inspiration
373,0.07714516178834692,25,down,up,0.5761668999984977,0.7671281167665298,,experiment,cRDM,1.0,,,,1151.8476470000005,211,25,male,True,11518,11524,False,False,peak,expiration
374,0.07714516178834692,25,down,down,0.5299381000004361,1.4899349134432678,,experiment,cRDM,1.0,,,,1154.180881799999,211,25,male,True,11541,11546,False,False,expiration,expiration
375,0.07714516178834692,25,up,up,0.616002099999605,0.5070624262514801,,experiment,cRDM,1.0,,,,1155.4808305000004,211,25,male,True,11554,11560,False,False,inspiration,inspiration
376,0.07714516178834692,25,up,up,0.6637009999994916,0.5152787069299318,,experiment,cRDM,1.0,,,,1156.8641146999996,211,25,male,True,11568,11575,False,False,expiration,expiration
377,0.07714516178834692,25,up,up,0.6588609000009455,0.8356140971250028,,experiment,cRDM,1.0,,,,1158.6139795999989,211,25,male,True,11586,11593,False,False,expiration,expiration
378,0.07714516178834692,25,down,down,0.7967989000007947,1.97151591259017,,experiment,cRDM,1.0,,,,1161.5139233999996,211,25,male,True,11614,11622,False,False,expiration,expiration
379,0.07714516178834692,25,down,down,0.7413570999997319,1.6651706329684062,,experiment,cRDM,1.0,,,,1164.2304590999993,211,25,male,True,11642,11649,False,False,inspiration,inspiration
380,0.07714516178834692,25,up,up,0.6796899999990273,1.4981569669747627,,experiment,cRDM,1.0,,,,1166.7471468000006,211,25,male,True,11667,11674,False,False,expiration,expiration
381,0.07714516178834692,25,down,down,0.6081652000011672,1.0703840870659245,,experiment,cRDM,1.0,,,,1168.763648799999,211,25,male,True,11687,11693,False,False,expiration,inspiration
382,0.07714516178834692,25,up,up,0.5089144000012311,1.8704365359582589,,experiment,cRDM,1.0,,,,1171.4969029000004,211,25,male,True,11714,11719,False,False,expiration,expiration
383,0.07714516178834692,25,up,up,0.8427610999988246,1.4634945213430466,,experiment,cRDM,1.0,,,,1173.7300541000004,211,25,male,True,11737,11745,False,False,expiration,inspiration
384,0.07714516178834692,25,up,down,0.6594210999992356,1.0167893595384148,,experiment,cRDM,1.0,,,,1175.8634131,211,25,male,True,11758,11765,False,False,expiration,expiration
385,0.07714516178834692,25,down,down,0.6361125000003085,0.5685556103738949,,experiment,cRDM,1.0,,,,1177.3467256000004,211,25,male,True,11773,11779,False,False,expiration,expiration
386,0.07714516178834692,25,down,down,0.612534500000038,1.1167980449083332,,experiment,cRDM,1.0,,,,1179.3632789000005,211,25,male,True,11793,11799,False,False,inspiration,expiration
387,0.07714516178834692,25,up,up,0.6686248999994859,0.3700235920895623,,experiment,cRDM,1.0,,,,1180.613186999999,211,25,male,True,11806,11813,False,False,expiration,expiration
388,0.07714516178834692,25,down,up,0.8732789000005141,0.8204931537729754,,experiment,cRDM,1.0,,,,1182.3465039000002,211,25,male,True,11823,11832,False,False,inspiration,expiration
389,0.07714516178834692,25,down,down,0.4167958999987604,1.4024507891929645,,experiment,cRDM,1.0,,,,1184.8964119999998,211,25,male,True,11848,11852,False,False,expiration,trough
390,0.07714516178834692,25,up,up,0.5748376999999891,1.7964883880720768,,experiment,cRDM,1.0,,,,1187.3630051,211,25,male,True,11873,11879,False,False,expiration,expiration
391,0.07714516178834692,25,up,up,0.5216512000006333,1.7348231274559276,,experiment,cRDM,1.0,,,,1189.9462270000004,211,25,male,True,11899,11904,False,False,expiration,inspiration
392,0.07714516178834692,25,down,up,0.816981100000703,0.6283473534962996,,experiment,cRDM,1.0,,,,1191.3628312,211,25,male,True,11913,11921,False,False,inspiration,expiration
393,0.07714516178834692,25,up,up,0.6170610000008311,0.3605683891857969,,experiment,cRDM,1.0,,,,1192.8127774999996,211,25,male,True,11927,11933,False,False,expiration,expiration
394,0.07714516178834692,25,down,down,0.6414925999997649,1.895389918832949,,experiment,cRDM,1.0,,,,1195.5793630999995,211,25,male,True,11955,11961,False,False,inspiration,peak
395,0.07714516178834692,25,down,up,0.6138528999999835,0.6065004432813439,,experiment,cRDM,1.0,,,,1197.0959605999994,211,25,male,True,11970,11976,False,False,expiration,expiration
396,0.07714516178834692,25,down,up,1.1972706999986258,1.7842500650079796,,experiment,cRDM,1.0,,,,1199.7625344999994,211,25,male,True,11997,12009,False,False,inspiration,expiration
397,0.07714516178834692,25,up,up,0.586721600000601,1.4555462318257535,,experiment,cRDM,1.0,,,,1202.6791071999996,211,25,male,True,12026,12032,False,False,expiration,expiration
398,0.07714516178834692,25,up,up,0.6254265999996278,0.7389402391855032,,experiment,cRDM,1.0,,,,1204.2623851999995,211,25,male,True,12042,12048,False,False,inspiration,inspiration
399,0.07714516178834692,25,down,down,0.6898440000004484,0.8266716452761591,,experiment,cRDM,1.0,,,,1205.978960999999,211,25,male,True,12059,12066,False,False,expiration,expiration
400,0.07714516178834692,25,down,up,0.6426244999984192,1.7376527318370951,,experiment,cRDM,1.0,,,,1208.6622269000002,211,25,male,True,12086,12092,False,False,inspiration,inspiration
401,0.07714516178834692,25,up,up,0.6226336999989144,0.6260846461644501,,experiment,cRDM,1.0,,,,1210.2121793000006,211,25,male,True,12102,12108,False,False,expiration,expiration
402,0.07714516178834692,25,up,up,0.7954004999992321,0.4905426149190133,,experiment,cRDM,1.0,,,,1211.595406299999,211,25,male,True,12115,12123,False,False,expiration,expiration
403,0.07714516178834692,25,up,up,0.5587519000000611,0.9079887021978126,,experiment,cRDM,1.0,,,,1213.5620199000005,211,25,male,True,12135,12141,False,False,inspiration,expiration
404,0.07714516178834692,25,up,up,0.6021934000000329,0.7582576027363458,,experiment,cRDM,1.0,,,,1215.1286760000005,211,25,male,True,12151,12157,False,False,expiration,expiration
405,0.07714516178834692,25,up,up,0.6652184000013222,0.3323498065966716,,experiment,cRDM,1.0,,,,1216.3286306999996,211,25,male,True,12163,12170,False,False,trough,inspiration
406,0.07714516178834692,25,down,down,0.6822617999987415,1.2791795727128863,,experiment,cRDM,1.0,,,,1218.5285478999995,211,25,male,True,12185,12192,False,False,expiration,expiration
407,0.07714516178834692,25,down,down,0.8263741999999183,1.0051794060926094,,experiment,cRDM,1.0,,,,1220.4784359000005,211,25,male,True,12204,12212,False,False,inspiration,inspiration
408,0.07714516178834692,25,up,up,0.5641539000007469,1.8472981366742387,,experiment,cRDM,1.0,,,,1223.411655599999,211,25,male,True,12233,12239,False,False,expiration,inspiration
409,0.07714516178834692,25,down,down,0.6612019999993208,0.6265756786124002,,experiment,cRDM,1.0,,,,1224.8616051999998,211,25,male,True,12248,12255,False,False,inspiration,expiration
410,0.07714516178834692,25,down,up,0.6278250999985175,0.53752553057828,,experiment,cRDM,1.0,,,,1226.3280460000005,211,25,male,True,12263,12269,False,False,expiration,expiration
411,0.07714516178834692,25,down,up,0.8243206999995891,1.784977722821023,,experiment,cRDM,1.0,,,,1229.0114505999989,211,25,male,True,12289,12297,False,False,expiration,expiration
412,0.07714516178834692,25,up,up,0.6789260000005015,1.7196689959955254,,experiment,cRDM,1.0,,,,1231.8279177000004,211,25,male,True,12318,12325,False,False,inspiration,inspiration
413,0.07714516178834692,25,down,up,0.8742003000006662,1.4217033471364289,,experiment,cRDM,1.0,,,,1234.194607899999,211,25,male,True,12341,12350,False,False,expiration,expiration
414,0.07714516178834692,25,down,down,0.8119209000014962,1.3987768324563443,,experiment,cRDM,1.0,,,,1236.727888899999,211,25,male,True,12367,12375,False,False,inspiration,expiration
415,0.07714516178834692,25,down,up,0.5880353999982617,1.629188066506722,,experiment,cRDM,1.0,,,,1239.4277714000002,211,25,male,True,12394,12400,False,False,expiration,inspiration
416,0.07714516178834692,25,up,up,0.6348204999994778,0.4460530109769149,,experiment,cRDM,1.0,,,,1240.7109951999992,211,25,male,True,12407,12413,False,False,inspiration,expiration
417,0.07714516178834692,25,up,up,0.6472167000010813,1.4141846153596414,,experiment,cRDM,1.0,,,,1243.0276305999996,211,25,male,True,12430,12436,False,False,expiration,inspiration
418,0.07714516178834692,25,down,down,0.6112400000001799,1.9719910907336424,,experiment,cRDM,1.0,,,,1245.9275669,211,25,male,True,12459,12465,False,False,expiration,expiration
419,0.07714516178834692,25,up,up,0.6830593000013323,0.5020126431522313,,experiment,cRDM,1.0,,,,1247.3107701999998,211,25,male,True,12473,12480,False,False,inspiration,inspiration
420,0.07714516178834692,25,down,down,0.5182487000001856,1.7460576818375138,,experiment,cRDM,1.0,,,,1250.0105602000006,211,25,male,True,12500,12505,False,False,expiration,expiration
421,0.07714516178834692,25,up,up,0.5998693999990792,0.8187034333791277,,experiment,cRDM,1.0,,,,1251.5939373999988,211,25,male,True,12515,12521,False,False,inspiration,inspiration
422,0.07714516178834692,25,up,up,0.6279513999998017,1.7853011102844099,,experiment,cRDM,1.0,,,,1254.2438512999995,211,25,male,True,12542,12548,False,False,expiration,trough
423,67.0,25,M,down,0.9893030000002908,1.6427766457783826,,experiment,emotion,1.0,,,,1263.2935027999993,211,25,male,True,12632,12642,False,False,inspiration,peak
424,61.0,25,M,down,0.7170479000014893,1.5225441930804011,,experiment,emotion,1.0,,,,1266.0767644999996,211,25,male,True,12660,12667,False,False,expiration,expiration
425,67.0,25,F,down,0.6951781999996456,1.0614667041167851,,experiment,emotion,1.0,,,,1268.1266784000002,211,25,male,True,12681,12688,False,False,inspiration,expiration
426,51.0,25,F,down,0.5975063999994745,0.5951870345462638,,experiment,emotion,1.0,,,,1269.693299999999,211,25,male,True,12696,12702,False,False,expiration,expiration
427,56.0,25,M,down,0.6011510000007547,0.9386372302485629,,experiment,emotion,1.0,,,,1271.5098839999991,211,25,male,True,12715,12721,False,False,inspiration,inspiration
428,61.0,25,F,down,0.6309865000002901,0.8344589789347525,,experiment,emotion,1.0,,,,1273.2098241000006,211,25,male,True,12732,12738,False,False,expiration,expiration
429,56.0,25,M,down,0.7137406999991072,1.5772591808042011,,experiment,emotion,1.0,,,,1275.6930938999994,211,25,male,True,12756,12763,False,False,expiration,inspiration
430,51.0,25,M,down,0.6845998999997391,0.33381337109470305,,experiment,emotion,1.0,,,,1277.026208199999,211,25,male,True,12770,12777,False,False,inspiration,expiration
431,51.0,25,F,down,0.613192999999228,0.38121345867618855,,experiment,emotion,1.0,,,,1278.3596115,211,25,male,True,12783,12789,False,False,expiration,expiration
432,67.0,25,F,down,0.6179391000005126,1.993535691321308,,experiment,emotion,1.0,,,,1281.2428708999996,211,25,male,True,12812,12818,False,False,inspiration,expiration
433,61.0,25,F,down,0.7940083000012237,1.2587556973898422,,experiment,emotion,1.0,,,,1283.3927970999996,211,25,male,True,12833,12841,False,False,expiration,expiration
434,56.0,25,F,down,0.7694742000003316,1.5463763099446692,,experiment,emotion,1.0,,,,1286.0093414000005,211,25,male,True,12859,12867,False,False,inspiration,expiration
435,67.0,25,F,down,0.783933499998966,1.183951075190074,,experiment,emotion,1.0,,,,1288.2258492,211,25,male,True,12882,12890,False,False,expiration,inspiration
436,51.0,25,F,down,0.6800383000008878,1.7335494577771136,,experiment,emotion,1.0,,,,1291.0257923999998,211,25,male,True,12910,12917,False,False,expiration,expiration
437,56.0,25,M,down,0.7857576000005793,1.3263947427850915,,experiment,emotion,1.0,,,,1293.309075199999,211,25,male,True,12932,12940,False,False,trough,inspiration
438,61.0,25,M,down,0.8554874000001291,0.8822486059432848,,experiment,emotion,1.0,,,,1295.242363899999,211,25,male,True,12952,12961,False,False,expiration,expiration
439,51.0,25,M,down,0.8505224999989878,0.5277897468788406,,experiment,emotion,1.0,,,,1296.8922843,211,25,male,True,12968,12977,False,False,inspiration,inspiration
440,61.0,25,M,down,0.9359603000011704,0.6454209704328837,,experiment,emotion,1.0,,,,1298.6588747000005,211,25,male,True,12986,12995,False,False,expiration,expiration
441,61.0,25,F,down,0.9209585999997216,0.8378836603857152,,experiment,emotion,1.0,,,,1300.7088486999999,211,25,male,True,13007,13016,False,False,inspiration,expiration
442,67.0,25,M,up,0.5964229000001069,0.8172429536865975,,experiment,emotion,1.0,,,,1302.725413799999,211,25,male,True,13027,13033,False,False,expiration,expiration
443,51.0,25,M,down,0.5651243000011164,0.980082701204288,,experiment,emotion,1.0,,,,1304.5586705000005,211,25,male,True,13045,13051,False,False,inspiration,peak
444,56.0,25,F,down,0.5995277000001806,0.9208405373317284,,experiment,emotion,1.0,,,,1306.3252598,211,25,male,True,13063,13069,False,False,expiration,expiration
445,67.0,25,M,up,1.004562399999486,0.3819333675661421,,experiment,emotion,1.0,,,,1307.5752357,211,25,male,True,13075,13085,False,False,expiration,expiration
446,56.0,25,F,down,0.4365092999996705,1.4513799994411445,,experiment,emotion,1.0,,,,1310.3082990000005,211,25,male,True,13103,13107,False,False,expiration,expiration
447,56.0,25,F,down,0.6080619999993361,0.7370792650527038,,experiment,emotion,1.0,,,,1311.7417681000004,211,25,male,True,13117,13123,False,False,expiration,expiration
448,61.0,25,M,up,1.0164466000005632,0.6195814742032566,,experiment,emotion,1.0,,,,1313.2583624000001,211,25,male,True,13132,13142,False,False,inspiration,peak
449,67.0,25,M,down,0.5148587999992742,0.7326431536308533,,experiment,emotion,1.0,,,,1315.274947599999,211,25,male,True,13152,13157,False,False,expiration,expiration
450,51.0,25,F,down,0.6046812999993563,0.7463387274578406,,experiment,emotion,1.0,,,,1316.8080838999995,211,25,male,True,13168,13174,False,False,expiration,trough
451,61.0,25,M,down,0.5523779000013747,1.8980237772972408,,experiment,emotion,1.0,,,,1319.5914463999998,211,25,male,True,13195,13201,False,False,expiration,expiration
452,51.0,25,F,down,0.6991983999996592,1.9022683394635136,,experiment,emotion,1.0,,,,1322.3247023999993,211,25,male,True,13223,13230,False,False,inspiration,inspiration
453,56.0,25,F,down,0.7048785000006319,0.8489749906061961,,experiment,emotion,1.0,,,,1324.157944999999,211,25,male,True,13241,13248,False,False,expiration,expiration
454,67.0,25,F,up,1.285614499998701,1.2562798859494528,,experiment,emotion,1.0,,,,1326.3912152999999,211,25,male,True,13263,13276,False,False,expiration,inspiration
455,61.0,25,M,down,0.6499550999997155,0.4173600101190499,,experiment,emotion,1.0,,,,1328.3578073999995,211,25,male,True,13283,13289,False,False,inspiration,expiration
456,51.0,25,M,down,0.6347939000006589,1.7062764409779916,,experiment,emotion,1.0,,,,1330.9910154999998,211,25,male,True,13309,13315,False,False,expiration,expiration
457,56.0,25,M,down,0.5078229000009742,0.3067075474698365,,experiment,emotion,1.0,,,,1332.190987,211,25,male,True,13321,13326,False,False,inspiration,inspiration
458,56.0,25,F,down,0.6338379999997414,0.9136359108466314,,experiment,emotion,1.0,,,,1333.8909277999992,211,25,male,True,13338,13344,False,False,expiration,expiration
459,67.0,25,F,down,0.6866978999987623,0.7435265883549678,,experiment,emotion,1.0,,,,1335.5242118999995,211,25,male,True,13355,13362,False,False,inspiration,inspiration
460,61.0,25,M,down,0.8130547000000661,1.9347212203118096,,experiment,emotion,1.0,,,,1338.4238987999995,211,25,male,True,13384,13392,False,False,expiration,inspiration
461,67.0,25,F,down,0.6634710999987874,0.9590957191906896,,experiment,emotion,1.0,,,,1340.4573484999999,211,25,male,True,13404,13411,False,False,inspiration,expiration
462,51.0,25,M,down,0.8014867000001686,0.35946074627675634,,experiment,emotion,1.0,,,,1341.7573178999992,211,25,male,True,13417,13425,False,False,expiration,expiration
463,56.0,25,M,down,0.7152829999995447,1.9682795684140904,,experiment,emotion,1.0,,,,1344.7905511999998,211,25,male,True,13447,13454,False,False,expiration,expiration
464,51.0,25,M,down,0.6443615999996837,1.9684406465078188,,experiment,emotion,1.0,,,,1347.7404342999996,211,25,male,True,13477,13483,False,False,inspiration,expiration
465,51.0,25,F,down,0.6464078999997582,0.3359973289778945,,experiment,emotion,1.0,,,,1348.9903947000005,211,25,male,True,13489,13495,False,False,expiration,expiration
466,67.0,25,F,down,0.6584935999999288,0.9270098058488964,,experiment,emotion,1.0,,,,1350.8403087000004,211,25,male,True,13508,13515,False,False,inspiration,inspiration
467,61.0,25,M,down,0.7305415999999241,0.6594552329310945,,experiment,emotion,1.0,,,,1352.4402566999995,211,25,male,True,13524,13531,False,False,expiration,expiration
468,56.0,25,F,down,0.6692959000010887,1.4343959539277826,,experiment,emotion,1.0,,,,1354.8735091,211,25,male,True,13548,13555,False,False,inspiration,expiration
469,61.0,25,F,up,1.5243759000004502,1.9211825173415131,,experiment,emotion,1.0,,,,1357.7234147999989,211,25,male,True,13577,13592,False,False,inspiration,expiration
470,67.0,25,M,down,0.6412974999984726,0.901218506083399,,experiment,emotion,1.0,,,,1360.4065045999996,211,25,male,True,13604,13610,False,False,expiration,expiration
471,56.0,25,M,down,0.7165574999999079,0.9104861442985536,,experiment,emotion,1.0,,,,1362.2232461000006,211,25,male,True,13622,13629,False,False,inspiration,expiration
472,67.0,25,F,up,0.8530157000004692,1.4166369981614382,,experiment,emotion,1.0,,,,1364.6397912999998,211,25,male,True,13646,13655,False,False,expiration,trough
473,61.0,25,M,down,0.6951356999998097,1.6865997688116523,,experiment,emotion,1.0,,,,1367.4396983000004,211,25,male,True,13674,13681,False,False,expiration,expiration
474,51.0,25,F,down,0.6701578000011068,1.2273580535408988,,experiment,emotion,1.0,,,,1369.639586899999,211,25,male,True,13696,13703,False,False,inspiration,inspiration
475,61.0,25,F,down,0.6982513000002655,0.8549789324857853,,experiment,emotion,1.0,,,,1371.4395516000004,211,25,male,True,13714,13721,False,False,expiration,expiration
476,56.0,25,F,down,0.696858200000861,0.69791006210654,,experiment,emotion,1.0,,,,1373.1059377,211,25,male,True,13731,13738,False,False,inspiration,inspiration
477,67.0,25,M,down,0.7369106000005559,1.8326456712457608,,experiment,emotion,1.0,,,,1375.9059636000004,211,25,male,True,13759,13766,False,False,expiration,inspiration
478,51.0,25,M,down,0.8571984999998676,1.8543462499760708,,experiment,emotion,1.0,,,,1378.7726060999994,211,25,male,True,13787,13796,False,False,expiration,expiration
479,61.0,25,F,up,1.2632450999990397,0.5402526113701172,,experiment,emotion,1.0,,,,1380.4225573000006,211,25,male,True,13804,13817,False,False,expiration,inspiration
480,61.0,25,F,down,0.6566903000002641,0.8752847240523359,,experiment,emotion,1.0,,,,1382.8391118,211,25,male,True,13828,13835,False,False,expiration,expiration
481,51.0,25,M,down,0.7880771000000095,0.7456735945050225,,experiment,emotion,1.0,,,,1384.5057541000006,211,25,male,True,13845,13853,False,False,inspiration,inspiration
482,67.0,25,M,down,0.7497827000006508,0.7764646379859788,,experiment,emotion,1.0,,,,1386.3390141999992,211,25,male,True,13863,13870,False,False,expiration,expiration
483,67.0,25,M,up,0.8718460000000051,0.7897987962805055,,experiment,emotion,1.0,,,,1388.1389529999994,211,25,male,True,13881,13890,False,False,expiration,expiration
484,56.0,25,M,down,0.7336198000011791,0.9292482486211052,,experiment,emotion,1.0,,,,1390.2221912000007,211,25,male,True,13902,13909,False,False,inspiration,expiration
485,56.0,25,M,down,0.7763416999987385,1.7262421132120631,,experiment,emotion,1.0,,,,1392.955419599999,211,25,male,True,13929,13937,False,False,expiration,inspiration
486,51.0,25,F,down,1.41047350000008,0.410826789438392,,experiment,emotion,1.0,,,,1394.4053572999999,211,25,male,True,13944,13958,False,False,inspiration,expiration
487,56.0,25,F,down,0.7748181000006298,0.4410307312574472,,experiment,emotion,1.0,,,,1396.521978499999,211,25,male,True,13965,13973,False,False,expiration,inspiration
488,67.0,25,M,down,0.7085432999992918,0.38915946088372105,,experiment,emotion,1.0,,,,1397.9552566999994,211,25,male,True,13979,13986,False,False,inspiration,expiration
489,61.0,25,F,down,0.6539859000004071,1.6934958211755513,,experiment,emotion,1.0,,,,1400.6551328999994,211,25,male,True,14006,14013,False,False,inspiration,inspiration
490,51.0,25,F,down,0.6559450000004289,1.67473908385167,,experiment,emotion,1.0,,,,1403.2550434999994,211,25,male,True,14032,14039,False,False,expiration,expiration
491,51.0,25,F,down,0.7682979999990494,0.7318564308074702,,experiment,emotion,1.0,,,,1404.921504599999,211,25,male,True,14049,14057,False,False,inspiration,inspiration
492,61.0,25,M,down,1.0065046999989136,0.9513903047285388,,experiment,emotion,1.0,,,,1406.9212924999995,211,25,male,True,14069,14079,False,False,expiration,expiration
493,56.0,25,F,down,0.7456025999999838,0.5181031530566356,,experiment,emotion,1.0,,,,1408.7381908000007,211,25,male,True,14087,14094,False,False,inspiration,peak
494,67.0,25,F,up,0.6957258000002184,1.3103720990387375,,experiment,emotion,1.0,,,,1411.0881004000007,211,25,male,True,14110,14117,False,False,expiration,expiration
495,51.0,25,F,down,0.5105321999999433,1.01571213543537,,experiment,emotion,1.0,,,,1413.0713219999998,211,25,male,True,14130,14135,False,False,inspiration,expiration
496,56.0,25,M,down,0.6638555999998061,1.027076401750231,,experiment,emotion,1.0,,,,1414.8879393000007,211,25,male,True,14149,14156,False,False,expiration,expiration
497,51.0,25,M,down,0.7324102000002313,1.6769101987722068,,experiment,emotion,1.0,,,,1417.5044380999989,211,25,male,True,14175,14182,False,False,inspiration,expiration
498,61.0,25,F,down,0.7997376000002987,1.8495824271603891,,experiment,emotion,1.0,,,,1420.371062099999,211,25,male,True,14203,14211,False,False,expiration,inspiration
499,67.0,25,M,down,0.7731926000014937,1.8363557866353224,,experiment,emotion,1.0,,,,1423.2876096999992,211,25,male,True,14232,14240,False,False,expiration,expiration
500,56.0,25,F,down,0.7108662999999069,0.40173055724624906,,experiment,emotion,1.0,,,,1424.7209328999998,211,25,male,True,14247,14254,False,False,expiration,expiration
501,67.0,25,M,,,0.4009585851897579,,experiment,emotion,1.0,,,,1426.1041043999994,211,25,male,True,14261,0,False,False,inspiration,0
502,61.0,25,M,down,1.1759446000014575,0.8238748996900827,,experiment,emotion,1.0,,,,1429.6038960000005,211,25,male,True,14296,14308,False,False,trough,inspiration
503,0.07714516178834692,25,up,up,0.765680099999372,1.0088123054667368,,experiment,cRDM,2.0,,,,1436.0871390999998,211,25,male,True,14360,14368,False,False,expiration,expiration
504,0.07714516178834692,25,up,up,0.548734299998614,1.4286555627714326,,experiment,cRDM,2.0,,,,1438.5370605999994,211,25,male,True,14385,14390,False,False,inspiration,expiration
505,0.07714516178834692,25,down,up,0.6404954999998154,1.8205094193005773,,experiment,cRDM,2.0,,,,1441.1703032000007,211,25,male,True,14411,14417,False,False,expiration,trough
506,0.07714516178834692,25,down,down,0.6314132999996218,1.1343068516051222,,experiment,cRDM,2.0,,,,1443.203442599999,211,25,male,True,14432,14438,False,False,expiration,expiration
507,0.07714516178834692,25,up,up,0.8894337999990967,1.860683355510592,,experiment,cRDM,2.0,,,,1445.9534521999994,211,25,male,True,14459,14468,False,False,expiration,inspiration
508,0.07714516178834692,25,down,down,0.5530827999991743,0.494317061714204,,experiment,cRDM,2.0,,,,1447.586720199999,211,25,male,True,14475,14481,False,False,inspiration,expiration
509,0.07714516178834692,25,up,up,0.6137904000006529,1.7034555498289137,,experiment,cRDM,2.0,,,,1450.1200026999993,211,25,male,True,14501,14507,False,False,inspiration,inspiration
510,0.07714516178834692,25,up,up,0.6952125000007072,0.4220693166128852,,experiment,cRDM,2.0,,,,1451.436588999999,211,25,male,True,14514,14521,False,False,expiration,expiration
511,0.07714516178834692,25,down,up,0.8503172000000632,1.6922457376256077,,experiment,cRDM,2.0,,,,1454.0864827999994,211,25,male,True,14540,14549,False,False,expiration,inspiration
512,0.07714516178834692,25,down,down,0.8414170000014565,1.9485792644806683,,experiment,cRDM,2.0,,,,1457.1363894000006,211,25,male,True,14571,14579,False,False,expiration,expiration
513,0.07714516178834692,25,down,down,1.1277995000000374,0.8223979616429129,,experiment,cRDM,2.0,,,,1459.0529803999998,211,25,male,True,14590,14601,False,False,inspiration,expiration
514,0.07714516178834692,25,down,up,0.6098966999998083,0.4640762809029563,,experiment,cRDM,2.0,,,,1460.9029007999998,211,25,male,True,14609,14615,False,False,expiration,expiration
515,0.07714516178834692,25,down,down,0.7046334000006027,1.1548990872555254,,experiment,cRDM,2.0,,,,1462.9361920999997,211,25,male,True,14629,14636,False,False,inspiration,expiration
516,0.07714516178834692,25,down,up,0.5976872999999614,0.8271080329591951,,experiment,cRDM,2.0,,,,1464.7361175999995,211,25,male,True,14647,14653,False,False,expiration,expiration
517,0.07714516178834692,25,up,up,0.7163978999997198,1.0210619771905003,,experiment,cRDM,2.0,,,,1466.6194034999992,211,25,male,True,14666,14673,False,False,inspiration,expiration
518,0.07714516178834692,25,up,up,0.6467876999995497,0.6356490288252834,,experiment,cRDM,2.0,,,,1468.2360169999995,211,25,male,True,14682,14688,False,False,expiration,expiration
519,0.07714516178834692,25,up,up,0.7068333999995957,0.9942937970667258,,experiment,cRDM,2.0,,,,1470.1359429999993,211,25,male,True,14701,14708,False,False,inspiration,peak
520,0.07714516178834692,25,up,up,0.7129780000013852,1.4667886684928544,,experiment,cRDM,2.0,,,,1472.585821999999,211,25,male,True,14725,14732,False,False,expiration,inspiration
521,0.07714516178834692,25,down,down,0.8264165000000503,1.5045193170101963,,experiment,cRDM,2.0,,,,1475.0523823999995,211,25,male,True,14750,14758,False,False,expiration,expiration
522,0.07714516178834692,25,up,up,0.7538963000006333,1.9331699895294758,,experiment,cRDM,2.0,,,,1478.0689175999994,211,25,male,True,14780,14788,False,False,inspiration,expiration
523,0.07714516178834692,25,up,up,0.6458808000006684,0.5798012851910813,,experiment,cRDM,2.0,,,,1479.6689401000006,211,25,male,True,14796,14802,False,False,expiration,expiration
524,0.07714516178834692,25,down,down,0.8193013000000064,1.0585245240296353,,experiment,cRDM,2.0,,,,1481.6354912000006,211,25,male,True,14816,14824,False,False,inspiration,expiration
525,0.07714516178834692,25,up,up,0.5450581999994029,0.5395871704451113,,experiment,cRDM,2.0,,,,1483.2687652999994,211,25,male,True,14832,14837,False,False,expiration,expiration
526,0.07714516178834692,25,down,down,0.6095437999993011,1.5144989739150347,,experiment,cRDM,2.0,,,,1485.5853134999998,211,25,male,True,14855,14861,False,False,inspiration,expiration
527,0.07714516178834692,25,down,up,0.4989179000003787,1.6353098527703702,,experiment,cRDM,2.0,,,,1488.1018597000002,211,25,male,True,14881,14886,False,False,expiration,trough
528,0.07714516178834692,25,up,down,0.6713235000006534,1.9620139908712435,,experiment,cRDM,2.0,,,,1490.8184956000007,211,25,male,True,14908,14915,False,False,expiration,expiration
529,0.07714516178834692,25,up,down,0.8550618000008399,1.5953789664139881,,experiment,cRDM,2.0,,,,1493.3517307000004,211,25,male,True,14933,14942,False,False,inspiration,expiration
530,0.07714516178834692,25,down,down,0.6704521999999997,0.7031052728224211,,experiment,cRDM,2.0,,,,1495.1683259,211,25,male,True,14951,14958,False,False,expiration,expiration
531,0.07714516178834692,25,up,up,0.5973906999988685,1.7038367225707711,,experiment,cRDM,2.0,,,,1497.8014096000006,211,25,male,True,14978,14984,False,False,expiration,expiration
532,0.07714516178834692,25,down,down,0.656570200000715,0.8483796406548205,,experiment,cRDM,2.0,,,,1499.5182181,211,25,male,True,14995,15002,False,False,inspiration,inspiration
533,0.07714516178834692,25,down,up,0.5427349999990838,1.236249457533752,,experiment,cRDM,2.0,,,,1501.6680529999994,211,25,male,True,15016,15021,False,False,expiration,expiration
534,0.07714516178834692,25,down,down,0.6914678000011918,1.1817683391606169,,experiment,cRDM,2.0,,,,1503.6513360999998,211,25,male,True,15036,15043,False,False,expiration,inspiration
535,0.07714516178834692,25,up,up,0.5947760999988532,0.7170743983683823,,experiment,cRDM,2.0,,,,1505.3179691000007,211,25,male,True,15053,15059,False,False,expiration,expiration
536,0.07714516178834692,25,up,up,0.6056088999994245,0.4699397936835712,,experiment,cRDM,2.0,,,,1506.6512249999994,211,25,male,True,15066,15072,False,False,expiration,expiration
537,0.07714516178834692,25,up,up,0.5413527999990038,1.856808426179832,,experiment,cRDM,2.0,,,,1509.3844460999992,211,25,male,True,15093,15098,False,False,expiration,expiration
538,0.07714516178834692,25,down,down,0.6628952999999456,1.7026912124696398,,experiment,cRDM,2.0,,,,1511.9009038000006,211,25,male,True,15119,15126,False,False,inspiration,peak
539,0.07714516178834692,25,down,down,0.8712536000002729,1.4329760125701363,,experiment,cRDM,2.0,,,,1514.2676059999994,211,25,male,True,15142,15151,False,False,expiration,inspiration
540,0.07714516178834692,25,up,up,0.6236349000009795,1.2444724027293963,,experiment,cRDM,2.0,,,,1516.6341823999994,211,25,male,True,15166,15172,False,False,expiration,expiration
541,0.07714516178834692,25,down,down,1.0229988999999478,1.0811414178883845,,experiment,cRDM,2.0,,,,1518.6007826000007,211,25,male,True,15186,15196,False,False,expiration,inspiration
