,stimLvl,stimTime,rand,response,rt,precedingITI,trialNumber,trialType,stimuli,block,estIntens,estThres,estSlope,trialStart,subject,age,gender,headRest,onset,responsI,manBadOnset,manBadRespons,onset_phase,respons_phase
0,150.0,100,F,,,1.384182615027864,,introTrial,emotion,,,,,144.95004550000886,219,22,female,True,1448,0,False,False,expiration,0
1,0.9,100,down,,,0.3092260794449997,,introTrial,cRDM,,,,,149.1831588000059,219,22,female,True,1491,0,False,False,expiration,0
2,0.9,25,down,down,1.0179468999849632,1.2946903689525358,,tutorial,cRDM,,,,,188.5150620000204,219,22,female,True,1884,1894,False,False,inspiration,expiration
3,0.9,25,down,down,0.7716647000052035,1.2828872103117441,,tutorial,cRDM,,,,,191.09834480000427,219,22,female,True,1910,1918,False,False,expiration,inspiration
4,0.9,25,down,down,0.6734083000046667,0.6206728641287842,,tutorial,cRDM,,,,,192.78156490001132,219,22,female,True,1927,1934,False,False,expiration,expiration
5,0.9,25,up,up,0.474115899996832,1.3843848771479232,,tutorial,cRDM,,,,,195.11483020000745,219,22,female,True,1950,1955,False,False,inspiration,expiration
6,0.9,25,up,up,0.437319499993464,1.4063851863715378,,tutorial,cRDM,,,,,197.26471570000285,219,22,female,True,1971,1975,False,False,inspiration,inspiration
7,0.9,25,down,down,0.4772411000158172,0.3522695384485607,,tutorial,cRDM,,,,,198.31472940000825,219,22,female,True,1982,1987,False,False,expiration,expiration
8,0.9,25,down,down,0.5916584000224248,0.5245092839885742,,tutorial,cRDM,,,,,199.5813469999994,219,22,female,True,1995,2001,False,False,inspiration,inspiration
9,0.9,25,up,up,0.4784033999894746,0.5242468520066523,,tutorial,cRDM,,,,,200.96458110000825,219,22,female,True,2009,2014,False,False,expiration,expiration
10,0.9,25,up,up,0.4691828000068199,1.4426539574451211,,tutorial,cRDM,,,,,203.14785430001209,219,22,female,True,2030,2035,False,False,expiration,expiration
11,0.9,25,up,up,0.5896128000167664,0.5641676767118595,,tutorial,cRDM,,,,,204.46445450000462,219,22,female,True,2044,2050,False,False,inspiration,inspiration
12,200.0,25,M,up,0.4001649999991059,0.4679807160217938,,tutorial,emotion,,,,,212.23091240000213,219,22,female,True,2121,2125,False,False,inspiration,inspiration
13,200.0,25,M,up,0.3501960000139661,0.8297489647588531,,tutorial,emotion,,,,,213.76416640001116,219,22,female,True,2136,2140,False,False,expiration,expiration
14,200.0,25,F,up,0.3501172999967821,0.5847399078116973,,tutorial,emotion,,,,,215.04746890001113,219,22,female,True,2149,2153,False,False,inspiration,inspiration
15,0.0,25,F,down,0.3834728999936488,1.2381906859140377,,tutorial,emotion,,,,,216.9974409000133,219,22,female,True,2169,2173,False,False,expiration,inspiration
16,0.0,25,M,down,0.4002360999875236,1.16556270742713,,tutorial,emotion,,,,,218.86390799999938,219,22,female,True,2188,2192,False,False,expiration,expiration
17,200.0,25,F,up,0.44350150000536814,1.8727946881647488,,tutorial,emotion,,,,,221.43052100000202,219,22,female,True,2213,2217,False,False,inspiration,peak
18,0.0,25,M,down,0.4530575999815482,1.4213122035419976,,tutorial,emotion,,,,,223.56387910002377,219,22,female,True,2235,2240,False,False,expiration,inspiration
19,200.0,25,M,up,0.3502384000166785,1.8818283392978483,,tutorial,emotion,,,,,226.18036820000268,219,22,female,True,2261,2265,False,False,expiration,expiration
20,0.0,25,F,down,0.4743305000010878,0.8855218892845109,,tutorial,emotion,,,,,227.76365700000318,219,22,female,True,2276,2281,False,False,expiration,inspiration
21,0.0,25,F,down,0.4807522000046447,0.9086308891016572,,tutorial,emotion,,,,,229.4302914,219,22,female,True,2293,2298,False,False,expiration,expiration
22,0.29,25,up,up,0.3504694000002928,1.0885060490936869,,psi_staircase_training,cRDM,,0.25,0.25693124029946324,0.10500000000000002,242.81306890002446,219,22,female,True,2427,2431,False,False,inspiration,inspiration
23,0.25,25,up,up,0.3839861000014935,0.6587973859948161,,psi_staircase_training,cRDM,,0.21910266653183127,0.2260132002683493,0.10468632033873933,244.16297910001597,219,22,female,True,2440,2444,False,False,expiration,expiration
24,0.21,25,down,down,0.317226400016807,1.7145139650572068,,psi_staircase_training,cRDM,,0.1900540959403307,0.19684979615540016,0.10294672984249993,246.579570300004,219,22,female,True,2465,2468,False,False,expiration,expiration
25,0.18,25,down,down,0.4731497999746352,1.1824784439577487,,psi_staircase_training,cRDM,,0.1635257589279754,0.1701521334256793,0.100381647756865,248.46283660002518,219,22,female,True,2483,2488,False,False,inspiration,inspiration
26,0.15,25,up,up,0.3672251999960281,0.9601533253874766,,psi_staircase_training,cRDM,,0.14018955742449365,0.14660133511875031,0.0971307628663642,250.16279640002173,219,22,female,True,2500,2504,False,False,expiration,trough
27,0.13,25,down,down,0.3506197000097018,0.7506096258878822,,psi_staircase_training,cRDM,,0.11987606021454796,0.12605547676183335,0.09361076941961036,251.61274430001504,219,22,female,True,2515,2519,False,False,expiration,expiration
28,0.11,25,up,up,0.26715089997742325,1.0824372022389142,,psi_staircase_training,cRDM,,0.10257735236965487,0.10849103445698656,0.08958521019937955,253.3960053000192,219,22,female,True,2533,2536,False,False,inspiration,inspiration
29,0.09,25,down,down,0.3004706000210717,0.3292737166076194,,psi_staircase_training,cRDM,,0.08784432595859408,0.09348182153209693,0.08540131486476357,254.41263250002518,219,22,female,True,2543,2546,False,False,expiration,expiration
30,0.08,25,down,down,0.3671156000054907,1.5691490423765777,,psi_staircase_training,cRDM,,0.07518520921180863,0.0805556301471181,0.08135545354720439,256.6958942000056,219,22,female,True,2566,2570,False,False,inspiration,expiration
31,0.06,25,up,down,0.3004646000044886,0.8612772895514547,,psi_staircase_training,cRDM,,0.06447903911685147,0.06954222446062751,0.0767012018235253,258.26247770001646,219,22,female,True,2581,2584,False,False,expiration,inspiration
32,0.11,25,down,up,0.35049970002728514,1.7324227427932175,,psi_staircase_training,cRDM,,0.0948602595780939,0.10071627432598904,0.08871161898348927,260.67905630002497,219,22,female,True,2606,2610,False,False,expiration,inspiration
33,0.17,25,down,up,0.4283169000118505,1.7259961486386817,,psi_staircase_training,cRDM,,0.13766066685306916,0.1451601945720273,0.11360887467017745,263.0956685000274,219,22,female,True,2630,2634,False,False,expiration,inspiration
34,0.26,25,down,down,0.4674255000136327,1.4388671474239605,,psi_staircase_training,cRDM,,0.19544349897337987,0.20402290524020644,0.12996774301513497,265.24555530000356,219,22,female,True,2651,2656,False,False,expiration,inspiration
35,0.23,25,up,down,0.3504920999985188,1.6178259040470395,,psi_staircase_training,cRDM,,0.17842156349572896,0.18688512725079898,0.1282128675225943,267.61216160000185,219,22,female,True,2675,2679,False,False,trough,inspiration
36,0.31,25,up,down,0.5582285000127739,0.678824236394016,,psi_staircase_training,cRDM,,0.2424320092716612,0.25147989301884,0.13706461649112678,268.978783700004,219,22,female,True,2689,2695,False,False,expiration,expiration
37,0.38,25,down,down,0.5372834999870975,0.659716403232967,,psi_staircase_training,cRDM,,0.3174364137315509,0.3265771031132897,0.13847051084881573,270.47873900001287,219,22,female,True,2704,2709,False,False,inspiration,inspiration
38,0.36,25,down,up,0.4533206000050996,0.7218710845599312,,psi_staircase_training,cRDM,,0.30010891143081514,0.3094472066360264,0.14146400271580678,272.0286809000245,219,22,female,True,2719,2724,False,False,expiration,trough
39,0.41,25,up,up,0.5267345999891404,1.184471657747415,,psi_staircase_training,cRDM,,0.3629745979570161,0.3717739413379058,0.1332995272238607,273.94524310002447,219,22,female,True,2738,2743,False,False,expiration,expiration
40,0.41,25,up,up,0.4295024999883026,1.876756946063148,,psi_staircase_training,cRDM,,0.3495160985327037,0.3585114153140391,0.13626828983455674,276.62847690001945,219,22,female,True,2765,2769,False,False,expiration,expiration
41,0.4,25,up,down,0.3838150999799837,0.4927447140724485,,psi_staircase_training,cRDM,,0.33747969136397,0.34653456343889305,0.1371704812976326,277.81178090002504,219,22,female,True,2777,2781,False,False,trough,inspiration
42,0.44,25,up,up,0.4869521000073291,1.0833323000591846,,psi_staircase_training,cRDM,,0.3848573952043959,0.3938699680770228,0.13652969897741188,279.59504559999914,219,22,female,True,2795,2800,False,False,expiration,inspiration
43,0.43,25,down,down,0.4416915999900084,1.0160034564302185,,psi_staircase_training,cRDM,,0.3754777104681977,0.38456948154985937,0.1377294571143919,281.37831130000995,219,22,female,True,2813,2817,False,False,expiration,expiration
44,0.43,25,down,up,0.3838612999825273,0.3095988300670776,,psi_staircase_training,cRDM,,0.36633994587786495,0.3754618459317986,0.13818587500669952,282.39493470001617,219,22,female,True,2823,2827,False,False,expiration,inspiration
45,0.45,25,down,up,0.652828899997985,1.8343979718255552,,psi_staircase_training,cRDM,,0.4022367180264565,0.4116216467205896,0.1421704442941175,284.92816790001234,219,22,female,True,2848,2855,False,False,expiration,inspiration
46,0.46,25,up,up,1.0018673999875318,1.019304698718359,,psi_staircase_training,cRDM,,0.4300962967539345,0.43906865817886426,0.1359205436421792,286.87814030001755,219,22,female,True,2868,2878,False,False,expiration,inspiration
47,0.44,25,up,up,0.5130135999934282,1.5839102909126903,,psi_staircase_training,cRDM,,0.4233369782139996,0.4326309043854709,0.14079186492496282,289.7279909000208,219,22,female,True,2896,2901,False,False,inspiration,inspiration
48,0.43,25,down,down,0.4002593000186607,1.3413267379819036,,psi_staircase_training,cRDM,,0.4157204793142805,0.4254313712238617,0.1471083971197749,291.86124050000217,219,22,female,True,2917,2921,False,False,expiration,inspiration
49,0.43,25,down,up,0.5148178000235929,1.9084249606755888,,psi_staircase_training,cRDM,,0.40788095000620506,0.4179555808751655,0.15261860728198448,294.46113940002397,219,22,female,True,2943,2948,False,False,inspiration,inspiration
50,0.47,25,up,up,0.5615695999877062,1.172895718753888,,psi_staircase_training,cRDM,,0.4303764866608475,0.4396691757319464,0.14077312433402975,296.44442100002203,219,22,female,True,2963,2969,False,False,expiration,trough
51,0.48,25,up,down,0.603942099987762,0.36848929468278935,,psi_staircase_training,cRDM,,0.42564034361342135,0.4349917098686641,0.14166201348934918,297.6610116000229,219,22,female,True,2975,2981,False,False,inspiration,expiration
52,100.0,25,M,up,0.5728458000230603,1.1948019026110197,,psi_staircase_training,emotion,,100.0,100.0,25.00050000000001,304.5441889000067,219,22,female,True,3044,3050,False,False,expiration,inspiration
53,55.0,25,M,down,0.549179900001036,0.4316405790128493,,psi_staircase_training,emotion,,54.742809467541896,54.742809467541896,25.00050000000011,305.87781260002515,219,22,female,True,3058,3063,False,False,peak,expiration
54,79.0,25,F,down,0.4589893999800552,1.8257757299323825,,psi_staircase_training,emotion,,79.636070985635,79.636070985635,25.71326925488641,308.5940434000222,219,22,female,True,3085,3090,False,False,inspiration,expiration
55,103.0,25,F,down,0.6843518000096083,1.7780301309216222,,psi_staircase_training,emotion,,97.61123893914808,97.61123893914808,26.1463337262867,311.17760640001507,219,22,female,True,3111,3118,False,False,inspiration,expiration
56,127.0,25,M,down,0.4001969000091776,1.8200433456053156,,psi_staircase_training,emotion,,117.15641007867752,117.15641007867752,31.432291447829705,314.0438259000075,219,22,female,True,3139,3143,False,False,inspiration,peak
57,148.0,25,F,up,0.4569349999947008,0.7912657348955299,,psi_staircase_training,emotion,,137.43317204546622,137.43317204546622,34.340881921268554,315.57705760002136,219,22,female,True,3155,3160,False,False,expiration,trough
58,132.0,25,M,up,0.400252100022044,1.2380977192459408,,psi_staircase_training,emotion,,125.26880931386356,125.26880931386356,34.38193433170599,317.62700710000354,219,22,female,True,3175,3179,False,False,expiration,expiration
59,122.0,25,F,up,0.4001688999996986,0.9801767913738436,,psi_staircase_training,emotion,,116.61367826218077,116.61367826218077,33.75872751210514,319.3602960999997,219,22,female,True,3192,3196,False,False,inspiration,inspiration
60,96.0,25,F,up,0.3835173999832477,1.1480305301078728,,psi_staircase_training,emotion,,109.76167858007268,109.76167858007268,33.329509437450305,321.2768623000011,219,22,female,True,3212,3216,False,False,inspiration,inspiration
61,85.0,25,M,down,0.8227840999898035,0.3778575017759704,,psi_staircase_training,emotion,,100.93436968613935,100.93436968613935,35.19521261871789,322.410208300018,219,22,female,True,3223,3231,False,False,expiration,expiration
62,118.0,25,F,down,0.7268935999891255,1.3773869138901966,,psi_staircase_training,emotion,,105.10248032529483,105.10248032529483,34.2502299536376,324.9600773000275,219,22,female,True,3248,3255,False,False,inspiration,expiration
63,132.0,25,F,up,0.6036077000026125,1.4786406749035037,,psi_staircase_training,emotion,,111.93950801092842,111.93950801092842,35.66571406620281,327.4933506000088,219,22,female,True,3274,3280,False,False,inspiration,expiration
64,88.0,25,F,up,0.2168416999920737,1.0399655794707643,,psi_staircase_training,emotion,,108.98082625049969,108.98082625049969,34.81193187427806,329.4932754000183,219,22,female,True,3294,3296,False,False,inspiration,inspiration
65,81.0,25,M,down,0.6057724000129383,0.8886607220521774,,psi_staircase_training,emotion,,102.40636463171154,102.40636463171154,37.05015996299728,331.1431941000046,219,22,female,True,3310,3316,False,False,expiration,expiration
66,82.0,25,M,down,0.4001777000084985,1.7925170026797497,,psi_staircase_training,emotion,,104.95964306833972,104.95964306833972,36.315065395797866,333.89310590000235,219,22,female,True,3338,3342,False,False,expiration,expiration
67,131.0,25,F,down,0.4001709999865852,1.8381087582715987,,psi_staircase_training,emotion,,107.11702950497241,107.11702950497241,35.61902133960004,336.49302300001733,219,22,female,True,3364,3368,False,False,expiration,expiration
68,136.0,25,F,down,0.5423619000066537,1.1562399638977792,,psi_staircase_training,emotion,,112.8321984203787,112.8321984203787,37.949533781571105,338.4096033000096,219,22,female,True,3383,3388,False,False,inspiration,peak
69,140.0,25,M,up,0.4304952999809757,1.590913003276478,,psi_staircase_training,emotion,,118.26768827640915,118.26768827640915,39.67111698897202,340.90953570001875,219,22,female,True,3408,3412,False,False,inspiration,inspiration
70,139.0,25,M,up,0.40028490000986494,1.9272599529751069,,psi_staircase_training,emotion,,116.08624790306021,116.08624790306021,39.119355201123646,343.59275000001065,219,22,female,True,3435,3439,False,False,inspiration,inspiration
71,138.0,25,M,up,0.3668015000002925,1.4102379466779316,,psi_staircase_training,emotion,,114.16361392468315,114.16361392468315,38.586168250377405,345.776027200016,219,22,female,True,3457,3461,False,False,expiration,inspiration
72,87.0,25,M,down,0.5070146999787539,0.6988459906622217,,psi_staircase_training,emotion,,112.44866142149743,112.44866142149743,38.07128486890965,347.2259510000004,219,22,female,True,3471,3476,False,False,expiration,expiration
73,141.0,25,F,up,0.4544904000067618,1.5701269059413865,,psi_staircase_training,emotion,,113.9937809564463,113.9937809564463,37.51926242682842,349.6595353000157,219,22,female,True,3496,3501,False,False,peak,expiration
74,85.0,25,F,down,0.5388177999993786,0.6384763867409518,,psi_staircase_training,emotion,,112.61348961273504,112.61348961273504,36.94759648734411,351.10914120002417,219,22,female,True,3510,3515,False,False,expiration,inspiration
75,143.0,25,F,up,0.4369738000095822,0.5603198655892132,,psi_staircase_training,emotion,,113.89504108103857,113.89504108103857,36.34536141129804,352.5590124000155,219,22,female,True,3525,3529,False,False,inspiration,inspiration
76,84.0,25,M,down,0.4892858999955934,0.3246859692583916,,psi_staircase_training,emotion,,112.75441587153006,112.75441587153006,35.732668494321366,353.6757057000068,219,22,female,True,3536,3541,False,False,expiration,expiration
77,144.0,25,M,up,0.4650189000240061,0.6945701713859777,,psi_staircase_training,emotion,,113.84809061319963,113.84809061319963,35.09242085538852,355.2089966000058,219,22,female,True,3551,3556,False,False,inspiration,peak
78,83.0,25,F,down,0.5000892000098247,1.5794773579872523,,psi_staircase_training,emotion,,112.8783447123447,112.8783447123447,34.45114108119949,357.60890200000716,219,22,female,True,3575,3580,False,False,inspiration,inspiration
79,144.0,25,F,up,0.5401388999889605,0.7334483252210817,,psi_staircase_training,emotion,,113.81085549520884,113.81085549520884,33.787350742630764,359.17584890002036,219,22,female,True,3591,3596,False,False,expiration,expiration
80,83.0,25,M,down,0.5332175999938045,1.1181884319435305,,psi_staircase_training,emotion,,112.96052287972306,112.96052287972306,33.12783090793831,361.1587454000255,219,22,female,True,3610,3615,False,False,inspiration,inspiration
81,144.0,25,M,down,0.6079454999999143,0.7314144242003253,,psi_staircase_training,emotion,,113.78189715067042,113.78189715067042,32.45068809184448,362.7420382000273,219,22,female,True,3626,3632,False,False,inspiration,expiration
82,0.29,25,up,up,0.3667019999993499,0.9913147881384974,,psi_staircase,cRDM,,0.25,0.25693124029946324,0.10500000000000002,404.5742057000171,219,22,female,True,4045,4049,False,False,inspiration,expiration
83,0.25,25,up,down,0.4609400000190362,0.7985510968957926,,psi_staircase,cRDM,,0.21910266653183127,0.2260132002683493,0.10468632033873933,406.05704650000547,219,22,female,True,4060,4065,False,False,expiration,expiration
84,0.36,25,down,down,0.481997599999886,0.8146586585848716,,psi_staircase,cRDM,,0.3202997408361979,0.3276103223604739,0.1107465658214764,407.60699870000826,219,22,female,True,4075,4080,False,False,inspiration,inspiration
85,0.33,25,down,up,0.5363108000019565,0.5204197178758562,,psi_staircase,cRDM,,0.2990372097977385,0.30641398280716875,0.1117492876491608,408.87362330002367,219,22,female,True,4088,4093,False,False,expiration,expiration
86,0.4,25,up,up,0.4677819999924395,0.8158605508444645,,psi_staircase,cRDM,,0.3699276726653445,0.3772964946370089,0.11162883893733662,410.4902104000212,219,22,female,True,4104,4109,False,False,inspiration,inspiration
87,0.39,25,down,down,0.5315049999917392,1.5562931949862469,,psi_staircase,cRDM,,0.35536704640590017,0.3628259524843164,0.11299350540398292,412.77351340002497,219,22,female,True,4127,4132,False,False,inspiration,inspiration
88,0.38,25,up,up,0.3505032999964897,1.0822513283452375,,psi_staircase,cRDM,,0.34153019127238304,0.3489728411533976,0.11274724345757313,414.6567095000064,219,22,female,True,4146,4150,False,False,expiration,expiration
89,0.38,25,down,up,0.6146402999875136,0.472457773280504,,psi_staircase,cRDM,,0.32855475853161625,0.33591242355917594,0.11145982457910088,415.8233436000009,219,22,female,True,4157,4163,False,False,inspiration,inspiration
90,0.42,25,down,down,0.4750675999966916,0.5532114138676465,,psi_staircase,cRDM,,0.37912794528244187,0.38729703921708014,0.12375200196181944,417.23995210000436,219,22,female,True,4171,4176,False,False,expiration,expiration
91,0.42,25,up,up,0.36713860000600107,0.9762209482911576,,psi_staircase,cRDM,,0.3688099038625379,0.37697500144118296,0.12369146194860915,418.9399116999994,219,22,female,True,4188,4192,False,False,inspiration,inspiration
92,0.41,25,down,down,0.3671745000174269,1.3615284939905823,,psi_staircase,cRDM,,0.35958907898084513,0.3676436871779729,0.1220176799762534,420.9731609000009,219,22,female,True,4209,4213,False,False,inspiration,inspiration
93,0.37,25,down,down,0.8685136999993119,0.443243347294304,,psi_staircase,cRDM,,0.35085145188559586,0.3587576347199964,0.11976921326423197,422.1064570000162,219,22,female,True,4220,4229,False,False,inspiration,expiration
94,0.36,25,down,down,0.5322453000117093,0.7952489413472524,,psi_staircase,cRDM,,0.338789817294026,0.3470006967078061,0.12438500199072346,424.03969020000665,219,22,female,True,4239,4244,False,False,trough,inspiration
95,0.36,25,up,up,0.40025259999674745,0.8886960851665553,,psi_staircase,cRDM,,0.3263095558118745,0.3348091720088205,0.12875901889427332,425.7396472000109,219,22,female,True,4256,4260,False,False,expiration,expiration
96,0.36,25,up,down,0.4814608000160661,1.2190506449823804,,psi_staircase,cRDM,,0.314403526986666,0.3230698386524301,0.1312842558604846,427.6395468000264,219,22,female,True,4275,4280,False,False,inspiration,inspiration
97,0.41,25,down,down,0.5094989000062924,1.2988547877294716,,psi_staircase,cRDM,,0.3546749699906239,0.36310931937307867,0.127770304721123,429.6895056000212,219,22,female,True,4296,4301,False,False,expiration,inspiration
98,0.41,25,down,down,0.5195113999943715,1.4300038120208878,,psi_staircase,cRDM,,0.34800829492035096,0.3562350541779392,0.12462556263034935,431.88943860001746,219,22,female,True,4318,4323,False,False,inspiration,expiration
99,0.36,25,up,up,0.3171179000055417,1.0050806891508728,,psi_staircase,cRDM,,0.34223173055902584,0.3502135942020773,0.1209156869926014,433.67271840001916,219,22,female,True,4336,4339,False,False,expiration,expiration
100,0.36,25,up,up,0.3838196999859065,1.8611260955215645,,psi_staircase,cRDM,,0.3317875381348029,0.3401932346938633,0.12733624871867233,436.20592920001945,219,22,female,True,4361,4365,False,False,expiration,expiration
101,0.34,25,up,up,0.3838060999987647,0.9808892847764444,,psi_staircase,cRDM,,0.3216296433766317,0.3303435924457489,0.13200590554163313,437.8558739,219,22,female,True,4378,4382,False,False,inspiration,inspiration
102,0.34,25,up,up,0.4785080999718048,0.8999545754954166,,psi_staircase,cRDM,,0.31061183474681303,0.3197220609323317,0.1380090298634626,439.42247420002235,219,22,female,True,4393,4398,False,False,expiration,expiration
103,0.33,25,down,down,0.4295572999981232,1.5057128859583355,,psi_staircase,cRDM,,0.29998384006754897,0.3093843450657489,0.1424064066697303,441.67239390002203,219,22,female,True,4416,4420,False,False,inspiration,peak
104,0.32,25,down,down,0.4283251999877393,1.897925027591548,,psi_staircase,cRDM,,0.2894327774722085,0.2990810413868535,0.14615965790656082,444.25561340001883,219,22,female,True,4441,4445,False,False,expiration,expiration
105,0.32,25,down,up,0.482396899984451,0.9617345474724612,,psi_staircase,cRDM,,0.27902887538693016,0.2888803856073764,0.14923859633418793,445.90558040002367,219,22,female,True,4458,4463,False,False,inspiration,inspiration
106,0.36,25,up,up,0.4901272999995854,1.390363289981046,,psi_staircase,cRDM,,0.312483835772977,0.3218644040119128,0.14210438861346794,448.03882800001884,219,22,female,True,4479,4484,False,False,expiration,expiration
107,0.32,25,up,up,0.3838270000123885,1.2685539249414102,,psi_staircase,cRDM,,0.304903286394242,0.31434487773203523,0.14302881557072272,450.0554134000268,219,22,female,True,4499,4503,False,False,inspiration,inspiration
108,0.32,25,down,up,0.4549788000003901,1.4385340456114226,,psi_staircase,cRDM,,0.2958612049728385,0.30556735454725226,0.1470365564143493,452.17199719999917,219,22,female,True,4521,4526,False,False,expiration,expiration
109,0.37,25,down,down,0.3838059999980032,1.5011433832659031,,psi_staircase,cRDM,,0.3222089377562589,0.3313093860809205,0.1378609069668921,454.38863990001846,219,22,female,True,4543,4547,False,False,inspiration,expiration
110,0.37,25,up,up,0.4695460999791976,0.8224956928431826,,psi_staircase,cRDM,,0.31630618778993463,0.3253435831600297,0.13690573012357787,455.8885944000213,219,22,female,True,4558,4563,False,False,expiration,expiration
111,0.32,25,up,up,0.3671810000087135,1.3881354178027578,,psi_staircase,cRDM,,0.3109882579893552,0.3199242664489747,0.13536983969993127,458.0051384000108,219,22,female,True,4579,4583,False,False,inspiration,inspiration
112,0.31,25,down,down,0.44352669999352656,1.2557177455646404,,psi_staircase,cRDM,,0.3031086901276143,0.3123946586693784,0.1406713163531106,459.93838900001714,219,22,female,True,4598,4602,False,False,expiration,expiration
113,0.31,25,up,up,0.36714410001877695,1.9993206273552755,,psi_staircase,cRDM,,0.2951843032446361,0.3047803295449523,0.1453683205314958,462.63830109999986,219,22,female,True,4625,4629,False,False,inspiration,expiration
114,0.31,25,down,up,0.5171447999891825,1.0294115259713992,,psi_staircase,cRDM,,0.2874817502104985,0.2973197944942588,0.1490346035001577,464.3548820000142,219,22,female,True,4642,4647,False,False,expiration,inspiration
115,0.37,25,up,up,0.5431770000141114,1.6373101003633783,,psi_staircase,cRDM,,0.3098322111576829,0.31910577229065185,0.1404833589505097,466.7718026000075,219,22,female,True,4667,4672,False,False,expiration,expiration
116,0.31,25,down,down,0.4169993000105024,1.0815337286561562,,psi_staircase,cRDM,,0.3053940142313801,0.3145547947594605,0.13877486768463645,468.65472520000185,219,22,female,True,4685,4689,False,False,inspiration,inspiration
117,0.31,25,up,up,0.38377119999495335,1.9509211762815963,,psi_staircase,cRDM,,0.29838714728430793,0.3078599998779982,0.14350238620561204,471.2880263000261,219,22,female,True,4712,4716,False,False,inspiration,inspiration
118,0.31,25,down,up,0.5440653999976348,1.8339309495748293,,psi_staircase,cRDM,,0.2915772593346787,0.3012944542170064,0.14720387961782494,473.7878780000028,219,22,female,True,4737,4742,False,False,expiration,expiration
119,0.38,25,up,up,0.4901613999973051,1.2882179422921811,,psi_staircase,cRDM,,0.3108843453384004,0.3200423677156057,0.13873308499793513,475.8878182000189,219,22,female,True,4758,4763,False,False,inspiration,expiration
120,0.31,25,up,down,0.5742152000020724,0.4083835413814537,,psi_staircase,cRDM,,0.307408589101463,0.3164076356832633,0.13632479185034166,477.0547587000183,219,22,female,True,4770,4776,False,False,expiration,trough
121,0.38,25,down,down,0.5235915000084788,1.6175410610172407,,psi_staircase,cRDM,,0.32350864165702664,0.3316908040608315,0.12394997363834577,479.504342500004,219,22,female,True,4794,4799,False,False,expiration,expiration
122,0.38,25,down,up,0.4630351000232622,1.5280838814370932,,psi_staircase,cRDM,,0.3207118186196554,0.3286268340792703,0.11990301697142393,481.8209160000261,219,22,female,True,4817,4822,False,False,inspiration,expiration
123,0.4,25,down,down,0.7254353000025731,1.1318357313067071,,psi_staircase,cRDM,,0.3336484372209195,0.34313189839167946,0.1436630934591751,483.6875326000154,219,22,female,True,4836,4843,False,False,expiration,inspiration
124,0.4,25,up,up,0.4002282000146806,1.377519579736732,,psi_staircase,cRDM,,0.3300775959030023,0.33942405598234804,0.14158769079284406,486.054102300026,219,22,female,True,4860,4864,False,False,expiration,inspiration
125,0.4,25,up,up,0.4005833999835886,1.225544731387178,,psi_staircase,cRDM,,0.3267999201222965,0.3360015255853683,0.13939331661857832,487.95402880001353,219,22,female,True,4879,4883,False,False,expiration,expiration
126,0.36,25,down,down,0.4302871999971103,1.4954307299207137,,psi_staircase,cRDM,,0.3238112012492027,0.3328604515604305,0.1370853183019059,490.1206177000131,219,22,female,True,4900,4904,False,False,inspiration,expiration
127,0.37,25,down,up,0.3171770999906585,1.2187618927336599,,psi_staircase,cRDM,,0.3197449275291519,0.32877641592289353,0.13681624649722604,492.03719430000643,219,22,female,True,4919,4922,False,False,inspiration,inspiration
128,0.41,25,down,down,0.5470953999902122,1.669570896874814,,psi_staircase,cRDM,,0.33406791403117553,0.34351626273411795,0.14313118157017096,494.4037951000209,219,22,female,True,4943,4948,False,False,expiration,inspiration
129,0.35000000000000003,25,up,up,0.4339452999993227,1.7686520211629724,,psi_staircase,cRDM,,0.3311981297815929,0.3405130752649679,0.14111028235886053,496.9870446000132,219,22,female,True,4969,4973,False,False,expiration,inspiration
130,0.35000000000000003,25,up,up,0.3171632000012323,1.2986736495874922,,psi_staircase,cRDM,,0.3266717776835753,0.3360972949994289,0.1427853133646613,498.9869558000064,219,22,female,True,4989,4992,False,False,expiration,expiration
131,0.36,25,up,up,0.41699819997302257,1.242506857944269,,psi_staircase,cRDM,,0.3223891018635389,0.3318862747059223,0.1438708088835813,500.9202264000196,219,22,female,True,5008,5012,False,False,inspiration,inspiration
132,100.0,25,M,up,0.42017990001477296,0.6152106016420638,,psi_staircase,emotion,,100.0,100.0,25.00050000000001,506.18676320000674,219,22,female,True,5061,5065,False,False,expiration,expiration
133,55.0,25,M,down,0.5333038000098895,1.9300988719979035,,psi_staircase,emotion,,54.742809467541896,54.742809467541896,25.00050000000011,508.88667030000937,219,22,female,True,5088,5093,False,False,peak,expiration
134,79.0,25,F,down,0.3498602000181563,1.419033209802665,,psi_staircase,emotion,,79.636070985635,79.636070985635,25.71326925488641,511.1702255000128,219,22,female,True,5111,5114,False,False,trough,inspiration
135,103.0,25,F,down,0.4001517999859061,0.8664758122081015,,psi_staircase,emotion,,97.61123893914808,97.61123893914808,26.1463337262867,512.7865273000207,219,22,female,True,5127,5131,False,False,expiration,expiration
136,127.0,25,M,up,0.4438648000068497,1.6597550079742556,,psi_staircase,emotion,,117.15641007867752,117.15641007867752,31.432291447829705,515.2030972000211,219,22,female,True,5151,5155,False,False,expiration,expiration
137,116.0,25,F,down,0.42559690002235584,1.4809121787686654,,psi_staircase,emotion,,105.03864224082596,105.03864224082596,29.69406400548579,517.4863632000051,219,22,female,True,5174,5178,False,False,inspiration,inspiration
138,132.0,25,M,down,0.4446976000035647,1.5751246039901756,,psi_staircase,emotion,,117.83607292554092,117.83607292554092,33.077455715554706,519.8362605000148,219,22,female,True,5197,5201,False,False,inspiration,inspiration
139,145.0,25,F,up,0.7014103000110481,0.37943225685027504,,psi_staircase,emotion,,130.5564000017949,130.5564000017949,36.38112468754836,521.0195481000119,219,22,female,True,5209,5216,False,False,expiration,expiration
140,140.0,25,F,up,0.4724777000083122,0.5096527708977587,,psi_staircase,emotion,,124.0642887293103,124.0642887293103,35.217691397362096,522.5694685000053,219,22,female,True,5225,5230,False,False,inspiration,inspiration
141,114.0,25,M,down,0.5808684999938123,1.2609944300765557,,psi_staircase,emotion,,119.26455544370474,119.26455544370474,34.12996461737054,524.6360822000132,219,22,female,True,5245,5251,False,False,expiration,inspiration
142,145.0,25,F,up,0.6335924000013621,0.3667005927888679,,psi_staircase,emotion,,124.4028460535384,124.4028460535384,33.7198039263459,525.9193650000088,219,22,female,True,5258,5264,False,False,inspiration,expiration
143,106.0,25,F,down,0.4169242999923881,1.1372390517771624,,psi_staircase,emotion,,121.25218926186446,121.25218926186446,32.498110726883816,528.0359662000265,219,22,female,True,5279,5283,False,False,inspiration,inspiration
144,146.0,25,F,up,0.3334978999919258,1.4175990633169926,,psi_staircase,emotion,,124.3087200010515,124.3087200010515,31.45942140842324,530.2192070000165,219,22,female,True,5301,5304,False,False,inspiration,inspiration
145,106.0,25,M,down,0.4651393000094686,1.5138643196765875,,psi_staircase,emotion,,122.00965920811213,122.00965920811213,30.11584279408,532.4858092000068,219,22,female,True,5324,5329,False,False,expiration,expiration
146,146.0,25,M,up,0.4478353000013158,1.1495491853264936,,psi_staircase,emotion,,124.35872420547659,124.35872420547659,28.87138592955645,534.4190916000225,219,22,female,True,5343,5347,False,False,inspiration,inspiration
147,108.0,25,F,down,0.4540145999926608,1.404831713079557,,psi_staircase,emotion,,122.6310657782748,122.6310657782748,27.43926642519148,536.6189697000082,219,22,female,True,5365,5370,False,False,expiration,expiration
148,145.0,25,F,down,0.4169361999956891,0.4750267862924586,,psi_staircase,emotion,,124.59931262553944,124.59931262553944,26.048742476583158,537.9022538000137,219,22,female,True,5378,5382,False,False,expiration,expiration
149,155.0,25,M,up,0.3834997999947518,1.2877266582720832,,psi_staircase,emotion,,129.59616887851905,129.59616887851905,31.606837569150056,539.9521705000078,219,22,female,True,5398,5402,False,False,inspiration,inspiration
150,154.0,25,M,up,0.4782093999965582,1.09965047025655,,psi_staircase,emotion,,128.0964568904902,128.0964568904902,30.442049747185173,541.8187857000157,219,22,female,True,5417,5422,False,False,expiration,inspiration
151,106.0,25,M,down,0.4558934000087902,0.3183958639055237,,psi_staircase,emotion,,126.86203703232479,126.86203703232479,29.34373790299872,542.9520757000137,219,22,female,True,5429,5434,False,False,inspiration,peak
152,153.0,25,M,up,0.30017589998897165,1.2839094297015392,,psi_staircase,emotion,,128.2322363802273,128.2322363802273,28.21339432242976,545.0353047000243,219,22,female,True,5449,5452,False,False,trough,inspiration
153,108.0,25,F,down,0.4867852999886964,1.153318271164958,,psi_staircase,emotion,,127.21408923663886,127.21408923663886,27.094377396994076,546.9351805000042,219,22,female,True,5468,5473,False,False,expiration,expiration
154,110.0,25,F,up,0.4002068999980111,1.963491081806128,,psi_staircase,emotion,,128.43779704141778,128.43779704141778,25.924127426923338,549.7351621999987,219,22,female,True,5496,5500,False,False,inspiration,inspiration
155,152.0,25,F,up,0.465573299996322,1.233580081508319,,psi_staircase,emotion,,124.83344204817764,124.83344204817764,29.605754212428803,551.7184225000092,219,22,female,True,5516,5521,False,False,expiration,expiration
156,98.0,25,M,down,1.0129381000006106,0.8389717174254929,,psi_staircase,emotion,,123.96529903839695,123.96529903839695,28.684692369972897,553.3850164000178,219,22,female,True,5533,5543,False,False,expiration,expiration
157,151.0,25,M,up,0.4766786000109278,1.7852063403457603,,psi_staircase,emotion,,124.81443649207516,124.81443649207516,27.751903092730988,556.5182359000029,219,22,female,True,5564,5569,False,False,expiration,expiration
158,99.0,25,F,down,0.4487610000069253,1.0806100470078568,,psi_staircase,emotion,,124.06205487776212,124.06205487776212,26.85153968814304,558.4181740000204,219,22,female,True,5583,5587,False,False,expiration,expiration
159,150.0,25,F,up,0.3498206000076607,1.025265450690514,,psi_staircase,emotion,,124.80330260891678,124.80330260891678,25.951829576264377,560.2517647000203,219,22,female,True,5602,5605,False,False,expiration,expiration
160,100.0,25,M,down,0.432950799993705,1.8003897176384684,,psi_staircase,emotion,,124.14767875456043,124.14767875456043,25.097221331933127,562.8180111000256,219,22,female,True,5627,5631,False,False,inspiration,inspiration
161,149.0,25,M,down,0.5820651999965776,0.6112675981597334,,psi_staircase,emotion,,124.79956515726991,124.79956515726991,24.25304178310073,564.2179413000123,219,22,female,True,5641,5647,False,False,expiration,expiration
162,156.0,25,F,up,0.4480897999892477,1.7262351614712883,,psi_staircase,emotion,,127.76057824574801,127.76057824574801,28.31387990891876,566.8678771000123,219,22,female,True,5668,5672,False,False,inspiration,inspiration
163,100.0,25,M,down,0.466473100008443,0.8753815615728359,,psi_staircase,emotion,,127.1523603995448,127.1523603995448,27.530203902637574,568.5344578000078,219,22,female,True,5684,5689,False,False,inspiration,expiration
164,155.0,25,F,up,0.4876002000237349,1.7872617003507691,,psi_staircase,emotion,,127.74356379799192,127.74356379799192,26.77033986143753,571.1343344000053,219,22,female,True,5710,5715,False,False,expiration,expiration
165,102.0,25,M,down,0.4540005000017118,0.37147044623307657,,psi_staircase,emotion,,127.20232731199872,127.20232731199872,26.029461410393925,572.3509788000082,219,22,female,True,5723,5728,False,False,expiration,inspiration
166,154.0,25,F,up,0.6217341999872588,1.2725915106995944,,psi_staircase,emotion,,127.76403943953085,127.76403943953085,25.302821074128946,574.4342189000163,219,22,female,True,5743,5749,False,False,inspiration,expiration
167,103.0,25,M,down,0.4644994000263978,1.9472453712124291,,psi_staircase,emotion,,127.27915185520546,127.27915185520546,24.615392313581577,577.3674783000024,219,22,female,True,5773,5778,False,False,inspiration,inspiration
168,105.0,25,F,down,0.5018664000090212,0.6513299369408807,,psi_staircase,emotion,,127.79437515255128,127.79437515255128,23.940457900400077,578.834053300001,219,22,female,True,5787,5792,False,False,expiration,expiration
169,153.0,25,M,down,0.3168378999980632,1.0268584449907798,,psi_staircase,emotion,,128.29548480146278,128.29548480146278,23.30329280588709,580.7006970000219,219,22,female,True,5806,5809,False,False,inspiration,inspiration
170,159.0,25,M,down,0.5206385000201408,1.4492207233582253,,psi_staircase,emotion,,130.76534205445887,130.76534205445887,26.795645040026503,582.9172734000022,219,22,female,True,5828,5833,False,False,inspiration,inspiration
171,165.0,25,F,down,0.4791301999939606,1.6608581436796668,,psi_staircase,emotion,,133.36233063206163,133.36233063206163,30.52036408006277,585.433826500026,219,22,female,True,5853,5858,False,False,expiration,expiration
172,170.0,25,F,up,0.3665053000149783,1.8895427666816165,,psi_staircase,emotion,,136.13546751243834,136.13546751243834,34.1243588682607,588.1507312000032,219,22,female,True,5881,5885,False,False,inspiration,expiration
173,169.0,25,F,up,0.4699206999794114,0.427106241712538,,psi_staircase,emotion,,135.5589718262837,135.5589718262837,33.51052017587071,589.351038200024,219,22,female,True,5893,5898,False,False,expiration,expiration
174,169.0,25,M,up,0.3334931999852415,0.9181930545251829,,psi_staircase,emotion,,135.02340772926183,135.02340772926183,32.9109728438552,591.0836306000127,219,22,female,True,5910,5913,False,False,inspiration,inspiration
175,168.0,25,M,up,0.4933686000003945,0.5863561832538264,,psi_staircase,emotion,,134.54189668511341,134.54189668511341,32.334887673149574,592.4335927000211,219,22,female,True,5923,5928,False,False,expiration,expiration
176,102.0,25,F,down,0.4747666000039317,0.3867433758747313,,psi_staircase,emotion,,134.0924019651467,134.0924019651467,31.775082452996106,593.6501732000033,219,22,female,True,5936,5941,False,False,expiration,inspiration
177,168.0,25,F,up,0.4481429999868851,1.7046106778019996,,psi_staircase,emotion,,134.5435390842299,134.5435390842299,31.2185188011123,596.1667874000268,219,22,female,True,5961,5965,False,False,expiration,expiration
178,102.0,25,F,down,0.4169347999850288,1.7224405653044148,,psi_staircase,emotion,,134.13969732265448,134.13969732265448,30.675898680940954,598.6833551000162,219,22,female,True,5986,5990,False,False,peak,expiration
179,167.0,25,M,up,0.5936770999978762,1.6736745750966415,,psi_staircase,emotion,,134.55010886581937,134.55010886581937,30.13652777327092,601.1332738000201,219,22,female,True,6010,6016,False,False,expiration,inspiration
180,103.0,25,M,down,0.5283782999904361,0.5372711923781179,,psi_staircase,emotion,,134.1722788065113,134.1722788065113,29.61066136397305,602.616577400011,219,22,female,True,6025,6030,False,False,inspiration,expiration
181,104.0,25,M,down,0.5702154000173323,1.6633618713701968,,psi_staircase,emotion,,134.5621649254031,134.5621649254031,29.087322420488327,605.1497609000071,219,22,female,True,6050,6056,False,False,inspiration,inspiration
182,0.3185596497872488,25,down,up,0.6303549000003841,1.9917258445348447,,experiment,cRDM,0.0,,,,615.9826393000258,219,22,female,True,6159,6165,False,False,inspiration,inspiration
183,0.3185596497872488,25,up,up,0.4756833999999799,0.9724353599540264,,experiment,cRDM,0.0,,,,617.8492512000084,219,22,female,True,6177,6182,False,False,expiration,expiration
184,0.3185596497872488,25,down,down,0.4002445000223816,0.8204034974980028,,experiment,cRDM,0.0,,,,619.3991868000012,219,22,female,True,6193,6197,False,False,inspiration,inspiration
185,0.3185596497872488,25,up,up,0.33382759999949485,0.6607463580786843,,experiment,cRDM,0.0,,,,620.7324797000038,219,22,female,True,6206,6209,False,False,expiration,expiration
186,0.3185596497872488,25,down,up,0.6895279999880586,1.1177968897992916,,experiment,cRDM,0.0,,,,622.5324023000139,219,22,female,True,6224,6231,False,False,expiration,expiration
187,0.3185596497872488,25,down,up,0.4839111000183038,0.4755990589155459,,experiment,cRDM,0.0,,,,623.9660026000056,219,22,female,True,6239,6244,False,False,expiration,expiration
188,0.3185596497872488,25,up,up,0.5016336000117008,0.7580171371619133,,experiment,cRDM,0.0,,,,625.4822885000029,219,22,female,True,6254,6259,False,False,inspiration,inspiration
189,0.3185596497872488,25,down,down,0.5340357999957632,0.30661326447717,,experiment,cRDM,0.0,,,,626.5489119000267,219,22,female,True,6264,6269,False,False,expiration,expiration
190,0.3185596497872488,25,up,up,0.4604308000125457,0.8297136157043454,,experiment,cRDM,0.0,,,,628.1655007000081,219,22,female,True,6281,6286,False,False,inspiration,inspiration
191,0.3185596497872488,25,up,up,0.5084793000132777,1.6845845249374962,,experiment,cRDM,0.0,,,,630.5654483000108,219,22,female,True,6305,6310,False,False,inspiration,inspiration
192,0.3185596497872488,25,down,down,0.4572425000078511,0.8981115459885878,,experiment,cRDM,0.0,,,,632.248686100007,219,22,female,True,6322,6327,False,False,expiration,expiration
193,0.3185596497872488,25,up,up,0.4299883999919985,0.5767437866104792,,experiment,cRDM,0.0,,,,633.5319754000229,219,22,female,True,6334,6338,False,False,trough,inspiration
194,0.3185596497872488,25,up,up,0.6376665999996476,0.5945125047592392,,experiment,cRDM,0.0,,,,634.8152835000074,219,22,female,True,6347,6353,False,False,expiration,expiration
195,0.3185596497872488,25,up,up,0.7303538999985904,0.9357420166372424,,experiment,cRDM,0.0,,,,636.6485333000019,219,22,female,True,6365,6372,False,False,inspiration,inspiration
196,0.3185596497872488,25,down,down,0.4290798000001814,0.6012555591533113,,experiment,cRDM,0.0,,,,638.2318213000252,219,22,female,True,6381,6385,False,False,expiration,expiration
197,0.3185596497872488,25,down,down,0.4325319000054151,1.741765997521456,,experiment,cRDM,0.0,,,,640.6484361000184,219,22,female,True,6405,6409,False,False,expiration,expiration
198,0.3185596497872488,25,up,up,0.488917999988189,0.5602950961854885,,experiment,cRDM,0.0,,,,641.9150124000153,219,22,female,True,6418,6423,False,False,trough,inspiration
199,0.3185596497872488,25,up,up,0.5665992000140251,0.7373833839175905,,experiment,cRDM,0.0,,,,643.3983102000202,219,22,female,True,6433,6439,False,False,inspiration,expiration
200,0.3185596497872488,25,down,down,0.3672493000049144,0.8405049991344999,,experiment,cRDM,0.0,,,,645.0649607000232,219,22,female,True,6450,6454,False,False,expiration,expiration
201,0.3185596497872488,25,down,down,0.5139229999913368,1.322666160455737,,experiment,cRDM,0.0,,,,647.0649876000242,219,22,female,True,6470,6475,False,False,inspiration,expiration
202,0.3185596497872488,25,up,up,0.4258764000260271,1.8669259177940911,,experiment,cRDM,0.0,,,,649.6980395000137,219,22,female,True,6496,6500,False,False,expiration,inspiration
203,0.3185596497872488,25,down,down,0.5449196999834385,1.5238862351440885,,experiment,cRDM,0.0,,,,651.8980145000096,219,22,female,True,6518,6523,False,False,peak,expiration
204,0.3185596497872488,25,up,up,0.4002770999795757,1.4656383052645912,,experiment,cRDM,0.0,,,,654.1646485000092,219,22,female,True,6541,6545,False,False,inspiration,inspiration
205,0.3185596497872488,25,down,down,0.434986200009007,0.9594644110395212,,experiment,cRDM,0.0,,,,655.7978796000243,219,22,female,True,6557,6561,False,False,inspiration,expiration
206,0.3185596497872488,25,down,down,0.4751727000111714,1.8521452733413604,,experiment,cRDM,0.0,,,,658.3477298000071,219,22,female,True,6583,6588,False,False,inspiration,peak
207,0.3185596497872488,25,up,up,0.3838449000031687,1.6366525058616996,,experiment,cRDM,0.0,,,,660.7143407000112,219,22,female,True,6606,6610,False,False,inspiration,inspiration
208,0.3185596497872488,25,up,up,0.4252945999905933,0.7123731493647603,,experiment,cRDM,0.0,,,,662.0975839000022,219,22,female,True,6620,6624,False,False,expiration,expiration
209,0.3185596497872488,25,down,down,0.4170146999822464,1.0049858143124932,,experiment,cRDM,0.0,,,,663.7808961000119,219,22,female,True,6637,6641,False,False,inspiration,inspiration
210,0.3185596497872488,25,up,up,0.4630998000211548,0.3953373134369077,,experiment,cRDM,0.0,,,,664.8478483000073,219,22,female,True,6648,6653,False,False,expiration,expiration
211,0.3185596497872488,25,down,up,0.6201532999984921,0.8168734857325932,,experiment,cRDM,0.0,,,,666.3808047000202,219,22,female,True,6663,6669,False,False,inspiration,inspiration
212,0.3185596497872488,25,up,up,0.4771753000095487,0.9746389590919466,,experiment,cRDM,0.0,,,,668.2307729000167,219,22,female,True,6681,6686,False,False,expiration,expiration
213,0.3185596497872488,25,down,up,0.454613200010499,1.5722056188335118,,experiment,cRDM,0.0,,,,670.5473109000012,219,22,female,True,6705,6710,False,False,expiration,expiration
214,0.3185596497872488,25,up,up,0.42572619998827577,1.5702901623993837,,experiment,cRDM,0.0,,,,672.8472367000068,219,22,female,True,6728,6732,False,False,inspiration,expiration
215,0.3185596497872488,25,down,up,0.6078484000172466,1.4977910911479488,,experiment,cRDM,0.0,,,,675.047132000007,219,22,female,True,6750,6756,False,False,expiration,inspiration
216,0.3185596497872488,25,up,up,0.5514902000140864,0.7462934711355622,,experiment,cRDM,0.0,,,,676.6474102000067,219,22,female,True,6766,6772,False,False,expiration,expiration
217,0.3185596497872488,25,down,down,0.5405796999984886,0.7195132279790846,,experiment,cRDM,0.0,,,,678.1803714999987,219,22,female,True,6781,6786,False,False,expiration,inspiration
218,0.3185596497872488,25,up,up,0.3671929999836721,0.3237699773567593,,experiment,cRDM,0.0,,,,679.2969684000127,219,22,female,True,6792,6796,False,False,inspiration,inspiration
219,0.3185596497872488,25,down,up,0.4876816000032704,1.3230028854789233,,experiment,cRDM,0.0,,,,681.2802587000187,219,22,female,True,6812,6817,False,False,inspiration,inspiration
220,0.3185596497872488,25,up,up,0.5647279999975581,1.3239588214360931,,experiment,cRDM,0.0,,,,683.3472809000233,219,22,female,True,6833,6839,False,False,expiration,expiration
221,0.3185596497872488,25,down,down,0.39992369999527,1.9765011349816841,,experiment,cRDM,0.0,,,,686.1470447000174,219,22,female,True,6861,6865,False,False,expiration,expiration
222,0.3185596497872488,25,down,down,0.400262399984058,1.0832001391804649,,experiment,cRDM,0.0,,,,687.8966717000003,219,22,female,True,6878,6882,False,False,inspiration,inspiration
223,0.3185596497872488,25,up,up,0.5055728000006638,0.3840422518281874,,experiment,cRDM,0.0,,,,688.9633413000265,219,22,female,True,6889,6894,False,False,inspiration,expiration
224,0.3185596497872488,25,down,down,0.5080426000058651,1.9508946986755529,,experiment,cRDM,0.0,,,,691.6798517999997,219,22,female,True,6916,6921,False,False,expiration,inspiration
225,0.3185596497872488,25,up,up,0.4575883999932557,1.7487478186483345,,experiment,cRDM,0.0,,,,694.1964296000078,219,22,female,True,6941,6946,False,False,expiration,expiration
226,0.3185596497872488,25,up,up,0.4808377999870572,0.4040575358694716,,experiment,cRDM,0.0,,,,695.3130530000199,219,22,female,True,6952,6957,False,False,trough,inspiration
227,0.3185596497872488,25,down,down,0.5116184999933466,0.4450329657266843,,experiment,cRDM,0.0,,,,696.4963490000227,219,22,female,True,6964,6969,False,False,peak,expiration
228,0.3185596497872488,25,down,up,0.4170101000054274,1.0401470603238443,,experiment,cRDM,0.0,,,,698.3129442000062,219,22,female,True,6982,6986,False,False,expiration,expiration
229,0.3185596497872488,25,up,up,0.4170185000111815,1.8837173928999176,,experiment,cRDM,0.0,,,,700.8628663000128,219,22,female,True,7008,7012,False,False,expiration,expiration
230,0.3185596497872488,25,down,down,0.4841307000024244,0.3590078337739284,,experiment,cRDM,0.0,,,,701.9128049999998,219,22,female,True,7018,7023,False,False,expiration,inspiration
231,0.3185596497872488,25,up,up,0.367169000004651,1.5536992464261803,,experiment,cRDM,0.0,,,,704.2293750000244,219,22,female,True,7041,7045,False,False,expiration,expiration
232,0.3185596497872488,25,up,up,0.5216532000049483,1.8211938963420549,,experiment,cRDM,0.0,,,,706.7292983000224,219,22,female,True,7066,7071,False,False,expiration,expiration
233,0.3185596497872488,25,up,up,0.6277531000087038,1.7090856524059608,,experiment,cRDM,0.0,,,,709.229208100005,219,22,female,True,7091,7097,False,False,inspiration,inspiration
234,0.3185596497872488,25,up,up,0.6204381000134163,0.497598274351664,,experiment,cRDM,0.0,,,,710.6124934000253,219,22,female,True,7105,7111,False,False,expiration,expiration
235,0.3185596497872488,25,up,up,0.6215250999957789,0.385740773862128,,experiment,cRDM,0.0,,,,711.8624570000102,219,22,female,True,7118,7124,False,False,trough,inspiration
236,0.3185596497872488,25,down,down,0.4170360999996774,1.4377955212653544,,experiment,cRDM,0.0,,,,714.1790145000267,219,22,female,True,7141,7145,False,False,expiration,expiration
237,0.3185596497872488,25,down,down,0.7059417999989819,1.1308715634765298,,experiment,cRDM,0.0,,,,715.9790023000096,219,22,female,True,7159,7166,False,False,inspiration,inspiration
238,0.3185596497872488,25,down,down,0.4989999000099488,1.5809317657190272,,experiment,cRDM,0.0,,,,718.5289041000069,219,22,female,True,7184,7189,False,False,expiration,expiration
239,0.3185596497872488,25,up,up,0.3999337000132073,1.5720763861758942,,experiment,cRDM,0.0,,,,720.8624323000258,219,22,female,True,7208,7212,False,False,peak,expiration
240,0.3185596497872488,25,down,down,0.4882301999896299,1.388246682877205,,experiment,cRDM,0.0,,,,722.9287044000231,219,22,female,True,7228,7233,False,False,expiration,expiration
241,0.3185596497872488,25,down,down,0.5422424999997021,0.9057276237442982,,experiment,cRDM,0.0,,,,724.5786905000277,219,22,female,True,7245,7250,False,False,inspiration,inspiration
242,0.3185596497872488,25,down,down,0.4553737999813166,1.4761313715705386,,experiment,cRDM,0.0,,,,726.8785613000218,219,22,female,True,7268,7273,False,False,expiration,expiration
243,0.3185596497872488,25,up,up,0.7133931000134908,1.2406036811822918,,experiment,cRDM,0.0,,,,728.8285079000052,219,22,female,True,7287,7294,False,False,inspiration,expiration
244,0.3185596497872488,25,down,down,0.4288468000013381,1.9824550703254773,,experiment,cRDM,0.0,,,,731.7950547000219,219,22,female,True,7317,7321,False,False,inspiration,inspiration
245,0.3185596497872488,25,up,up,0.4002572999743279,1.2256113647679652,,experiment,cRDM,0.0,,,,733.7116397000209,219,22,female,True,7336,7340,False,False,expiration,expiration
246,0.3185596497872488,25,up,down,0.4169685000088066,1.6426098427051208,,experiment,cRDM,0.0,,,,736.0448727000038,219,22,female,True,7360,7364,False,False,expiration,inspiration
247,0.3185596497872488,25,down,down,0.4220857000036631,1.668391237647314,,experiment,cRDM,0.0,,,,738.3948232000113,219,22,female,True,7383,7387,False,False,expiration,expiration
248,0.3185596497872488,25,up,up,0.3838197000150103,1.3001486017006247,,experiment,cRDM,0.0,,,,740.3781076000014,219,22,female,True,7403,7407,False,False,inspiration,inspiration
249,0.3185596497872488,25,down,down,0.4328896999941208,1.1257941268902292,,experiment,cRDM,0.0,,,,742.1780105000072,219,22,female,True,7421,7425,False,False,expiration,trough
250,0.3185596497872488,25,up,up,0.5140011000039522,1.8643098276842769,,experiment,cRDM,0.0,,,,744.7279039999994,219,22,female,True,7446,7451,False,False,expiration,expiration
251,0.3185596497872488,25,down,down,0.3671315000101458,1.5637186174638122,,experiment,cRDM,0.0,,,,747.0778622000072,219,22,female,True,7470,7474,False,False,inspiration,expiration
252,0.3185596497872488,25,up,up,0.35054240000317805,0.6457559801213018,,experiment,cRDM,0.0,,,,748.4110771000269,219,22,female,True,7483,7487,False,False,expiration,expiration
253,0.3185596497872488,25,down,down,0.42320970000582747,0.845929866461028,,experiment,cRDM,0.0,,,,749.9277146000239,219,22,female,True,7498,7502,False,False,inspiration,inspiration
254,0.3185596497872488,25,down,up,0.26716879999730736,0.9020591913233544,,experiment,cRDM,0.0,,,,751.5109683000193,219,22,female,True,7514,7517,False,False,expiration,expiration
255,0.3185596497872488,25,down,up,0.33382590001565404,0.6841255530919179,,experiment,cRDM,0.0,,,,752.8776048000145,219,22,female,True,7528,7531,False,False,inspiration,inspiration
256,0.3185596497872488,25,down,down,0.6060951999970712,1.3967331722051932,,experiment,cRDM,0.0,,,,754.9608562000212,219,22,female,True,7549,7555,False,False,expiration,expiration
257,0.3185596497872488,25,down,down,0.5754398000135552,1.4913799093399611,,experiment,cRDM,0.0,,,,757.3274567000044,219,22,female,True,7572,7578,False,False,peak,expiration
258,0.3185596497872488,25,up,up,0.4759080999938306,1.4937949846512013,,experiment,cRDM,0.0,,,,759.6610002000233,219,22,female,True,7596,7601,False,False,inspiration,inspiration
259,0.3185596497872488,25,up,up,0.4439893999951892,0.7945053315275654,,experiment,cRDM,0.0,,,,761.1939682000084,219,22,female,True,7611,7615,False,False,inspiration,expiration
260,0.3185596497872488,25,up,up,0.40025999999488704,1.0565712112476455,,experiment,cRDM,0.0,,,,762.9438804000093,219,22,female,True,7628,7632,False,False,expiration,inspiration
261,0.3185596497872488,25,up,up,0.35045339999487624,1.6730927136314555,,experiment,cRDM,0.0,,,,765.293829400005,219,22,female,True,7652,7656,False,False,expiration,inspiration
262,146.0,25,M,up,0.5322639999794774,0.7080180590286738,,experiment,emotion,0.0,,,,771.4936397000273,219,22,female,True,7714,7719,False,False,expiration,inspiration
263,123.0,25,M,up,0.4169401999970432,1.354848269654811,,experiment,emotion,0.0,,,,773.6769137000082,219,22,female,True,7736,7740,False,False,expiration,expiration
264,138.0,25,F,up,0.35016820000601,0.7832485124045534,,experiment,emotion,0.0,,,,775.160200000013,219,22,female,True,7751,7755,False,False,expiration,inspiration
265,146.0,25,F,up,0.3168432999809738,1.4742368303941875,,experiment,emotion,0.0,,,,777.3101115000028,219,22,female,True,7772,7775,False,False,expiration,expiration
266,138.0,25,M,up,0.316817999992054,1.4229148044707525,,experiment,emotion,0.0,,,,779.4100276000099,219,22,female,True,7793,7796,False,False,inspiration,inspiration
267,131.0,25,F,up,0.3167879000247922,1.2151331220009738,,experiment,emotion,0.0,,,,781.3266113999997,219,22,female,True,7812,7815,False,False,expiration,expiration
268,123.0,25,M,up,0.3335318999888841,0.3601459124426925,,experiment,emotion,0.0,,,,782.3765778000234,219,22,female,True,7823,7826,False,False,trough,inspiration
269,131.0,25,M,up,0.3001898000075016,0.39620851759586095,,experiment,emotion,0.0,,,,783.4598960000149,219,22,female,True,7834,7837,False,False,inspiration,expiration
270,146.0,25,F,up,0.3835128000064287,1.3782127014697771,,experiment,emotion,0.0,,,,785.5264606999989,219,22,female,True,7854,7858,False,False,inspiration,inspiration
271,131.0,25,F,up,0.3668415999854915,0.4376908911517245,,experiment,emotion,0.0,,,,786.6430928000191,219,22,female,True,7866,7870,False,False,expiration,expiration
272,138.0,25,F,up,0.3668655999936163,0.4622292102135897,,experiment,emotion,0.0,,,,787.7930442000215,219,22,female,True,7877,7881,False,False,expiration,expiration
273,146.0,25,F,up,0.38349619999644347,1.23568944627411,,experiment,emotion,0.0,,,,789.7096522000211,219,22,female,True,7896,7900,False,False,inspiration,expiration
274,138.0,25,F,up,0.2835013000003528,1.2249004520315223,,experiment,emotion,0.0,,,,791.6095784000063,219,22,female,True,7915,7918,False,False,trough,inspiration
275,123.0,25,F,up,0.4647523000021465,0.9279200208901376,,experiment,emotion,0.0,,,,793.2261718000227,219,22,female,True,7931,7936,False,False,expiration,expiration
276,131.0,25,M,up,0.4851963999972213,1.881616261239919,,experiment,emotion,0.0,,,,795.8427345000091,219,22,female,True,7958,7963,False,False,inspiration,expiration
277,123.0,25,M,up,0.3335242999892216,1.180051264967251,,experiment,emotion,0.0,,,,797.7926731000189,219,22,female,True,7977,7980,False,False,inspiration,inspiration
278,146.0,25,M,up,0.2835125999990851,0.6097276572508844,,experiment,emotion,0.0,,,,799.0759702000069,219,22,female,True,7990,7993,False,False,expiration,expiration
279,123.0,25,M,up,0.30024320000666194,1.6826928292525822,,experiment,emotion,0.0,,,,801.4592272000154,219,22,female,True,8014,8017,False,False,inspiration,peak
280,138.0,25,F,up,0.4237513999978546,1.2951242096548417,,experiment,emotion,0.0,,,,803.4591538000095,219,22,female,True,8034,8038,False,False,expiration,expiration
281,138.0,25,M,up,0.33352949999971315,0.8745273180433217,,experiment,emotion,0.0,,,,805.0257393000065,219,22,female,True,8049,8052,False,False,inspiration,expiration
282,131.0,25,M,up,0.3834922999958508,1.9372450987773189,,experiment,emotion,0.0,,,,807.6423121000116,219,22,female,True,8076,8080,False,False,inspiration,inspiration
283,131.0,25,F,up,0.3668724000162911,1.1703635324907034,,experiment,emotion,0.0,,,,809.5089177000044,219,22,female,True,8094,8098,False,False,expiration,expiration
284,123.0,25,M,up,0.2834568000107538,1.5640607595613123,,experiment,emotion,0.0,,,,811.7588419000093,219,22,female,True,8117,8120,False,False,inspiration,expiration
285,146.0,25,F,up,0.5224485000071581,1.0276075798924675,,experiment,emotion,0.0,,,,813.4754525000171,219,22,female,True,8134,8139,False,False,expiration,inspiration
286,138.0,25,F,up,0.590548200008925,0.4093656291465655,,experiment,emotion,0.0,,,,814.6754032000026,219,22,female,True,8146,8152,False,False,inspiration,expiration
287,123.0,25,M,up,0.7912810999841895,1.7877884643566095,,experiment,emotion,0.0,,,,817.3086631000043,219,22,female,True,8172,8180,False,False,inspiration,inspiration
288,146.0,25,M,up,0.4659873000055086,0.4125954485471623,,experiment,emotion,0.0,,,,818.7919099999998,219,22,female,True,8187,8192,False,False,expiration,expiration
289,146.0,25,F,up,0.44142039999132976,1.2771669520759563,,experiment,emotion,0.0,,,,820.8085192000143,219,22,female,True,8207,8211,False,False,inspiration,inspiration
290,131.0,25,M,up,0.3836209000146482,1.692326953726345,,experiment,emotion,0.0,,,,823.2416416000052,219,22,female,True,8232,8236,False,False,inspiration,inspiration
291,123.0,25,F,up,0.3335124999866821,0.8709526030619894,,experiment,emotion,0.0,,,,824.7916907000182,219,22,female,True,8247,8250,False,False,expiration,expiration
292,131.0,25,F,up,0.28355700001702644,0.7546181798868066,,experiment,emotion,0.0,,,,826.2249460000021,219,22,female,True,8261,8264,False,False,expiration,inspiration
293,138.0,25,F,up,0.2835313999967184,1.6345679131959578,,experiment,emotion,0.0,,,,828.5748688000023,219,22,female,True,8285,8288,False,False,inspiration,inspiration
294,123.0,25,M,up,0.4514103000110481,1.8832893580507304,,experiment,emotion,0.0,,,,831.1414637000125,219,22,female,True,8311,8316,False,False,expiration,expiration
295,146.0,25,M,up,0.7281822999939322,1.3047154768618578,,experiment,emotion,0.0,,,,833.1747279000119,219,22,female,True,8331,8338,False,False,inspiration,expiration
296,138.0,25,M,up,0.6396298999898136,1.2752801742444335,,experiment,emotion,0.0,,,,835.4412588000122,219,22,female,True,8354,8360,False,False,inspiration,inspiration
297,146.0,25,F,up,0.7764403999899514,1.5722532451572753,,experiment,emotion,0.0,,,,837.9245152000221,219,22,female,True,8378,8386,False,False,expiration,expiration
298,123.0,25,F,down,0.5131654999859165,1.8406014336730376,,experiment,emotion,0.0,,,,840.8077829000249,219,22,female,True,8407,8412,False,False,expiration,expiration
299,138.0,25,M,up,0.5694960999826435,1.371898902661879,,experiment,emotion,0.0,,,,842.9743522000208,219,22,female,True,8429,8435,False,False,inspiration,inspiration
300,131.0,25,F,up,0.7479778999986593,1.3660473399038124,,experiment,emotion,0.0,,,,845.1909421000163,219,22,female,True,8451,8458,False,False,inspiration,inspiration
301,131.0,25,M,down,0.5943086000042967,0.7551651841964186,,experiment,emotion,0.0,,,,846.957541700016,219,22,female,True,8469,8475,False,False,expiration,expiration
302,138.0,25,M,up,0.44875869998941204,0.7558755922541824,,experiment,emotion,0.0,,,,848.5741521000164,219,22,female,True,8485,8489,False,False,inspiration,inspiration
303,146.0,25,M,up,0.5941511000273749,0.5321579546632589,,experiment,emotion,0.0,,,,849.8407386000035,219,22,female,True,8498,8504,False,False,expiration,expiration
304,131.0,25,F,up,0.4169753999740351,1.929015628259202,,experiment,emotion,0.0,,,,852.6239719000005,219,22,female,True,8525,8529,False,False,inspiration,inspiration
305,123.0,25,F,down,0.6039833000104409,1.6498448807792911,,experiment,emotion,0.0,,,,854.9739142000035,219,22,female,True,8549,8555,False,False,inspiration,inspiration
306,123.0,25,M,up,0.4623601000057533,0.9487609207844899,,experiment,emotion,0.0,,,,856.7905033999997,219,22,female,True,8567,8572,False,False,expiration,expiration
307,131.0,25,F,down,0.5671237999922596,1.0026066733376937,,experiment,emotion,0.0,,,,858.5237653000223,219,22,female,True,8584,8590,False,False,inspiration,inspiration
308,146.0,25,F,up,0.3668381000170484,1.9304170712327888,,experiment,emotion,0.0,,,,861.3070051000104,219,22,female,True,8612,8616,False,False,inspiration,inspiration
309,138.0,25,M,up,0.3335394999885466,0.4363177528604827,,experiment,emotion,0.0,,,,862.4236175000259,219,22,female,True,8623,8626,False,False,inspiration,expiration
310,123.0,25,M,up,0.2834074000129476,0.6467520849213546,,experiment,emotion,0.0,,,,863.7569375000021,219,22,female,True,8637,8640,False,False,expiration,expiration
311,146.0,25,F,up,0.7853658999956679,0.3822759420222009,,experiment,emotion,0.0,,,,864.8235281000087,219,22,female,True,8647,8655,False,False,inspiration,inspiration
312,138.0,25,M,up,0.5684376999852248,1.3462124579190677,,experiment,emotion,0.0,,,,867.2234506000241,219,22,female,True,8671,8677,False,False,trough,inspiration
313,138.0,25,F,up,0.7895214999734891,1.797166981481226,,experiment,emotion,0.0,,,,869.8733715999988,219,22,female,True,8698,8706,False,False,expiration,expiration
314,123.0,25,F,up,0.4416128000011668,0.6967435499611553,,experiment,emotion,0.0,,,,871.6232795000252,219,22,female,True,8715,8719,False,False,inspiration,inspiration
315,131.0,25,F,up,0.2834402000007685,1.714825725892539,,experiment,emotion,0.0,,,,874.0565624000155,219,22,female,True,8740,8743,False,False,expiration,trough
316,146.0,25,M,up,0.28353559999959543,1.1275566957181582,,experiment,emotion,0.0,,,,875.8897886000051,219,22,female,True,8758,8761,False,False,expiration,expiration
317,131.0,25,M,up,0.5798827999969944,1.4509676978059132,,experiment,emotion,0.0,,,,878.0230502000195,219,22,female,True,8779,8785,False,False,inspiration,inspiration
318,131.0,25,F,up,0.4001904999895487,1.06361636647956,,experiment,emotion,0.0,,,,879.9396478999988,219,22,female,True,8799,8803,False,False,expiration,inspiration
319,131.0,25,F,up,0.3501737000187859,1.0437486556568938,,experiment,emotion,0.0,,,,881.6729080000077,219,22,female,True,8816,8820,False,False,expiration,expiration
320,146.0,25,M,up,0.3334751999936998,0.8259691838045107,,experiment,emotion,0.0,,,,883.2062376000104,219,22,female,True,8831,8834,False,False,trough,inspiration
321,138.0,25,M,up,0.3667941000021529,1.4603318690181113,,experiment,emotion,0.0,,,,885.3561469000124,219,22,female,True,8853,8857,False,False,expiration,expiration
322,123.0,25,M,up,0.35026739997556433,1.4221516086375112,,experiment,emotion,0.0,,,,887.472694200027,219,22,female,True,8874,8878,False,False,inspiration,peak
323,123.0,25,M,up,0.3834974000055809,0.7287099950889835,,experiment,emotion,0.0,,,,888.8726989999997,219,22,female,True,8888,8892,False,False,expiration,expiration
324,138.0,25,M,up,0.3835144999902696,1.8387645737889045,,experiment,emotion,0.0,,,,891.3892475000175,219,22,female,True,8913,8917,False,False,inspiration,inspiration
325,146.0,25,F,up,0.4393446000176482,0.3877659656042705,,experiment,emotion,0.0,,,,892.4725434000137,219,22,female,True,8924,8928,False,False,expiration,expiration
326,146.0,25,F,up,0.3001743000058923,0.4097502585332579,,experiment,emotion,0.0,,,,893.5891597000009,219,22,female,True,8935,8938,False,False,expiration,trough
327,123.0,25,M,up,0.3501527000044007,1.5752912440930262,,experiment,emotion,0.0,,,,895.8557468000218,219,22,female,True,8958,8962,False,False,expiration,expiration
328,146.0,25,F,up,0.4972616000159178,1.900013994294396,,experiment,emotion,0.0,,,,898.4556224000116,219,22,female,True,8984,8989,False,False,inspiration,expiration
329,131.0,25,F,down,0.6162850999971852,0.9977796442911352,,experiment,emotion,0.0,,,,900.2556025000232,219,22,female,True,9002,9008,False,False,expiration,trough
330,138.0,25,F,up,0.5240315000119153,0.8387013793498308,,experiment,emotion,0.0,,,,901.9888443000093,219,22,female,True,9019,9024,False,False,inspiration,expiration
331,131.0,25,M,up,0.28353589997277595,1.4454710384749496,,experiment,emotion,0.0,,,,904.2387515000011,219,22,female,True,9042,9045,False,False,inspiration,inspiration
332,123.0,25,F,up,0.2335186999989673,1.0487050250684815,,experiment,emotion,0.0,,,,905.9720231000101,219,22,female,True,9059,9061,False,False,expiration,expiration
333,138.0,25,F,up,0.5503390000085346,1.874086447495506,,experiment,emotion,0.0,,,,908.5385425000276,219,22,female,True,9085,9091,False,False,expiration,expiration
334,131.0,25,F,up,0.3835341999947559,0.7344381316502404,,experiment,emotion,0.0,,,,910.1051945000073,219,22,female,True,9100,9104,False,False,expiration,inspiration
335,138.0,25,M,up,0.3668537999910768,0.4965805327813518,,experiment,emotion,0.0,,,,911.2885184000188,219,22,female,True,9112,9116,False,False,inspiration,expiration
336,123.0,25,M,up,0.3668731000216212,1.6118006044721165,,experiment,emotion,0.0,,,,913.5884029000008,219,22,female,True,9135,9139,False,False,expiration,expiration
337,146.0,25,F,up,0.5231889999995474,1.1928911944926766,,experiment,emotion,0.0,,,,915.4716864000077,219,22,female,True,9154,9159,False,False,inspiration,expiration
338,138.0,25,M,up,0.3501940999994986,1.6365871998625996,,experiment,emotion,0.0,,,,917.888262100023,219,22,female,True,9178,9182,False,False,inspiration,inspiration
339,146.0,25,F,up,0.3501551999943331,1.7806738405974247,,experiment,emotion,0.0,,,,920.3548438000144,219,22,female,True,9203,9207,False,False,expiration,expiration
340,123.0,25,M,up,0.2835094000038225,0.6481298099065118,,experiment,emotion,0.0,,,,921.7047938000177,219,22,female,True,9216,9219,False,False,inspiration,inspiration
341,131.0,25,M,up,0.5234959999797866,1.5584961156872281,,experiment,emotion,0.0,,,,923.9713866000238,219,22,female,True,9239,9244,False,False,expiration,expiration
342,0.3185596497872488,25,up,up,0.6012719999998808,1.5173106079491547,,experiment,cRDM,1.0,,,,950.50365660002,219,22,female,True,9504,9510,False,False,expiration,inspiration
343,0.3185596497872488,25,up,up,0.3172387999948114,1.4851840837895562,,experiment,cRDM,1.0,,,,952.8535656000023,219,22,female,True,9528,9531,False,False,expiration,expiration
344,0.3185596497872488,25,down,up,0.3337889999966137,1.1679403764639047,,experiment,cRDM,1.0,,,,954.7034937000136,219,22,female,True,9546,9549,False,False,inspiration,inspiration
345,0.3185596497872488,25,down,down,0.5348091000050772,0.374978234818911,,experiment,cRDM,1.0,,,,955.7701272000266,219,22,female,True,9557,9562,False,False,inspiration,expiration
346,0.3185596497872488,25,up,up,0.5404495999973733,1.3929560568373545,,experiment,cRDM,1.0,,,,957.9534107000218,219,22,female,True,9579,9584,False,False,expiration,trough
347,0.3185596497872488,25,down,down,0.5328794999804813,1.1101829826823313,,experiment,cRDM,1.0,,,,959.8699802000192,219,22,female,True,9598,9603,False,False,expiration,expiration
348,0.3185596497872488,25,up,up,0.3504469000035897,0.32836797610830193,,experiment,cRDM,1.0,,,,960.98661740002,219,22,female,True,9609,9613,False,False,expiration,expiration
349,0.3185596497872488,25,up,up,0.4002524000243284,1.3834067786992,,experiment,cRDM,1.0,,,,963.0532271000266,219,22,female,True,9630,9634,False,False,peak,expiration
350,0.3185596497872488,25,down,down,0.44546859999536537,1.0648509573138594,,experiment,cRDM,1.0,,,,964.7864583000193,219,22,female,True,9647,9651,False,False,expiration,expiration
351,0.3185596497872488,25,down,down,0.5001752999960445,1.9867824877765796,,experiment,cRDM,1.0,,,,967.4696868000027,219,22,female,True,9674,9679,False,False,expiration,expiration
352,0.3185596497872488,25,down,down,0.6868640999891795,0.38195878892240653,,experiment,cRDM,1.0,,,,968.6029896000107,219,22,female,True,9685,9692,False,False,expiration,inspiration
353,0.3185596497872488,25,down,up,0.26715060000424273,1.862056706085068,,experiment,cRDM,1.0,,,,971.4195530000144,219,22,female,True,9713,9716,False,False,expiration,expiration
354,0.3185596497872488,25,down,down,0.4807318999955896,1.4302803557320634,,experiment,cRDM,1.0,,,,973.5361436000093,219,22,female,True,9735,9740,False,False,inspiration,inspiration
355,0.3185596497872488,25,down,down,0.5218500999908429,1.719621789828233,,experiment,cRDM,1.0,,,,975.9860555000197,219,22,female,True,9759,9764,False,False,expiration,expiration
356,0.3185596497872488,25,up,up,0.3504708999826107,1.3910161781670736,,experiment,cRDM,1.0,,,,978.1693085000153,219,22,female,True,9781,9785,False,False,inspiration,expiration
357,0.3185596497872488,25,up,down,0.5296322999929544,0.7776682869377849,,experiment,cRDM,1.0,,,,979.6192263000121,219,22,female,True,9795,9800,False,False,expiration,expiration
358,0.3185596497872488,25,up,up,0.480686599999899,0.352057976032404,,experiment,cRDM,1.0,,,,980.7692056000232,219,22,female,True,9807,9812,False,False,inspiration,inspiration
359,0.3185596497872488,25,up,up,0.4002789999940433,1.2267869670070168,,experiment,cRDM,1.0,,,,982.7358013000047,219,22,female,True,9827,9831,False,False,expiration,expiration
360,0.3185596497872488,25,down,down,0.4257686999917496,0.3028264783583675,,experiment,cRDM,1.0,,,,983.7190773000183,219,22,female,True,9836,9840,False,False,inspiration,inspiration
361,0.3185596497872488,25,up,up,0.40022539999336,1.7414732997002824,,experiment,cRDM,1.0,,,,986.1356752999999,219,22,female,True,9861,9865,False,False,inspiration,inspiration
362,0.3185596497872488,25,up,down,0.4170066999795381,0.9599755560124172,,experiment,cRDM,1.0,,,,987.7689451000188,219,22,female,True,9877,9881,False,False,expiration,expiration
363,0.3185596497872488,25,down,down,0.5546446999942418,0.6949591835400559,,experiment,cRDM,1.0,,,,989.1522807000148,219,22,female,True,9891,9897,False,False,inspiration,inspiration
364,0.3185596497872488,25,up,up,0.4170220000087284,0.7086005731732539,,experiment,cRDM,1.0,,,,990.6855013000023,219,22,female,True,9906,9910,False,False,inspiration,expiration
365,0.3185596497872488,25,down,down,0.4454375999921467,0.6085315484548692,,experiment,cRDM,1.0,,,,991.985472500004,219,22,female,True,9919,9923,False,False,expiration,expiration
366,0.3185596497872488,25,down,up,0.5341647000168449,0.9683655227992568,,experiment,cRDM,1.0,,,,993.6687444000273,219,22,female,True,9936,9941,False,False,inspiration,expiration
367,0.3185596497872488,25,up,up,0.5302767000102904,0.740472060788615,,experiment,cRDM,1.0,,,,995.2186529000172,219,22,female,True,9951,9956,False,False,expiration,expiration
368,0.3185596497872488,25,up,up,0.4170145000098273,1.9456684744297168,,experiment,cRDM,1.0,,,,997.968563500006,219,22,female,True,9979,9983,False,False,inspiration,inspiration
369,0.3185596497872488,25,down,down,0.5426727999874856,1.0802659885742003,,experiment,cRDM,1.0,,,,999.7351771000248,219,22,female,True,9997,10002,False,False,expiration,expiration
370,0.3185596497872488,25,up,up,0.3838241000194103,1.2718092636258749,,experiment,cRDM,1.0,,,,1001.8017589000227,219,22,female,True,10017,10021,False,False,expiration,expiration
371,0.3185596497872488,25,down,down,0.4851456999895163,0.4697022499926626,,experiment,cRDM,1.0,,,,1002.9517546000134,219,22,female,True,10029,10034,False,False,inspiration,inspiration
372,0.3185596497872488,25,down,up,0.4841754999943078,0.7563291231196695,,experiment,cRDM,1.0,,,,1004.4517048000124,219,22,female,True,10044,10049,False,False,inspiration,expiration
373,0.3185596497872488,25,down,up,0.4169507999904454,1.0633081479008453,,experiment,cRDM,1.0,,,,1006.2516406000067,219,22,female,True,10062,10066,False,False,expiration,expiration
374,0.3185596497872488,25,up,down,0.4002544000104536,0.8154382081735005,,experiment,cRDM,1.0,,,,1007.7515864000017,219,22,female,True,10077,10081,False,False,inspiration,inspiration
375,0.3185596497872488,25,up,up,0.4002531000005547,0.4114479829574036,,experiment,cRDM,1.0,,,,1008.8348614000133,219,22,female,True,10088,10092,False,False,expiration,expiration
376,0.3185596497872488,25,up,up,0.4002457999740727,1.1799419499959252,,experiment,cRDM,1.0,,,,1010.7014384000212,219,22,female,True,10106,10110,False,False,inspiration,inspiration
377,0.3185596497872488,25,down,down,0.6028661000018474,1.7339123277350648,,experiment,cRDM,1.0,,,,1013.1180193000183,219,22,female,True,10130,10136,False,False,expiration,expiration
378,0.3185596497872488,25,down,up,0.4496024000109173,1.2300058393406497,,experiment,cRDM,1.0,,,,1015.201260700007,219,22,female,True,10151,10155,False,False,inspiration,inspiration
379,0.3185596497872488,25,up,up,0.4622839000076056,0.5547588196784338,,experiment,cRDM,1.0,,,,1016.4845601000123,219,22,female,True,10164,10169,False,False,inspiration,inspiration
380,0.3185596497872488,25,down,down,0.4854396000155248,1.7256643973185457,,experiment,cRDM,1.0,,,,1018.934458100004,219,22,female,True,10189,10194,False,False,expiration,expiration
381,0.3185596497872488,25,up,up,0.40026760002365336,1.1640769440184613,,experiment,cRDM,1.0,,,,1020.8343893999989,219,22,female,True,10208,10212,False,False,inspiration,inspiration
382,0.3185596497872488,25,up,up,0.43318019999424,0.6630126172250875,,experiment,cRDM,1.0,,,,1022.1676848000208,219,22,female,True,10221,10225,False,False,inspiration,inspiration
383,0.3185596497872488,25,up,up,0.4665821999951731,1.3807768845773862,,experiment,cRDM,1.0,,,,1024.2342820000194,219,22,female,True,10242,10247,False,False,expiration,expiration
384,0.3185596497872488,25,down,down,0.5274094000051264,1.763752033176562,,experiment,cRDM,1.0,,,,1026.7174881000246,219,22,female,True,10267,10272,False,False,expiration,expiration
385,0.3185596497872488,25,down,up,0.4934399999910966,0.5004327386067619,,experiment,cRDM,1.0,,,,1028.0174735000182,219,22,female,True,10280,10285,False,False,inspiration,inspiration
386,0.3185596497872488,25,up,up,0.3006140999787021,1.0344593904306043,,experiment,cRDM,1.0,,,,1029.80073420002,219,22,female,True,10297,10300,False,False,expiration,expiration
387,0.3185596497872488,25,down,down,0.4881587999989279,0.3151769529843045,,experiment,cRDM,1.0,,,,1030.8006915000149,219,22,female,True,10307,10312,False,False,expiration,expiration
388,0.3185596497872488,25,down,up,0.7225551000155974,1.8216012642602768,,experiment,cRDM,1.0,,,,1033.3672716,219,22,female,True,10333,10340,False,False,inspiration,expiration
389,0.3185596497872488,25,up,up,0.3504997999989428,1.2738145542084165,,experiment,cRDM,1.0,,,,1035.6171728000045,219,22,female,True,10355,10359,False,False,inspiration,inspiration
390,0.3185596497872488,25,up,up,0.3004771999840159,0.5879778301279466,,experiment,cRDM,1.0,,,,1036.8838093000231,219,22,female,True,10368,10371,False,False,expiration,expiration
391,0.3185596497872488,25,down,up,0.28381189997890033,1.4840940136930978,,experiment,cRDM,1.0,,,,1039.0337371000205,219,22,female,True,10390,10393,False,False,expiration,inspiration
392,0.3185596497872488,25,up,up,0.4915088000125252,1.0008592613847265,,experiment,cRDM,1.0,,,,1040.7003388000012,219,22,female,True,10406,10411,False,False,expiration,expiration
393,0.3185596497872488,25,down,down,0.43825929999002255,1.0220951550432462,,experiment,cRDM,1.0,,,,1042.4836014000177,219,22,female,True,10424,10428,False,False,inspiration,inspiration
394,0.3185596497872488,25,down,down,0.468679500016151,0.7187992654412347,,experiment,cRDM,1.0,,,,1043.9001915000265,219,22,female,True,10438,10443,False,False,expiration,expiration
395,0.3185596497872488,25,down,down,0.6203318999905605,0.7514837452025183,,experiment,cRDM,1.0,,,,1045.3835204000059,219,22,female,True,10453,10459,False,False,expiration,inspiration
396,0.3185596497872488,25,up,up,0.3172550000017509,1.622212197104706,,experiment,cRDM,1.0,,,,1047.9000661000027,219,22,female,True,10478,10481,False,False,expiration,expiration
397,0.3185596497872488,25,up,up,0.3671930000127759,0.7882196120446008,,experiment,cRDM,1.0,,,,1049.3666878000076,219,22,female,True,10493,10497,False,False,expiration,inspiration
398,0.3185596497872488,25,down,down,0.4829467000090517,0.4421016598393195,,experiment,cRDM,1.0,,,,1050.4999816000054,219,22,female,True,10504,10509,False,False,inspiration,inspiration
399,0.3185596497872488,25,down,up,0.3504759999923408,1.6292463643404589,,experiment,cRDM,1.0,,,,1052.8665348000068,219,22,female,True,10528,10532,False,False,expiration,expiration
400,0.3185596497872488,25,up,up,0.4287387000222225,1.048112214990183,,experiment,cRDM,1.0,,,,1054.5831510999997,219,22,female,True,10545,10549,False,False,inspiration,inspiration
401,0.3185596497872488,25,up,up,0.5750910999777261,0.92325635414095,,experiment,cRDM,1.0,,,,1056.1997683000227,219,22,female,True,10561,10567,False,False,expiration,expiration
402,0.3185596497872488,25,up,down,0.4170005000196397,1.0138331255859658,,experiment,cRDM,1.0,,,,1058.0497077000036,219,22,female,True,10580,10584,False,False,inspiration,inspiration
403,0.3185596497872488,25,up,up,0.4312140999827534,1.4643279609279367,,experiment,cRDM,1.0,,,,1060.1996302000189,219,22,female,True,10601,10605,False,False,expiration,expiration
404,0.3185596497872488,25,up,up,0.3505401000147685,1.134834269494115,,experiment,cRDM,1.0,,,,1062.0161689000088,219,22,female,True,10619,10623,False,False,expiration,inspiration
405,0.3185596497872488,25,down,down,0.4680694000271615,1.0335687847132262,,experiment,cRDM,1.0,,,,1063.7328189000252,219,22,female,True,10637,10642,False,False,expiration,expiration
406,0.3185596497872488,25,down,down,0.5192802000092342,1.5096192252524108,,experiment,cRDM,1.0,,,,1065.9826433999988,219,22,female,True,10659,10664,False,False,inspiration,inspiration
407,0.3185596497872488,25,up,up,0.3004826999967918,0.9742343742318528,,experiment,cRDM,1.0,,,,1067.749380400026,219,22,female,True,10677,10680,False,False,expiration,expiration
408,0.3185596497872488,25,down,down,0.3671689000038896,1.6777159418733385,,experiment,cRDM,1.0,,,,1070.0992627000087,219,22,female,True,10700,10704,False,False,inspiration,inspiration
409,0.3185596497872488,25,down,up,0.6573444999812637,1.1393495744204534,,experiment,cRDM,1.0,,,,1071.932514300017,219,22,female,True,10719,10726,False,False,expiration,expiration
410,0.3185596497872488,25,down,up,0.4170538999896962,1.0465589559187998,,experiment,cRDM,1.0,,,,1073.9157812000194,219,22,female,True,10739,10743,False,False,inspiration,inspiration
411,0.3185596497872488,25,up,up,0.3504772000014782,1.43134400989037,,experiment,cRDM,1.0,,,,1076.015688500018,219,22,female,True,10760,10764,False,False,expiration,expiration
412,0.3185596497872488,25,down,down,0.400308500014944,1.2595803979673947,,experiment,cRDM,1.0,,,,1077.9489049000258,219,22,female,True,10779,10783,False,False,inspiration,inspiration
413,0.3185596497872488,25,down,down,0.3837919000070542,1.0868062854680758,,experiment,cRDM,1.0,,,,1079.715570100001,219,22,female,True,10797,10801,False,False,expiration,inspiration
414,0.3185596497872488,25,down,down,0.4606637000106275,0.8351067832096724,,experiment,cRDM,1.0,,,,1081.232180400024,219,22,female,True,10812,10817,False,False,inspiration,inspiration
415,0.3185596497872488,25,up,up,0.4487851999874693,0.8787415918018355,,experiment,cRDM,1.0,,,,1082.8321254000184,219,22,female,True,10828,10832,False,False,expiration,expiration
416,0.3185596497872488,25,up,up,0.4574735000205692,1.13114109738513,,experiment,cRDM,1.0,,,,1084.6653733000276,219,22,female,True,10846,10851,False,False,expiration,expiration
417,0.3185596497872488,25,down,down,0.3671998000063468,1.187657954795691,,experiment,cRDM,1.0,,,,1086.5653170000003,219,22,female,True,10865,10869,False,False,inspiration,inspiration
418,0.3185596497872488,25,up,up,0.4002423000056297,0.5767513595817891,,experiment,cRDM,1.0,,,,1087.8319546999992,219,22,female,True,10878,10882,False,False,expiration,expiration
419,0.3185596497872488,25,down,down,0.4664071000006516,1.9800839218388595,,experiment,cRDM,1.0,,,,1090.4984861000266,219,22,female,True,10904,10909,False,False,inspiration,inspiration
420,0.3185596497872488,25,up,up,0.42241059997468255,1.319141785535592,,experiment,cRDM,1.0,,,,1092.5484565000224,219,22,female,True,10925,10929,False,False,inspiration,expiration
421,0.3185596497872488,25,up,up,0.4298741999955382,1.2712746080883877,,experiment,cRDM,1.0,,,,1094.5149875000059,219,22,female,True,10944,10948,False,False,expiration,expiration
422,146.0,25,M,up,0.464257199986605,1.2925549746831888,,experiment,emotion,1.0,,,,1098.5815952000266,219,22,female,True,10985,10990,False,False,expiration,trough
423,123.0,25,M,down,0.4001992999983486,0.7801268193211943,,experiment,emotion,1.0,,,,1100.1148877000087,219,22,female,True,11000,11004,False,False,inspiration,expiration
424,138.0,25,F,up,0.4169160000164993,0.4514474963984872,,experiment,emotion,1.0,,,,1101.2815072000085,219,22,female,True,11012,11016,False,False,expiration,expiration
425,146.0,25,F,up,0.5147065999917686,0.3825065535151452,,experiment,emotion,1.0,,,,1102.3481491999992,219,22,female,True,11023,11028,False,False,inspiration,inspiration
426,138.0,25,M,up,0.4828134000126738,1.9730230622757168,,experiment,emotion,1.0,,,,1105.0980275000038,219,22,female,True,11050,11055,False,False,expiration,expiration
427,131.0,25,F,up,0.6938635000260547,0.8367707740946073,,experiment,emotion,1.0,,,,1106.6979691000017,219,22,female,True,11066,11073,False,False,inspiration,inspiration
428,123.0,25,M,up,0.5082765000115614,0.6000623908666409,,experiment,emotion,1.0,,,,1108.2645758000144,219,22,female,True,11082,11087,False,False,expiration,expiration
429,131.0,25,M,up,0.4826382999890484,0.5821510919484996,,experiment,emotion,1.0,,,,1109.6312175000205,219,22,female,True,11096,11101,False,False,expiration,inspiration
430,146.0,25,F,up,0.4520710000069812,0.652016019886738,,experiment,emotion,1.0,,,,1111.0478258000219,219,22,female,True,11110,11115,False,False,inspiration,peak
431,131.0,25,F,up,0.3334995999757666,0.4877266402924358,,experiment,emotion,1.0,,,,1112.2477753999992,219,22,female,True,11122,11125,False,False,expiration,expiration
432,138.0,25,F,up,0.26688340000691824,0.7770387686402341,,experiment,emotion,1.0,,,,1113.6976732000182,219,22,female,True,11136,11139,False,False,inspiration,inspiration
433,146.0,25,F,up,0.4673068999836687,1.9106400252566385,,experiment,emotion,1.0,,,,1116.2976278999997,219,22,female,True,11162,11167,False,False,expiration,inspiration
434,138.0,25,F,up,0.4953933000215329,1.769522858106723,,experiment,emotion,1.0,,,,1118.7975261000101,219,22,female,True,11187,11192,False,False,expiration,expiration
435,123.0,25,F,up,0.6507069000217598,0.9034946010474804,,experiment,emotion,1.0,,,,1120.4641449000046,219,22,female,True,11204,11211,False,False,inspiration,inspiration
436,131.0,25,M,up,0.491113399999449,0.39055550581746346,,experiment,emotion,1.0,,,,1121.780735200009,219,22,female,True,11217,11222,False,False,expiration,expiration
437,123.0,25,M,up,0.3502021999738645,0.4745174278640128,,experiment,emotion,1.0,,,,1123.0140353000024,219,22,female,True,11229,11233,False,False,expiration,inspiration
438,146.0,25,M,up,0.5415727000217885,0.7937009344645124,,experiment,emotion,1.0,,,,1124.497298400005,219,22,female,True,11244,11249,False,False,expiration,expiration
439,123.0,25,M,up,0.4740469000244048,1.7990802041641212,,experiment,emotion,1.0,,,,1127.1138697999995,219,22,female,True,11270,11275,False,False,inspiration,inspiration
440,138.0,25,F,up,0.6157134000095539,1.003710551055372,,experiment,emotion,1.0,,,,1128.8471614000155,219,22,female,True,11288,11294,False,False,expiration,expiration
441,138.0,25,M,up,0.4561782000237145,0.9702204012433906,,experiment,emotion,1.0,,,,1130.7137441000086,219,22,female,True,11306,11311,False,False,inspiration,peak
442,131.0,25,M,down,0.5765438999806065,1.8399029535269964,,experiment,emotion,1.0,,,,1133.2803282000239,219,22,female,True,11332,11338,False,False,expiration,inspiration
443,131.0,25,F,up,0.4823044000077061,0.44208293051391706,,experiment,emotion,1.0,,,,1134.563598800014,219,22,female,True,11345,11350,False,False,inspiration,inspiration
444,123.0,25,M,up,0.4200101000024006,1.8249098251227416,,experiment,emotion,1.0,,,,1137.1468423000188,219,22,female,True,11371,11375,False,False,inspiration,inspiration
445,146.0,25,F,up,0.3668766000191681,1.0727356245998407,,experiment,emotion,1.0,,,,1138.9134096000053,219,22,female,True,11389,11393,False,False,expiration,expiration
446,138.0,25,F,up,0.31684109999332577,1.1654711129274735,,experiment,emotion,1.0,,,,1140.780054700008,219,22,female,True,11407,11410,False,False,inspiration,inspiration
447,123.0,25,M,down,0.4170143999799621,0.6379279608239962,,experiment,emotion,1.0,,,,1142.096669200022,219,22,female,True,11420,11424,False,False,expiration,expiration
448,146.0,25,M,down,0.4722157999931369,0.4738512767007056,,experiment,emotion,1.0,,,,1143.2466323000262,219,22,female,True,11432,11437,False,False,trough,inspiration
449,146.0,25,F,up,0.38343419999000616,1.7486072586051338,,experiment,emotion,1.0,,,,1145.7298833000239,219,22,female,True,11457,11461,False,False,expiration,expiration
450,131.0,25,M,up,0.3834997999947518,0.9729354949489342,,experiment,emotion,1.0,,,,1147.3798062000133,219,22,female,True,11473,11477,False,False,inspiration,inspiration
451,123.0,25,F,down,0.5730761000013445,0.6161279223341898,,experiment,emotion,1.0,,,,1148.679763400025,219,22,female,True,11486,11492,False,False,expiration,expiration
452,131.0,25,F,up,0.4169453000067733,0.9585295216224694,,experiment,emotion,1.0,,,,1150.46303850002,219,22,female,True,11504,11508,False,False,expiration,expiration
453,138.0,25,F,up,0.5372338000161108,0.8240841426215826,,experiment,emotion,1.0,,,,1151.9796370000113,219,22,female,True,11519,11524,False,False,inspiration,inspiration
454,123.0,25,M,down,0.4889632999838796,0.4282030825286875,,experiment,emotion,1.0,,,,1153.2128866000276,219,22,female,True,11532,11537,False,False,inspiration,expiration
455,146.0,25,M,up,0.4450142999994569,1.8056966116798825,,experiment,emotion,1.0,,,,1155.762831,219,22,female,True,11557,11561,False,False,inspiration,inspiration
456,138.0,25,M,up,0.3168008000066038,1.9649844163601355,,experiment,emotion,1.0,,,,1158.4460738000053,219,22,female,True,11584,11587,False,False,expiration,expiration
457,146.0,25,F,up,0.3834943999827374,1.233464895934523,,experiment,emotion,1.0,,,,1160.362672200019,219,22,female,True,11603,11607,False,False,inspiration,inspiration
458,123.0,25,F,down,0.426579999999376,0.7389600963089102,,experiment,emotion,1.0,,,,1161.7792867000098,219,22,female,True,11617,11621,False,False,expiration,expiration
459,138.0,25,M,up,0.4001819000113756,1.4816785459574815,,experiment,emotion,1.0,,,,1163.962532900012,219,22,female,True,11639,11643,False,False,inspiration,expiration
460,131.0,25,F,up,0.7066916000039782,1.1774128108745343,,experiment,emotion,1.0,,,,1165.829105700017,219,22,female,True,11658,11665,False,False,inspiration,inspiration
461,131.0,25,M,down,0.4630764000175986,0.5417830658238072,,experiment,emotion,1.0,,,,1167.3457458000048,219,22,female,True,11673,11678,False,False,inspiration,expiration
462,138.0,25,M,up,0.4169361999956891,1.5158115127704233,,experiment,emotion,1.0,,,,1169.595645400026,219,22,female,True,11695,11699,False,False,expiration,trough
463,146.0,25,M,up,0.3668206000002101,1.3809252561311016,,experiment,emotion,1.0,,,,1171.6455842000141,219,22,female,True,11716,11720,False,False,expiration,expiration
464,131.0,25,F,down,0.4001751999894623,1.307503327536867,,experiment,emotion,1.0,,,,1173.628816600016,219,22,female,True,11736,11740,False,False,inspiration,inspiration
465,123.0,25,F,down,0.5857698000036179,1.9818796954093452,,experiment,emotion,1.0,,,,1176.3120543000114,219,22,female,True,11762,11768,False,False,expiration,expiration
466,123.0,25,M,down,0.550186999986181,0.5605653340572836,,experiment,emotion,1.0,,,,1177.728656500025,219,22,female,True,11777,11783,False,False,inspiration,inspiration
467,131.0,25,F,down,0.3835090000065975,1.0144780472353907,,experiment,emotion,1.0,,,,1179.5619480000169,219,22,female,True,11795,11799,False,False,expiration,expiration
468,146.0,25,F,up,0.7216396000003442,1.5550987180348268,,experiment,emotion,1.0,,,,1181.7952010000008,219,22,female,True,11817,11824,False,False,expiration,inspiration
469,138.0,25,M,up,0.35016649999306537,0.7183747520333741,,experiment,emotion,1.0,,,,1183.5117970000138,219,22,female,True,11834,11838,False,False,expiration,expiration
470,123.0,25,M,up,0.6470852999773342,0.8605876767154708,,experiment,emotion,1.0,,,,1185.0617507999996,219,22,female,True,11850,11856,False,False,inspiration,expiration
471,146.0,25,F,up,0.7671786000137217,1.7810083306422562,,experiment,emotion,1.0,,,,1187.7616591000115,219,22,female,True,11877,11885,False,False,inspiration,inspiration
472,138.0,25,M,down,0.4439623999933247,1.6123071631948136,,experiment,emotion,1.0,,,,1190.394882100023,219,22,female,True,11903,11907,False,False,expiration,expiration
473,138.0,25,F,up,0.823737800004892,1.762269976121144,,experiment,emotion,1.0,,,,1192.8781292000203,219,22,female,True,11928,11936,False,False,inspiration,expiration
474,123.0,25,F,down,0.4787805999803823,1.0048392890504645,,experiment,emotion,1.0,,,,1194.978053400002,219,22,female,True,11949,11954,False,False,expiration,expiration
475,131.0,25,F,up,0.5018354999774601,0.6473575301441274,,experiment,emotion,1.0,,,,1196.3780039000267,219,22,female,True,11963,11968,False,False,inspiration,inspiration
476,146.0,25,M,up,0.3836141999927349,1.094991500838144,,experiment,emotion,1.0,,,,1198.2446140000247,219,22,female,True,11982,11986,False,False,expiration,expiration
477,131.0,25,M,up,0.7503576000162866,1.2665891255288315,,experiment,emotion,1.0,,,,1200.1945073000095,219,22,female,True,12001,12009,False,False,inspiration,expiration
478,131.0,25,F,up,0.4001890000072308,1.309315048026962,,experiment,emotion,1.0,,,,1202.5110938000146,219,22,female,True,12025,12029,False,False,expiration,expiration
479,131.0,25,F,up,0.7498174000065774,0.4163711745333699,,experiment,emotion,1.0,,,,1203.6110294000246,219,22,female,True,12036,12043,False,False,inspiration,inspiration
480,146.0,25,M,down,0.4169787999999244,1.4763283233557387,,experiment,emotion,1.0,,,,1206.1109601000207,219,22,female,True,12060,12064,False,False,expiration,expiration
481,138.0,25,M,up,0.41694600001210347,0.6691835879772882,,experiment,emotion,1.0,,,,1207.4775968000176,219,22,female,True,12074,12078,False,False,inspiration,inspiration
482,123.0,25,M,up,0.38357119998545386,1.6259768988901913,,experiment,emotion,1.0,,,,1209.8107708000168,219,22,female,True,12098,12102,False,False,expiration,expiration
483,123.0,25,M,up,0.4563877999898978,0.5421689755309026,,experiment,emotion,1.0,,,,1211.0274508000002,219,22,female,True,12110,12115,False,False,expiration,inspiration
484,138.0,25,M,up,0.5704101999872364,0.3175497636954019,,experiment,emotion,1.0,,,,1212.0774288000248,219,22,female,True,12120,12126,False,False,inspiration,peak
485,146.0,25,F,down,0.4618448999826797,1.927600879458696,,experiment,emotion,1.0,,,,1214.8439753000275,219,22,female,True,12148,12153,False,False,inspiration,inspiration
486,146.0,25,F,up,0.4839215000101831,0.9526316515607324,,experiment,emotion,1.0,,,,1216.5439155000204,219,22,female,True,12165,12170,False,False,inspiration,expiration
487,123.0,25,M,down,0.5373262999928556,1.5612126892362932,,experiment,emotion,1.0,,,,1218.8605084000155,219,22,female,True,12188,12193,False,False,inspiration,inspiration
488,146.0,25,F,up,0.4374412999895867,1.9852691083278284,,experiment,emotion,1.0,,,,1221.6603988000134,219,22,female,True,12216,12220,False,False,trough,inspiration
489,131.0,25,F,down,0.9514871999854222,0.8270796850887494,,experiment,emotion,1.0,,,,1223.2103332000258,219,22,female,True,12232,12242,False,False,expiration,expiration
490,138.0,25,F,up,0.6039275000221096,0.4016609155713268,,experiment,emotion,1.0,,,,1224.826940400002,219,22,female,True,12248,12254,False,False,inspiration,inspiration
491,131.0,25,M,up,0.5009955000132322,1.7353726614260576,,experiment,emotion,1.0,,,,1227.426840900007,219,22,female,True,12274,12279,False,False,expiration,expiration
492,123.0,25,F,down,0.4848146000003908,1.4987522074439883,,experiment,emotion,1.0,,,,1229.7100803000212,219,22,female,True,12296,12301,False,False,expiration,expiration
493,138.0,25,F,up,0.4474381000036374,0.87264116705367,,experiment,emotion,1.0,,,,1231.343397300021,219,22,female,True,12313,12317,False,False,inspiration,inspiration
494,131.0,25,F,up,0.6321869000094011,0.41236983443443104,,experiment,emotion,1.0,,,,1232.476674000005,219,22,female,True,12324,12330,False,False,expiration,expiration
495,138.0,25,M,down,0.4391961999936029,1.2078789423141874,,experiment,emotion,1.0,,,,1234.5766062000184,219,22,female,True,12345,12349,False,False,inspiration,inspiration
496,123.0,25,M,down,0.4766377999912947,0.6557804916651315,,experiment,emotion,1.0,,,,1235.9432170000218,219,22,female,True,12359,12364,False,False,expiration,expiration
497,146.0,25,F,up,0.4001535999996122,1.967253886014804,,experiment,emotion,1.0,,,,1238.67647570002,219,22,female,True,12386,12390,False,False,inspiration,expiration
498,138.0,25,M,up,0.41678739999770187,0.4629942184461177,,experiment,emotion,1.0,,,,1239.8097203000216,219,22,female,True,12397,12401,False,False,expiration,expiration
499,146.0,25,F,up,0.4169995000120253,1.8292947070283996,,experiment,emotion,1.0,,,,1242.32629550001,219,22,female,True,12423,12427,False,False,expiration,expiration
500,123.0,25,M,up,0.8122707000002265,1.734518532963198,,experiment,emotion,1.0,,,,1244.7595473000256,219,22,female,True,12447,12455,False,False,inspiration,inspiration
501,131.0,25,M,up,0.6643908999976702,1.4026334552548392,,experiment,emotion,1.0,,,,1247.2594417000073,219,22,female,True,12472,12479,False,False,expiration,expiration
502,0.3185596497872488,25,up,up,0.5358523000031711,1.296246326188934,,experiment,cRDM,2.0,,,,1265.0920563000254,219,22,female,True,12650,12655,False,False,expiration,inspiration
503,0.3185596497872488,25,up,up,0.4170097000023816,1.8864643864747992,,experiment,cRDM,2.0,,,,1267.7752992000023,219,22,female,True,12677,12681,False,False,inspiration,inspiration
504,0.3185596497872488,25,down,down,0.4829600999946706,0.32872500804346955,,experiment,cRDM,2.0,,,,1268.791907100007,219,22,female,True,12687,12692,False,False,expiration,expiration
505,0.3185596497872488,25,down,up,0.31714639998972416,1.3492155254495408,,experiment,cRDM,2.0,,,,1270.875185300014,219,22,female,True,12708,12711,False,False,inspiration,inspiration
506,0.3185596497872488,25,up,up,0.3338828000123613,0.7224193216181576,,experiment,cRDM,2.0,,,,1272.2917839000004,219,22,female,True,12722,12725,False,False,expiration,expiration
507,0.3185596497872488,25,down,down,0.3671651000040583,0.4893774210143526,,experiment,cRDM,2.0,,,,1273.4584387000068,219,22,female,True,12734,12738,False,False,inspiration,inspiration
508,0.3185596497872488,25,up,up,0.4195280999992974,1.9213892512878612,,experiment,cRDM,2.0,,,,1276.0583331000234,219,22,female,True,12760,12764,False,False,expiration,expiration
509,0.3185596497872488,25,up,up,0.417052100005094,1.5778251172363018,,experiment,cRDM,2.0,,,,1278.308250000002,219,22,female,True,12783,12787,False,False,inspiration,peak
510,0.3185596497872488,25,down,down,0.3504905999870971,1.2585305998684952,,experiment,cRDM,2.0,,,,1280.2414984000204,219,22,female,True,12802,12806,False,False,expiration,expiration
511,0.3185596497872488,25,down,up,0.6545008000102825,1.459454492746698,,experiment,cRDM,2.0,,,,1282.3913879000174,219,22,female,True,12823,12830,False,False,inspiration,expiration
512,0.3185596497872488,25,down,up,0.38383050000993535,1.6504821472040176,,experiment,cRDM,2.0,,,,1284.9579866000274,219,22,female,True,12849,12853,False,False,expiration,inspiration
513,0.3185596497872488,25,down,down,0.5699224999989383,1.960743709346956,,experiment,cRDM,2.0,,,,1287.6079025000215,219,22,female,True,12876,12882,False,False,expiration,expiration
514,0.3185596497872488,25,down,down,0.622047399985604,1.6172381722295457,,experiment,cRDM,2.0,,,,1290.057838400011,219,22,female,True,12900,12906,False,False,expiration,inspiration
515,0.3185596497872488,25,down,up,0.3504296000173781,0.40103812330511457,,experiment,cRDM,2.0,,,,1291.3411588000015,219,22,female,True,12913,12917,False,False,expiration,expiration
516,0.3185596497872488,25,up,up,0.4169888999895193,1.672403594084244,,experiment,cRDM,2.0,,,,1293.691007800022,219,22,female,True,12936,12940,False,False,inspiration,inspiration
517,0.3185596497872488,25,up,up,0.3837862000218593,1.1134552878672384,,experiment,cRDM,2.0,,,,1295.4742963000024,219,22,female,True,12954,12958,False,False,expiration,trough
518,0.3185596497872488,25,up,up,0.5746268999937456,1.625777117554788,,experiment,cRDM,2.0,,,,1297.7741990000068,219,22,female,True,12977,12983,False,False,inspiration,expiration
519,0.3185596497872488,25,up,up,0.6654759999946691,1.4443347229178278,,experiment,cRDM,2.0,,,,1300.0574603000132,219,22,female,True,13000,13007,False,False,inspiration,inspiration
520,0.3185596497872488,25,down,down,0.4575216000084765,1.7800107734866508,,experiment,cRDM,2.0,,,,1302.7573427000025,219,22,female,True,13027,13032,False,False,expiration,expiration
521,0.3185596497872488,25,up,up,0.4002246999880299,1.164463127694184,,experiment,cRDM,2.0,,,,1304.640661100013,219,22,female,True,13046,13050,False,False,inspiration,inspiration
522,0.3185596497872488,25,up,up,0.4402744999970309,1.7645776004788751,,experiment,cRDM,2.0,,,,1307.0905053000024,219,22,female,True,13070,13074,False,False,expiration,trough
523,0.3185596497872488,25,down,down,0.4680323999782559,0.7267473564275614,,experiment,cRDM,2.0,,,,1308.523791500018,219,22,female,True,13085,13090,False,False,inspiration,inspiration
524,0.3185596497872488,25,up,up,0.426647000014782,0.7995223291959436,,experiment,cRDM,2.0,,,,1310.0571420000051,219,22,female,True,13100,13104,False,False,expiration,expiration
525,0.3185596497872488,25,down,down,0.367293699993752,1.5404913140383831,,experiment,cRDM,2.0,,,,1312.290330400021,219,22,female,True,13122,13126,False,False,inspiration,inspiration
526,0.3185596497872488,25,down,down,0.4943112000182737,1.4996214153530156,,experiment,cRDM,2.0,,,,1314.4735775000008,219,22,female,True,13144,13149,False,False,expiration,expiration
527,0.3185596497872488,25,up,down,0.3171220999793149,1.229200098322473,,experiment,cRDM,2.0,,,,1316.4568465000193,219,22,female,True,13164,13167,False,False,inspiration,expiration
528,0.3185596497872488,25,up,up,0.3838480000267737,0.6294666013555312,,experiment,cRDM,2.0,,,,1317.7567872000218,219,22,female,True,13177,13181,False,False,expiration,expiration
529,0.3185596497872488,25,down,down,0.4169750000000931,0.9161755625138792,,experiment,cRDM,2.0,,,,1319.3400995000266,219,22,female,True,13193,13197,False,False,inspiration,inspiration
530,0.3185596497872488,25,up,up,0.35049890002119355,1.1130140865025482,,experiment,cRDM,2.0,,,,1321.1400202000225,219,22,female,True,13211,13215,False,False,expiration,expiration
531,0.3185596497872488,25,down,down,0.3504099000128917,0.6062079040356108,,experiment,cRDM,2.0,,,,1322.440014700027,219,22,female,True,13224,13228,False,False,inspiration,inspiration
532,0.3185596497872488,25,down,up,0.4942700999963563,0.605407438803051,,experiment,cRDM,2.0,,,,1323.7235508000012,219,22,female,True,13237,13242,False,False,expiration,expiration
533,0.3185596497872488,25,down,down,0.4170387999911327,1.9368996208629081,,experiment,cRDM,2.0,,,,1326.42313130002,219,22,female,True,13264,13268,False,False,inspiration,expiration
534,0.3185596497872488,25,up,up,0.5111230000038631,0.7952533865120106,,experiment,cRDM,2.0,,,,1327.88974090002,219,22,female,True,13278,13283,False,False,expiration,expiration
