,stimLvl,stimTime,rand,response,rt,precedingITI,trialNumber,trialType,stimuli,block,estIntens,estThres,estSlope,trialStart,subject,age,gender,headRest,onset,responsI,manBadOnset,manBadRespons,onset_phase,respons_phase
0,0.9,100,down,,,0.4554036519619278,,introTrial,cRDM,,,,,180.42527939996216,220,23,male,True,1803,0,False,False,inspiration,0
1,150.0,100,F,up,1.4667821999173611,1.6074179323578806,,introTrial,emotion,,,,,185.99174909992146,220,23,male,True,1859,1874,False,False,expiration,trough
2,200.0,25,F,up,0.9837358999066056,1.4176310169747888,,tutorial,emotion,,,,,277.78838089993224,220,23,male,True,2777,2787,False,False,inspiration,inspiration
3,200.0,25,M,up,0.7701415000483394,1.5163972038020217,,tutorial,emotion,,,,,280.57188099995255,220,23,male,True,2805,2813,False,False,inspiration,peak
4,200.0,25,M,up,0.43087190005462617,1.6961424590679106,,tutorial,emotion,,,,,283.3381829999853,220,23,male,True,2832,2836,False,False,expiration,expiration
5,0.0,25,F,down,0.5066569000482559,1.840015521563236,,tutorial,emotion,,,,,285.9214094999479,220,23,male,True,2858,2863,False,False,expiration,expiration
6,0.0,25,M,down,0.466049800044857,0.7898086759116133,,tutorial,emotion,,,,,287.48800889996346,220,23,male,True,2874,2879,False,False,expiration,inspiration
7,200.0,25,M,up,0.5228550999891013,1.5354202439461428,,tutorial,emotion,,,,,289.77117690001614,220,23,male,True,2897,2902,False,False,expiration,expiration
8,0.0,25,F,down,0.4702011999906972,1.5153792415719083,,tutorial,emotion,,,,,292.0878611999797,220,23,male,True,2920,2925,False,False,inspiration,peak
9,200.0,25,F,up,0.5352133000269532,1.5946987698244959,,tutorial,emotion,,,,,294.4377571999794,220,23,male,True,2943,2948,False,False,inspiration,inspiration
10,0.0,25,M,down,0.5259404999669641,0.8624324307226663,,tutorial,emotion,,,,,296.12104579992587,220,23,male,True,2960,2965,False,False,expiration,expiration
11,0.0,25,F,down,0.5047183000715451,0.5330035579997124,,tutorial,emotion,,,,,297.4543144999771,220,23,male,True,2973,2978,False,False,expiration,expiration
12,0.9,25,up,up,0.4546233000000939,1.1748685706608055,,tutorial,cRDM,,,,,305.88737759995274,220,23,male,True,3058,3063,False,False,inspiration,inspiration
13,0.9,25,up,up,0.3838309000711888,0.8077216449218325,,tutorial,cRDM,,,,,307.42062949994585,220,23,male,True,3073,3077,False,False,peak,expiration
14,0.9,25,down,down,0.3843537999782711,1.5719503338665086,,tutorial,cRDM,,,,,309.6872210999718,220,23,male,True,3096,3100,False,False,inspiration,inspiration
15,0.9,25,down,up,0.3672633999958633,1.096745258269009,,tutorial,cRDM,,,,,311.47035119996866,220,23,male,True,3114,3118,False,False,expiration,expiration
16,0.9,25,up,up,0.6092036999762058,0.4359974644763112,,tutorial,cRDM,,,,,312.60376550001087,220,23,male,True,3125,3131,False,False,expiration,inspiration
17,0.9,25,down,down,0.3172093000030145,1.8809849611435576,,tutorial,cRDM,,,,,315.3703123999294,220,23,male,True,3153,3156,False,False,expiration,expiration
18,0.9,25,up,up,0.4002473000437021,0.7594974683342182,,tutorial,cRDM,,,,,316.82028089999216,220,23,male,True,3167,3171,False,False,inspiration,inspiration
19,0.9,25,up,down,0.33380259992554784,1.4899712998736667,,tutorial,cRDM,,,,,319.003571899957,220,23,male,True,3189,3192,False,False,expiration,inspiration
20,0.9,25,down,down,0.5508365000132471,0.5238760174462668,,tutorial,cRDM,,,,,320.2201480999356,220,23,male,True,3201,3207,False,False,inspiration,expiration
21,0.9,25,down,down,0.4509334999602288,1.157158694419708,,tutorial,cRDM,,,,,322.2200850999216,220,23,male,True,3221,3226,False,False,expiration,inspiration
22,100.0,25,M,down,0.5474967999616638,0.7174275464722031,,psi_staircase_training,emotion,,100.0,100.0,25.00050000000001,328.73650419991463,220,23,male,True,3286,3291,False,False,expiration,inspiration
23,145.0,25,M,up,0.9672245999099688,1.9697702510963773,,psi_staircase_training,emotion,,145.25719053245996,145.25719053245996,25.000500000000283,331.61972929991316,220,23,male,True,3315,3325,False,False,expiration,inspiration
24,121.0,25,F,up,0.6593393000075594,0.9029286173452632,,psi_staircase_training,emotion,,120.36392901436103,120.36392901436103,25.71326925488699,333.81966959999414,220,23,male,True,3337,3344,False,False,peak,expiration
25,97.0,25,F,down,0.6620766000123695,0.385189301542878,,psi_staircase_training,emotion,,102.38876106084959,102.38876106084959,26.14633372628729,335.20295589999296,220,23,male,True,3351,3358,False,False,expiration,inspiration
26,113.0,25,M,up,0.804882499971427,1.1223055280900143,,psi_staircase_training,emotion,,114.01123255420406,114.01123255420406,23.003056417783352,337.3361873999238,220,23,male,True,3372,3380,False,False,expiration,expiration
27,105.0,25,F,up,0.6361679000547156,0.9645116870913496,,psi_staircase_training,emotion,,104.94359593877377,104.94359593877377,22.15060322358215,339.4527981999563,220,23,male,True,3393,3399,False,False,inspiration,inspiration
28,92.0,25,M,down,0.5863434999482706,1.2704912518146876,,psi_staircase_training,emotion,,97.32104229908207,97.32104229908207,23.933073614490553,341.70271609991323,220,23,male,True,3416,3422,False,False,expiration,expiration
29,95.0,25,F,up,1.1840852999594065,1.2153893754092255,,psi_staircase_training,emotion,,102.844886035729,102.844886035729,20.021669804154055,343.83595179999253,220,23,male,True,3437,3449,False,False,inspiration,expiration
30,81.0,25,F,down,0.7395159000298008,0.9455518442999752,,psi_staircase_training,emotion,,95.57883151207287,95.57883151207287,28.090706623096928,346.3025143999839,220,23,male,True,3462,3469,False,False,expiration,inspiration
31,83.0,25,M,down,1.0225315999705344,1.6145732018303134,,psi_staircase_training,emotion,,99.20184352462236,99.20184352462236,25.663245155996737,349.0024512999225,220,23,male,True,3489,3499,False,False,expiration,expiration
32,115.0,25,F,up,1.1773134999675676,0.9606381674290032,,psi_staircase_training,emotion,,101.58352414446233,101.58352414446233,23.53429578573776,351.3356842999346,220,23,male,True,3512,3524,False,False,inspiration,expiration
33,85.0,25,F,down,0.7207342999754474,1.3505408410238493,,psi_staircase_training,emotion,,99.41701907922727,99.41701907922727,21.36153675047028,354.2022568999091,220,23,male,True,3541,3548,False,False,expiration,inspiration
34,113.0,25,F,up,0.8485104999272153,0.503579155380955,,psi_staircase_training,emotion,,101.02810206498393,101.02810206498393,19.258840086771738,355.7854283999186,220,23,male,True,3557,3565,False,False,inspiration,expiration
35,87.0,25,M,down,0.9818873000331224,1.5658336423587302,,psi_staircase_training,emotion,,99.52333604598276,99.52333604598276,17.196183577719978,358.55209849996027,220,23,male,True,3584,3594,False,False,expiration,inspiration
36,111.0,25,M,up,1.2513389000669122,0.3937001331655927,,psi_staircase_training,emotion,,100.62184065994879,100.62184065994879,15.338777012330075,360.26867649995256,220,23,male,True,3601,3614,False,False,inspiration,expiration
37,109.0,25,F,up,0.9110924999695272,1.6863200325598895,,psi_staircase_training,emotion,,99.55757885021282,99.55757885021282,13.588305818520979,363.551908699912,220,23,male,True,3634,3643,False,False,inspiration,peak
38,90.0,25,F,down,1.239555999985896,1.9078942359946036,,psi_staircase_training,emotion,,98.76896377859664,98.76896377859664,12.15696349910752,366.71843389992137,220,23,male,True,3666,3678,False,False,inspiration,expiration
39,102.0,25,M,up,0.8753502999898046,1.535423670882262,,psi_staircase_training,emotion,,99.60646589475138,99.60646589475138,10.721685950792683,369.8516749999253,220,23,male,True,3697,3706,False,False,trough,inspiration
40,91.0,25,M,up,0.8543977999361232,0.4247733738133808,,psi_staircase_training,emotion,,98.39118830814668,98.39118830814668,10.216071949842325,371.50161009992013,220,23,male,True,3714,3723,False,False,expiration,expiration
41,83.0,25,M,down,0.6635139000136405,1.9548656785376173,,psi_staircase_training,emotion,,95.91805305868833,95.91805305868833,14.68373588137721,374.6514770999784,220,23,male,True,3745,3752,False,False,inspiration,expiration
42,84.0,25,M,down,0.6791960999835283,1.8162441513125291,,psi_staircase_training,emotion,,96.61029822552686,96.61029822552686,13.22647135497276,377.4847441000165,220,23,male,True,3774,3781,False,False,expiration,inspiration
43,108.0,25,F,up,0.6983515999745578,0.6301845065280731,,psi_staircase_training,emotion,,97.0928497789444,97.0928497789444,12.07279989330401,379.1346750999801,220,23,male,True,3790,3797,False,False,inspiration,expiration
44,106.0,25,F,up,1.1148475999943912,1.4619587004550711,,psi_staircase_training,emotion,,96.62943332374,96.62943332374,11.090650057936724,381.6512129999464,220,23,male,True,3815,3826,False,False,expiration,inspiration
45,87.0,25,F,down,0.9571461000014096,1.1482765787145228,,psi_staircase_training,emotion,,96.21790025846693,96.21790025846693,10.274734272653001,384.26782529999036,220,23,male,True,3842,3852,False,False,expiration,trough
46,105.0,25,M,down,1.011683899909258,1.7035457034899382,,psi_staircase_training,emotion,,96.63620916784424,96.63620916784424,9.490061756612423,387.28435969993006,220,23,male,True,3872,3882,False,False,expiration,expiration
47,111.0,25,M,up,0.7873530000215396,0.9519171166909496,,psi_staircase_training,emotion,,98.26670017108677,98.26670017108677,12.317597151633105,389.6176178000169,220,23,male,True,3895,3903,False,False,inspiration,expiration
48,86.0,25,F,down,0.9487920999526978,0.3343296991252716,,psi_staircase_training,emotion,,97.95976071417722,97.95976071417722,11.536337290864086,391.0842237999896,220,23,male,True,3910,3919,False,False,expiration,expiration
49,109.0,25,F,up,1.2786926000844687,0.7798132008844653,,psi_staircase_training,emotion,,98.28644012697569,98.28644012697569,10.82006881282373,393.16732829995453,220,23,male,True,3931,3944,False,False,inspiration,expiration
50,88.0,25,M,down,1.0662628000136465,0.6385918764092726,,psi_staircase_training,emotion,,97.99683801505468,97.99683801505468,10.227394380096925,395.45070809999015,220,23,male,True,3953,3964,False,False,expiration,trough
51,108.0,25,M,up,1.2450404999544844,1.5633325080450722,,psi_staircase_training,emotion,,98.30149925428894,98.30149925428894,9.684793195398402,398.4339662999846,220,23,male,True,3983,3995,False,False,expiration,expiration
52,0.29,25,up,up,0.6392772999824956,1.0430961781453232,,psi_staircase_training,cRDM,,0.25,0.25693124029946324,0.10500000000000002,404.4837452999782,220,23,male,True,4044,4050,False,False,inspiration,expiration
53,0.25,25,up,up,0.5313193000620231,0.8354454161233269,,psi_staircase_training,cRDM,,0.21910266653183127,0.2260132002683493,0.10468632033873933,406.23366749996796,220,23,male,True,4061,4066,False,False,expiration,expiration
54,0.21,25,down,down,0.5707569000078365,1.14771811655177,,psi_staircase_training,cRDM,,0.1900540959403307,0.19684979615540016,0.10294672984249993,408.2002519000088,220,23,male,True,4081,4087,False,False,inspiration,expiration
55,0.18,25,down,up,0.4003444999689236,1.6204364200894683,,psi_staircase_training,cRDM,,0.1635257589279754,0.1701521334256793,0.100381647756865,410.6668005000101,220,23,male,True,4106,4110,False,False,expiration,expiration
56,0.28,25,up,up,0.7515324000269175,1.1646306354827158,,psi_staircase_training,cRDM,,0.2462894156509761,0.25367687443104303,0.11191116429293203,412.5334322999697,220,23,male,True,4124,4132,False,False,inspiration,expiration
57,0.26,25,down,down,0.6383099999511614,0.5554427503985875,,psi_staircase_training,cRDM,,0.2240209245171441,0.23127202108978026,0.10984543995477343,414.11671560001565,220,23,male,True,4140,4146,False,False,expiration,expiration
58,0.23,25,up,up,0.8670462000882253,0.3128492968538452,,psi_staircase_training,cRDM,,0.2047781477371872,0.21182460465655809,0.10674539397966608,415.34998149995226,220,23,male,True,4152,4161,False,False,inspiration,inspiration
59,0.23,25,down,down,0.6600836999714375,0.7096853568662054,,psi_staircase_training,cRDM,,0.1874201716315257,0.19431844658589745,0.10450061445209473,417.19991969992407,220,23,male,True,4171,4178,False,False,expiration,expiration
60,0.21,25,down,up,1.035180400009267,1.6746118442895677,,psi_staircase_training,cRDM,,0.17345971586379055,0.18012712878884973,0.10100333084475896,419.7998248999937,220,23,male,True,4197,4207,False,False,inspiration,expiration
61,0.26,25,up,up,0.7105333000654355,0.3114798164801271,,psi_staircase_training,cRDM,,0.2258097884912943,0.2328763215733389,0.1070495238308419,421.4164293999784,220,23,male,True,4213,4220,False,False,expiration,expiration
62,0.25,25,down,down,0.5579593000002205,0.729730547908279,,psi_staircase_training,cRDM,,0.21245083561372907,0.21918585513658664,0.10202748993636902,423.1330407999922,220,23,male,True,4230,4236,False,False,inspiration,peak
63,0.25,25,down,down,0.8098255000077188,1.3984536569562542,,psi_staircase_training,cRDM,,0.20179399377515586,0.2081851447054985,0.09681829206497787,425.36617749999283,220,23,male,True,4253,4261,False,False,expiration,trough
64,0.23,25,down,down,0.9200729000149296,0.6474229361481333,,psi_staircase_training,cRDM,,0.1938748209560492,0.1999007112534839,0.0912850303688999,427.0829239999875,220,23,male,True,4270,4279,False,False,inspiration,expiration
65,0.2,25,up,up,0.6555609999923036,0.5182120433037134,,psi_staircase_training,cRDM,,0.18598634501740344,0.1918446053558967,0.08874563699507391,428.7995054000057,220,23,male,True,4287,4294,False,False,expiration,expiration
66,0.19,25,up,up,0.6862125999759883,0.44620815989086265,,psi_staircase_training,cRDM,,0.17355813593635314,0.18001878386925732,0.09787108852761432,430.1828056999948,220,23,male,True,4301,4308,False,False,expiration,inspiration
67,0.19,25,down,down,0.6746584000065923,1.414925635291433,,psi_staircase_training,cRDM,,0.1601739738030281,0.16729058465241847,0.10780814210753192,432.5493684000103,220,23,male,True,4324,4331,False,False,expiration,expiration
68,0.18,25,down,down,1.2277409000089392,1.0523980585531705,,psi_staircase_training,cRDM,,0.14736834202220764,0.15498962800213134,0.1154533666873386,434.5492754000006,220,23,male,True,4344,4356,False,False,expiration,inspiration
69,0.17,25,up,up,0.5722228999948129,0.5235914954559551,,psi_staircase_training,cRDM,,0.1349669468861356,0.14302127503707335,0.1220134376114408,436.5658155999845,220,23,male,True,4365,4371,False,False,expiration,expiration
70,0.17,25,up,up,0.6021400999743491,1.462864412348336,,psi_staircase_training,cRDM,,0.12343077988634525,0.13180990461228442,0.1269337172297641,438.86578200000804,220,23,male,True,4388,4394,False,False,inspiration,peak
71,0.16,25,up,up,0.6739765999373049,0.8100873810417357,,psi_staircase_training,cRDM,,0.11339787645950287,0.121952962690644,0.12959932356397744,440.5659917999292,220,23,male,True,4405,4412,False,False,expiration,expiration
72,0.15,25,up,up,0.6690378999337554,1.2492161947949678,,psi_staircase_training,cRDM,,0.10442362781373246,0.11306128567253795,0.13085018495821168,442.74896180001093,220,23,male,True,4426,4433,False,False,inspiration,peak
73,0.13,25,down,down,0.6297736000269651,1.1393596342742822,,psi_staircase_training,cRDM,,0.09643230002335958,0.1050700192977266,0.13085111533050858,444.83223619998904,220,23,male,True,4447,4453,False,False,expiration,expiration
74,0.11,25,down,up,0.7284956000512466,1.8729366444811342,,psi_staircase_training,cRDM,,0.08894389461547521,0.09753817078784753,0.13019300429808675,447.61549649992963,220,23,male,True,4475,4482,False,False,expiration,expiration
75,0.16,25,down,down,0.6816348000429571,1.1568116341957082,,psi_staircase_training,cRDM,,0.11280292315299655,0.12162720693406424,0.13367734445505494,449.76534199994063,220,23,male,True,4497,4504,False,False,expiration,inspiration
76,0.16,25,up,up,0.6933484999462962,1.680771598853781,,psi_staircase_training,cRDM,,0.10615279040127218,0.1149767188970532,0.13367196230792264,452.39863579999655,220,23,male,True,4523,4530,False,False,expiration,expiration
77,0.16,25,up,up,0.6654368999879807,0.5853298991420135,,psi_staircase_training,cRDM,,0.10051184047225184,0.10926923106786383,0.13266399270711565,453.9485772999469,220,23,male,True,4538,4545,False,False,expiration,inspiration
78,0.16,25,down,down,0.6567976000951603,0.3096785706166819,,psi_staircase_training,cRDM,,0.09574502510514173,0.10438575295158224,0.13089669159883427,455.21517889993277,220,23,male,True,4551,4558,False,False,inspiration,expiration
79,0.1,25,down,up,0.6015804999042302,1.6965084484509836,,psi_staircase_training,cRDM,,0.09172986692829743,0.10021578734115467,0.12855154414701328,457.8484169999138,220,23,male,True,4577,4583,False,False,inspiration,inspiration
80,0.16,25,up,up,0.6279681000160053,0.8920370110045488,,psi_staircase_training,cRDM,,0.1089304377146583,0.1167174731929814,0.117964273333193,459.61502749996725,220,23,male,True,4595,4601,False,False,expiration,expiration
81,0.16,25,up,up,0.8770329999970272,0.3404562746691125,,psi_staircase_training,cRDM,,0.10545089774933523,0.11299779965599292,0.11432653694901013,460.8649800999556,220,23,male,True,4608,4617,False,False,expiration,inspiration
82,100.0,25,M,up,0.703039399930276,1.9460846487049952,,psi_staircase,emotion,,100.0,100.0,25.00050000000001,470.24797019991087,220,23,male,True,4701,4708,False,False,expiration,expiration
83,55.0,25,M,down,0.5807284000329673,0.6770297617772592,,psi_staircase,emotion,,54.742809467541896,54.742809467541896,25.00050000000011,471.98123539995873,220,23,male,True,4719,4725,False,False,expiration,inspiration
84,79.0,25,F,down,0.6271428000181913,0.7287762151507288,,psi_staircase,emotion,,79.636070985635,79.636070985635,25.71326925488641,473.64785919990385,220,23,male,True,4735,4741,False,False,inspiration,expiration
85,103.0,25,F,up,1.1043318000156432,1.334371839657608,,psi_staircase,emotion,,97.61123893914808,97.61123893914808,26.1463337262867,475.9646978999954,220,23,male,True,4759,4770,False,False,inspiration,expiration
86,87.0,25,M,down,0.9623626999091356,1.853870543946472,,psi_staircase,emotion,,85.98876744579668,85.98876744579668,23.003056417783494,479.24763459991664,220,23,male,True,4791,4801,False,False,inspiration,peak
87,95.0,25,F,up,0.7540519000031054,0.6264507831589121,,psi_staircase,emotion,,95.05640406123078,95.05640406123078,22.150603223582724,481.18093159992713,220,23,male,True,4811,4819,False,False,expiration,expiration
88,84.0,25,M,down,1.3965075999731198,1.6241870592577492,,psi_staircase,emotion,,88.41622646561945,88.41622646561945,20.597853251064073,483.89747669990174,220,23,male,True,4838,4852,False,False,inspiration,expiration
89,92.0,25,F,down,1.7816478000022469,0.9063689399679259,,psi_staircase,emotion,,92.48012886422012,92.48012886422012,17.547034846052448,486.54739069996873,220,23,male,True,4864,4882,False,False,inspiration,expiration
90,103.0,25,F,up,1.2034703000681477,1.419631651433371,,psi_staircase,emotion,,96.8905074648852,96.8905074648852,18.870841324428707,490.08053849998396,220,23,male,True,4900,4912,False,False,inspiration,expiration
91,99.0,25,M,down,1.1927665000548586,0.8715918278149983,,psi_staircase,emotion,,93.80492701211605,93.80492701211605,15.11241007381393,492.49717009998864,220,23,male,True,4924,4936,False,False,expiration,inspiration
92,111.0,25,F,up,0.8913031000411138,1.628276315611386,,psi_staircase,emotion,,98.53990789904086,98.53990789904086,22.93176653364061,495.66369339998346,220,23,male,True,4955,4964,False,False,expiration,expiration
93,110.0,25,F,up,0.8233608999289572,0.8102893115627967,,psi_staircase,emotion,,96.18367495322998,96.18367495322998,20.111891313789705,497.7136472999118,220,23,male,True,4976,4984,False,False,inspiration,expiration
94,84.0,25,F,down,0.7924617000389844,1.5221904393533847,,psi_staircase,emotion,,94.7542385723665,94.7542385723665,17.745317524562388,500.41354219999636,220,23,male,True,5003,5011,False,False,expiration,inspiration
95,107.0,25,M,up,0.8311916999518871,0.4960065094630779,,psi_staircase,emotion,,96.1036714210283,96.1036714210283,15.45688419797304,502.046799600008,220,23,male,True,5019,5027,False,False,inspiration,expiration
96,86.0,25,M,down,0.7546615999890491,1.73894226839709,,psi_staircase,emotion,,95.15776041059868,95.15776041059868,13.436067852039065,504.9633293999359,220,23,male,True,5049,5057,False,False,inspiration,inspiration
97,88.0,25,F,up,1.0130752000259236,1.4541551606184284,,psi_staircase,emotion,,96.06197962229376,96.06197962229376,11.605461041343355,507.529941799934,220,23,male,True,5074,5084,False,False,expiration,trough
98,79.0,25,F,down,0.9484445999842136,0.409878259202804,,psi_staircase,emotion,,93.46477689322302,93.46477689322302,17.438797906717575,509.29656699998304,220,23,male,True,5092,5101,False,False,inspiration,expiration
99,108.0,25,M,up,1.0380814999807626,0.5891902490197564,,psi_staircase,emotion,,94.2285195424888,94.2285195424888,15.706446408988946,511.1629110999638,220,23,male,True,5111,5121,False,False,expiration,inspiration
100,81.0,25,M,down,0.7709835999412462,1.5500440294365936,,psi_staircase,emotion,,93.55859521428793,93.55859521428793,14.134192250698087,514.1129724999191,220,23,male,True,5140,5148,False,False,expiration,expiration
101,106.0,25,M,up,0.8046531999716535,0.8600885136186507,,psi_staircase,emotion,,94.11635640534588,94.11635640534588,12.775692810185847,516.0963029999984,220,23,male,True,5160,5168,False,False,inspiration,peak
102,83.0,25,M,down,0.7840960000175983,0.3265992447497539,,psi_staircase,emotion,,93.61781341603005,93.61781341603005,11.591764044024195,517.5629047999391,220,23,male,True,5175,5183,False,False,expiration,expiration
103,103.0,25,F,up,0.7451429999200627,0.9738386973876808,,psi_staircase,emotion,,94.056695992753,94.056695992753,10.59070021807084,519.6628606999293,220,23,male,True,5196,5203,False,False,inspiration,inspiration
104,85.0,25,F,down,0.8892228999175131,1.0551957214629428,,psi_staircase,emotion,,93.60529523499918,93.60529523499918,9.722158280544507,521.8127644999186,220,23,male,True,5217,5226,False,False,expiration,expiration
105,101.0,25,F,up,1.5679977000690997,1.8560530787685048,,psi_staircase,emotion,,93.99192502062613,93.99192502062613,8.996269745854807,524.8960026999703,220,23,male,True,5248,5264,False,False,expiration,expiration
106,89.0,25,M,down,0.6608140000607818,1.6142469881118715,,psi_staircase,emotion,,93.5669331581666,93.5669331581666,8.36936752589276,528.429181399988,220,23,male,True,5283,5290,False,False,inspiration,expiration
107,98.0,25,M,down,0.7201957999495789,0.6611792237529621,,psi_staircase,emotion,,94.09050990146244,94.09050990146244,7.893781062694843,530.0958049999317,220,23,male,True,5300,5307,False,False,expiration,trough
108,104.0,25,F,down,1.4848998000379652,0.8590586281005945,,psi_staircase,emotion,,95.34066281669372,95.34066281669372,8.882891188804926,532.0290647000074,220,23,male,True,5319,5334,False,False,inspiration,expiration
109,110.0,25,F,up,0.5947223999537528,0.6854702955602281,,psi_staircase,emotion,,96.80478654817587,96.80478654817587,11.974982065656715,534.5622756999219,220,23,male,True,5345,5351,False,False,inspiration,inspiration
110,109.0,25,M,down,0.7362342999549583,1.4937726393421171,,psi_staircase,emotion,,96.49653916521784,96.49653916521784,11.14247904523799,536.9787659000141,220,23,male,True,5369,5376,False,False,expiration,trough
111,115.0,25,M,up,0.6691855000099167,1.4224789147215111,,psi_staircase,emotion,,98.14325476340069,98.14325476340069,15.749166322710554,539.4787444999673,220,23,male,True,5394,5401,False,False,expiration,expiration
112,114.0,25,F,up,0.6363060000585392,1.1298474963338532,,psi_staircase,emotion,,97.77462329985651,97.77462329985651,14.702757664097351,541.6286833999911,220,23,male,True,5415,5421,False,False,inspiration,inspiration
113,82.0,25,M,down,0.7367452000034973,1.6320490287772018,,psi_staircase,emotion,,97.48912617140856,97.48912617140856,13.828410013506984,544.2452527999412,220,23,male,True,5441,5448,False,False,expiration,inspiration
114,113.0,25,F,up,1.3121370999142528,1.1693286500630602,,psi_staircase,emotion,,97.73373565385627,97.73373565385627,13.088787409364276,546.5118546999292,220,23,male,True,5464,5477,False,False,expiration,expiration
115,84.0,25,M,down,0.6395623000571504,0.6525526432699187,,psi_staircase,emotion,,97.50605736129678,97.50605736129678,12.430628439963579,548.8284124999774,220,23,male,True,5487,5493,False,False,inspiration,inspiration
116,111.0,25,F,up,0.8282471999991685,0.8892743860415777,,psi_staircase,emotion,,97.73839934101588,97.73839934101588,11.849708423505454,550.7117157999892,220,23,male,True,5506,5514,False,False,expiration,expiration
117,86.0,25,M,down,0.7405331999761984,1.9713473799992833,,psi_staircase,emotion,,97.52775620697224,97.52775620697224,11.33612834307374,553.861453999998,220,23,male,True,5538,5545,False,False,expiration,expiration
118,87.0,25,F,down,1.105803299928084,0.3568122692212579,,psi_staircase,emotion,,97.76190433348795,97.76190433348795,10.871807211605361,555.3281765999272,220,23,male,True,5552,5563,False,False,expiration,expiration
119,109.0,25,M,up,0.9166948000201957,1.6782466903095379,,psi_staircase,emotion,,97.98197853832346,97.98197853832346,10.4661856539652,558.4612925999099,220,23,male,True,5584,5593,False,False,expiration,expiration
120,88.0,25,M,down,0.6601087000453845,1.3513965066171743,,psi_staircase,emotion,,97.77314094387937,97.77314094387937,10.087726096708208,561.0778870999347,220,23,male,True,5610,5617,False,False,inspiration,inspiration
121,108.0,25,F,up,0.8217264000559226,1.1364018616293563,,psi_staircase,emotion,,97.98797020202885,97.98797020202885,9.755779459574274,563.2112376999577,220,23,male,True,5631,5639,False,False,expiration,expiration
122,89.0,25,F,down,0.7892182000214234,1.9915128820258103,,psi_staircase,emotion,,97.790728694507,97.790728694507,9.447333801342939,566.3777451999485,220,23,male,True,5663,5671,False,False,expiration,expiration
123,107.0,25,F,up,1.786947299959138,1.9153974439544028,,psi_staircase,emotion,,98.00539419895428,98.00539419895428,9.167098712865318,569.4110391999129,220,23,male,True,5693,5711,False,False,inspiration,expiration
124,90.0,25,M,down,0.8738051999825984,1.2530664502831543,,psi_staircase,emotion,,97.81222410227213,97.81222410227213,8.90737677285184,572.7942065999378,220,23,male,True,5727,5736,False,False,inspiration,peak
125,90.0,25,M,down,1.996146999998018,0.7969471656237765,,psi_staircase,emotion,,98.03077565008057,98.03077565008057,8.663668326042835,574.8108147999737,220,23,male,True,5747,5767,False,False,expiration,inspiration
126,106.0,25,F,up,0.9579745000228286,1.0518441532632874,,psi_staircase,emotion,,98.22566909476828,98.22566909476828,8.441323597943724,578.1940118999919,220,23,male,True,5781,5791,False,False,expiration,expiration
127,91.0,25,F,up,1.603362699970603,0.7698176921121682,,psi_staircase,emotion,,98.032022464217,98.032022464217,8.223927548870622,580.260632099933,220,23,male,True,5802,5818,False,False,trough,expiration
128,106.0,25,F,up,0.7718162999954075,1.2824450731661103,,psi_staircase,emotion,,97.21164330891924,97.21164330891924,9.03019914894858,583.4771746000042,220,23,male,True,5834,5842,False,False,expiration,expiration
129,105.0,25,M,up,1.1503378000343218,1.3682456166278971,,psi_staircase,emotion,,97.03799430738829,97.03799430738829,8.811788425794,585.9606457999907,220,23,male,True,5859,5871,False,False,inspiration,expiration
130,88.0,25,M,down,0.7524175000144169,1.2899740260486674,,psi_staircase,emotion,,96.8585182092492,96.8585182092492,8.610321012447002,588.760564199998,220,23,male,True,5887,5895,False,False,expiration,inspiration
131,105.0,25,M,up,0.8253635000437498,0.5563857648884853,,psi_staircase,emotion,,97.00861599772853,97.00861599772853,8.423498675910714,590.3935712999663,220,23,male,True,5903,5911,False,False,inspiration,expiration
132,0.29,25,up,up,0.6869272999465466,1.3655186165392366,,psi_staircase,cRDM,,0.25,0.25693124029946324,0.10500000000000002,604.0430661999852,220,23,male,True,6040,6047,False,False,inspiration,expiration
133,0.25,25,up,up,0.659641099977307,1.7179671460089483,,psi_staircase,cRDM,,0.21910266653183127,0.2260132002683493,0.10468632033873933,606.72629339993,220,23,male,True,6066,6073,False,False,inspiration,expiration
134,0.21,25,down,down,0.6607170000206679,0.9312249021536291,,psi_staircase,cRDM,,0.1900540959403307,0.19684979615540016,0.10294672984249993,608.5762393999612,220,23,male,True,6085,6092,False,False,expiration,expiration
135,0.18,25,down,down,0.5982215000549331,1.5533198276934974,,psi_staircase,cRDM,,0.1635257589279754,0.1701521334256793,0.100381647756865,611.0427999999374,220,23,male,True,6109,6115,False,False,inspiration,expiration
136,0.15,25,up,up,0.5915235000429675,0.8986463688820194,,psi_staircase,cRDM,,0.14018955742449365,0.14660133511875031,0.0971307628663642,612.8094120000022,220,23,male,True,6127,6133,False,False,expiration,expiration
137,0.13,25,down,down,0.8079928000224754,1.6256000661745376,,psi_staircase,cRDM,,0.11987606021454796,0.12605547676183335,0.09361076941961036,615.2760238999035,220,23,male,True,6152,6160,False,False,inspiration,expiration
138,0.11,25,up,up,0.980402300017886,1.7144042942137936,,psi_staircase,cRDM,,0.10257735236965487,0.10849103445698656,0.08958521019937955,618.0425605999773,220,23,male,True,6179,6189,False,False,expiration,inspiration
139,0.09,25,down,down,0.9745001000119372,1.4566002645272251,,psi_staircase,cRDM,,0.08784432595859408,0.09348182153209693,0.08540131486476357,620.7424572999589,220,23,male,True,6206,6216,False,False,expiration,expiration
140,0.08,25,down,down,0.7999353000195697,0.8217264693556268,,psi_staircase,cRDM,,0.07518520921180863,0.0805556301471181,0.08135545354720439,622.8090366999387,220,23,male,True,6227,6235,False,False,inspiration,inspiration
141,0.06,25,up,down,0.9247432000702248,1.8601142017562116,,psi_staircase,cRDM,,0.06447903911685147,0.06954222446062751,0.0767012018235253,625.7422280999599,220,23,male,True,6257,6266,False,False,expiration,trough
142,0.11,25,down,down,1.1201334999641404,1.3793642539907554,,psi_staircase,cRDM,,0.0948602595780939,0.10071627432598904,0.08871161898348927,628.3088444999885,220,23,male,True,6282,6293,False,False,expiration,expiration
143,0.1,25,down,down,0.900555899948813,0.8237485292750477,,psi_staircase,cRDM,,0.08505363728379163,0.09053308292944777,0.08300704750323673,630.5254308999283,220,23,male,True,6304,6313,False,False,inspiration,inspiration
144,0.1,25,down,down,1.2796213999390602,1.0771913001989974,,psi_staircase,cRDM,,0.07734387123035197,0.08244821182855559,0.0773246547018264,632.775338599924,220,23,male,True,6327,6340,False,False,expiration,inspiration
145,0.09,25,up,up,0.6793453000718728,1.2951790035903556,,psi_staircase,cRDM,,0.07162362637496901,0.07632158084494688,0.07116839094236507,635.608586999937,220,23,male,True,6355,6362,False,False,expiration,expiration
146,0.09,25,up,down,0.7897628000937402,0.8238457355619775,,psi_staircase,cRDM,,0.06694277573534929,0.0713045448116411,0.06607558434326745,637.3752068999456,220,23,male,True,6373,6381,False,False,expiration,inspiration
147,0.12,25,down,up,0.6758585999486968,0.3936941636557296,,psi_staircase,cRDM,,0.08690614095691714,0.09328552703748998,0.09664006866303827,638.8251323999139,220,23,male,True,6387,6394,False,False,inspiration,expiration
148,0.17,25,down,down,0.7419372000731528,1.4201670870699952,,psi_staircase,cRDM,,0.11784422333031735,0.12641965130069116,0.12990747658236212,641.1750347999622,220,23,male,True,6411,6418,False,False,trough,inspiration
149,0.15,25,up,up,0.6459526999387889,0.8872551444627209,,psi_staircase,cRDM,,0.10754407365634576,0.11592827711521475,0.1270106539589193,643.0750082000159,220,23,male,True,6430,6436,False,False,expiration,expiration
150,0.12,25,up,up,0.8220333999488503,0.6304231184248821,,psi_staircase,cRDM,,0.0988496932883884,0.10703990350938147,0.12407188844265968,644.6248981999232,220,23,male,True,6445,6453,False,False,inspiration,inspiration
151,0.12,25,up,up,0.8194465000415221,1.1680975837723884,,psi_staircase,cRDM,,0.09074786141683576,0.09886286516932806,0.12293260040020147,646.8914920999669,220,23,male,True,6468,6476,False,False,expiration,expiration
152,0.12,25,up,up,0.6925756999989972,0.6731824693077323,,psi_staircase,cRDM,,0.08402636958024122,0.09199364674505377,0.1206947192943372,648.6583591999953,220,23,male,True,6486,6493,False,False,inspiration,expiration
153,0.12,25,down,down,0.6402999000856653,1.9926448764442235,,psi_staircase,cRDM,,0.0785453664812129,0.0863085644318269,0.11760316330074325,651.6246855999342,220,23,male,True,6515,6521,False,False,trough,inspiration
154,0.12,25,down,down,1.3640496999723837,1.8903545522229304,,psi_staircase,cRDM,,0.07414355478725937,0.08166005279386679,0.11386595422970612,654.4078899999148,220,23,male,True,6543,6557,False,False,expiration,inspiration
155,0.12,25,down,down,0.7924529000883922,1.1876383672180386,,psi_staircase,cRDM,,0.07066427177602072,0.07790262607383314,0.10965240973237604,657.2244737999281,220,23,male,True,6571,6579,False,False,expiration,expiration
156,0.11,25,up,up,1.1245685999747366,1.3503599393642092,,psi_staircase,cRDM,,0.06796719530278887,0.07490494974864967,0.10509868152627658,659.6243539999705,220,23,male,True,6595,6606,False,False,inspiration,inspiration
157,0.07,25,up,down,0.9657948999665678,1.167639070496736,,psi_staircase,cRDM,,0.06541608960886666,0.07209345570431266,0.10115410947101686,662.1742402999663,220,23,male,True,6621,6631,False,False,expiration,inspiration
158,0.12,25,down,down,0.7080862000584602,0.7918873447839575,,psi_staircase,cRDM,,0.07799084497160129,0.08368866414944351,0.08631514531674242,664.1908607999794,220,23,male,True,6641,6648,False,False,expiration,expiration
159,0.11,25,down,down,0.7192637999542058,1.8808750975577309,,psi_staircase,cRDM,,0.07643054175884446,0.0817405817218775,0.08044075403959712,667.0577049999265,220,23,male,True,6670,6677,False,False,inspiration,expiration
160,0.11,25,up,down,1.175272399908863,0.6315740233867403,,psi_staircase,cRDM,,0.0748667000957011,0.07985384399864927,0.07554926494903208,668.6907164999284,220,23,male,True,6686,6698,False,False,expiration,inspiration
161,0.14,25,up,down,0.9050516999559476,1.5935609546437317,,psi_staircase,cRDM,,0.08170906162120699,0.08882244241734523,0.10775921066426647,671.7239180000033,220,23,male,True,6716,6725,False,False,expiration,expiration
162,0.15,25,down,down,0.795875999960117,0.8665588324999929,,psi_staircase,cRDM,,0.093832928805833,0.10314616275264904,0.1410843546271809,673.7571052999701,220,23,male,True,6737,6745,False,False,inspiration,inspiration
163,0.14,25,up,down,1.0381514000473544,0.4084351396297851,,psi_staircase,cRDM,,0.08916876075368417,0.09832600387501074,0.1387212802034503,675.2238033999456,220,23,male,True,6751,6761,False,False,expiration,expiration
164,0.21,25,down,down,0.746638200012967,1.4630850451530613,,psi_staircase,cRDM,,0.10745292352033699,0.11732037469404465,0.14948008270893925,677.9903449999401,220,23,male,True,6779,6786,False,False,inspiration,peak
165,0.2,25,up,up,0.6670780000276864,0.5670402984270908,,psi_staircase,cRDM,,0.10286511167562244,0.11260103276104046,0.1474875591960147,679.5568888999987,220,23,male,True,6795,6802,False,False,expiration,expiration
166,0.19,25,down,down,0.6734149999683723,1.1894138528134883,,psi_staircase,cRDM,,0.09878557530467323,0.108389868973872,0.14549356128137142,681.6735415000003,220,23,male,True,6816,6823,False,False,inspiration,peak
167,0.18,25,up,up,0.6448209999362007,1.4827344722217584,,psi_staircase,cRDM,,0.09509062988982624,0.10456505993523413,0.1435262827123252,684.0901278000092,220,23,male,True,6840,6846,False,False,expiration,trough
168,0.13,25,down,down,1.2109085000120103,1.2751296414517468,,psi_staircase,cRDM,,0.091685681567369,0.10103377040523584,0.14161236453626172,686.290041900007,220,23,male,True,6862,6874,False,False,expiration,expiration
169,0.13,25,up,up,0.9673293000087142,1.0544043158087768,,psi_staircase,cRDM,,0.08739732315370265,0.09673376501735344,0.14143592680796946,688.8066153000109,220,23,male,True,6887,6897,False,False,inspiration,expiration
170,0.13,25,up,up,0.6591805000789464,1.1552039821670663,,psi_staircase,cRDM,,0.08354432074883499,0.09284284929760662,0.1408615854361056,691.1898195999673,220,23,male,True,6911,6918,False,False,expiration,trough
171,0.14,25,down,down,0.7004888000665233,1.4851638811922514,,psi_staircase,cRDM,,0.08007367358321278,0.08931382486747985,0.13997723970458428,693.6064647999592,220,23,male,True,6935,6942,False,False,expiration,expiration
172,0.14,25,down,down,0.6763456000480801,1.294995586868597,,psi_staircase,cRDM,,0.0771347063268995,0.08628195635762162,0.13856989683364448,695.8566341999685,220,23,male,True,6958,6965,False,False,inspiration,expiration
173,0.14,25,down,down,0.8307633999502286,0.3500911592242565,,psi_staircase,cRDM,,0.07448460820979369,0.08352858229633996,0.13700538980893415,697.156176899909,220,23,male,True,6971,6979,False,False,expiration,expiration
174,0.14,25,up,up,0.6127441999269649,1.4509098651664707,,psi_staircase,cRDM,,0.07209625441564571,0.08102766079955616,0.13530012375753553,699.7062179999193,220,23,male,True,6996,7002,False,False,inspiration,expiration
175,0.14,25,up,up,0.7467805999331176,0.4132365069090546,,psi_staircase,cRDM,,0.06994835978912826,0.07875858563948115,0.13346438361957935,701.0061796999071,220,23,male,True,7009,7016,False,False,expiration,expiration
176,0.08,25,down,down,0.8765066999476403,1.2661389189561485,,psi_staircase,cRDM,,0.06802420498243457,0.07670506079664316,0.13150458231299333,703.2894176999107,220,23,male,True,7032,7041,False,False,peak,expiration
177,0.14,25,down,down,0.7719230999937281,1.08316340070718,,psi_staircase,cRDM,,0.06459133581071316,0.07341451253697233,0.13366057389886668,705.506018999964,220,23,male,True,7054,7062,False,False,inspiration,inspiration
178,0.08,25,down,down,0.6730851000174879,1.212803572820362,,psi_staircase,cRDM,,0.06289079697341411,0.07159247031274378,0.1318199429184942,707.7558929999359,220,23,male,True,7077,7084,False,False,expiration,expiration
179,0.14,25,up,up,1.1074090000474826,1.2729329068163064,,psi_staircase,cRDM,,0.059782761344239425,0.06859090765996465,0.1334328811573256,709.9725514999591,220,23,male,True,7099,7110,False,False,inspiration,expiration
180,0.08,25,up,down,1.2745075999991968,0.8299286606943992,,psi_staircase,cRDM,,0.05826737551607775,0.06696036219067586,0.13168835033803164,712.1724547999911,220,23,male,True,7121,7134,False,False,expiration,inspiration
181,0.08,25,up,down,0.7559755999827757,0.987135965304132,,psi_staircase,cRDM,,0.06721950663876905,0.07567223487215137,0.12804872232951933,714.6890538999577,220,23,male,True,7146,7154,False,False,inspiration,expiration
182,100.0,25,F,down,0.8824885999783874,0.3850588987309925,,experiment,emotion,0.0,,,,719.4054980999789,220,23,male,True,7193,7202,False,False,inspiration,peak
183,93.0,25,M,down,0.6761535999830812,0.6223894975668929,,experiment,emotion,0.0,,,,721.1887754999333,220,23,male,True,7211,7218,False,False,expiration,expiration
184,97.0,25,F,up,0.80761309992522,1.5596903626086764,,experiment,emotion,0.0,,,,723.7053309999175,220,23,male,True,7236,7244,False,False,inspiration,peak
185,100.0,25,M,up,1.1560531000141054,1.1256073162073843,,experiment,emotion,0.0,,,,725.9219238999068,220,23,male,True,7258,7270,False,False,expiration,inspiration
186,97.0,25,F,up,0.6861688999924809,1.9542840823304568,,experiment,emotion,0.0,,,,729.3217876999406,220,23,male,True,7292,7299,False,False,expiration,expiration
187,95.0,25,F,up,0.9958882000064476,0.6201121026377135,,experiment,emotion,0.0,,,,730.9050814999499,220,23,male,True,7308,7318,False,False,inspiration,inspiration
188,93.0,25,M,up,0.9042775999987498,0.44520417626928255,,experiment,emotion,0.0,,,,732.6216777999653,220,23,male,True,7325,7334,False,False,expiration,expiration
189,95.0,25,F,down,1.0369951000902802,0.996192853545354,,experiment,emotion,0.0,,,,734.8049420999596,220,23,male,True,7347,7357,False,False,inspiration,expiration
190,100.0,25,M,down,0.9460473000071944,1.3831772409142016,,experiment,emotion,0.0,,,,737.4881745999446,220,23,male,True,7374,7383,False,False,expiration,inspiration
191,95.0,25,M,down,0.7845635999692604,1.7735161864559683,,experiment,emotion,0.0,,,,740.4714088999899,220,23,male,True,7404,7412,False,False,expiration,expiration
192,97.0,25,F,down,0.8325470000272617,0.4192559643482856,,experiment,emotion,0.0,,,,741.971356999944,220,23,male,True,7419,7427,False,False,expiration,inspiration
193,100.0,25,M,down,0.7810425000498071,0.3128341282810432,,experiment,emotion,0.0,,,,743.3879419999429,220,23,male,True,7433,7441,False,False,inspiration,expiration
194,97.0,25,M,down,1.6218292999546975,1.4020112269184517,,experiment,emotion,0.0,,,,745.8381382999942,220,23,male,True,7458,7474,False,False,inspiration,expiration
195,93.0,25,M,up,0.9945459999144076,0.8716474221605433,,experiment,emotion,0.0,,,,748.6044252999127,220,23,male,True,7485,7495,False,False,expiration,inspiration
196,95.0,25,F,down,0.9133294000057504,1.950885192628795,,experiment,emotion,0.0,,,,751.8376029999927,220,23,male,True,7518,7527,False,False,expiration,expiration
197,93.0,25,F,down,0.9387187999673188,1.3505036487862119,,experiment,emotion,0.0,,,,754.3542198999785,220,23,male,True,7543,7552,False,False,expiration,expiration
198,100.0,25,M,up,0.6840763000072911,0.5539658301470235,,experiment,emotion,0.0,,,,756.1208310999208,220,23,male,True,7560,7567,False,False,expiration,inspiration
199,93.0,25,M,down,1.5665533000137657,0.9332112978242944,,experiment,emotion,0.0,,,,757.9874143999768,220,23,male,True,7579,7595,False,False,expiration,expiration
200,97.0,25,F,up,1.1876886000391096,1.954515405032448,,experiment,emotion,0.0,,,,761.7872818999457,220,23,male,True,7617,7629,False,False,expiration,expiration
201,97.0,25,F,up,2.2460858999984343,0.7126422280181176,,experiment,emotion,0.0,,,,763.9538696999663,220,23,male,True,7639,7661,False,False,inspiration,expiration
202,95.0,25,M,up,0.8515622999984771,0.7263879960312696,,experiment,emotion,0.0,,,,767.2204125999706,220,23,male,True,7671,7680,False,False,expiration,inspiration
203,95.0,25,F,down,0.984979800065048,1.8597235028033436,,experiment,emotion,0.0,,,,770.1869761999696,220,23,male,True,7701,7711,False,False,expiration,inspiration
204,93.0,25,M,down,0.9321660000132396,0.790538907288298,,experiment,emotion,0.0,,,,772.23676349991,220,23,male,True,7722,7731,False,False,inspiration,expiration
205,100.0,25,F,up,1.0267195000778884,0.7223167036866593,,experiment,emotion,0.0,,,,774.170189699973,220,23,male,True,7741,7751,False,False,expiration,inspiration
206,97.0,25,F,up,1.0163032000418752,1.0733793237485705,,experiment,emotion,0.0,,,,776.536673399969,220,23,male,True,7765,7775,False,False,expiration,expiration
207,93.0,25,M,up,0.8899869000306353,1.1531243591307496,,experiment,emotion,0.0,,,,778.9699844999706,220,23,male,True,7789,7798,False,False,inspiration,inspiration
208,100.0,25,M,down,0.9520702000008896,1.3432424583942126,,experiment,emotion,0.0,,,,781.4698993999045,220,23,male,True,7814,7824,False,False,expiration,expiration
209,100.0,25,F,up,0.9001813000068069,1.7044056250227253,,experiment,emotion,0.0,,,,784.419785499922,220,23,male,True,7843,7852,False,False,inspiration,expiration
210,95.0,25,M,up,1.6239525000564754,1.4912400813995454,,experiment,emotion,0.0,,,,787.1030239999527,220,23,male,True,7870,7886,False,False,inspiration,inspiration
211,93.0,25,F,down,0.7923854999244213,1.7648031900057386,,experiment,emotion,0.0,,,,790.7695585999173,220,23,male,True,7907,7915,False,False,expiration,expiration
212,95.0,25,M,down,0.8548334999941289,1.2579307500770007,,experiment,emotion,0.0,,,,793.0861141999484,220,23,male,True,7930,7939,False,False,inspiration,expiration
213,97.0,25,F,up,0.99420860002283,1.030628667929373,,experiment,emotion,0.0,,,,795.2527594999409,220,23,male,True,7952,7962,False,False,expiration,inspiration
214,93.0,25,M,up,1.2316310999449342,1.3663925177169898,,experiment,emotion,0.0,,,,797.8692863999166,220,23,male,True,7978,7990,False,False,expiration,expiration
215,100.0,25,F,up,0.7977624998893589,1.0267378493642696,,experiment,emotion,0.0,,,,800.4191914999393,220,23,male,True,8003,8011,False,False,inspiration,expiration
216,97.0,25,M,up,0.7284596000099555,0.7137185589153409,,experiment,emotion,0.0,,,,802.2024560999125,220,23,male,True,8021,8028,False,False,expiration,expiration
217,100.0,25,F,up,1.1265514000551775,0.8041942254178542,,experiment,emotion,0.0,,,,804.0023977999808,220,23,male,True,8039,8050,False,False,inspiration,expiration
218,93.0,25,M,up,0.7075732999946922,1.6504976211187898,,experiment,emotion,0.0,,,,807.0523405999411,220,23,male,True,8070,8077,False,False,expiration,inspiration
219,97.0,25,F,up,0.7364225999917835,1.4057192137968884,,experiment,emotion,0.0,,,,809.4355280000017,220,23,male,True,8094,8101,False,False,expiration,expiration
220,95.0,25,M,up,0.681444099987857,0.4332006706195611,,experiment,emotion,0.0,,,,810.8854838999687,220,23,male,True,8108,8115,False,False,trough,inspiration
221,95.0,25,F,down,0.7215070000384003,0.481434022006072,,experiment,emotion,0.0,,,,812.3354193000122,220,23,male,True,8122,8129,False,False,expiration,expiration
222,97.0,25,F,down,0.852249100105837,1.6263330794552115,,experiment,emotion,0.0,,,,814.9686806999381,220,23,male,True,8149,8158,False,False,inspiration,expiration
223,100.0,25,M,up,0.7276393000502139,0.36697877648123417,,experiment,emotion,0.0,,,,816.4852859999519,220,23,male,True,8164,8171,False,False,expiration,expiration
224,95.0,25,F,down,1.2767783999443054,0.7587467789550391,,experiment,emotion,0.0,,,,818.2351893999147,220,23,male,True,8181,8194,False,False,inspiration,expiration
225,93.0,25,M,up,0.970491399988532,1.4897300826255833,,experiment,emotion,0.0,,,,821.2684360999848,220,23,male,True,8212,8222,False,False,trough,inspiration
226,93.0,25,M,down,1.0242624999955297,0.755665594847173,,experiment,emotion,0.0,,,,823.2516628999729,220,23,male,True,8232,8242,False,False,expiration,expiration
227,95.0,25,F,up,0.7496247999370098,0.8860027541374238,,experiment,emotion,0.0,,,,825.4183038999327,220,23,male,True,8253,8260,False,False,inspiration,expiration
228,100.0,25,F,up,1.4223976000212133,1.1379673114803959,,experiment,emotion,0.0,,,,827.6015349999071,220,23,male,True,8275,8289,False,False,inspiration,peak
229,97.0,25,M,down,0.880808100104332,1.5550392741247887,,experiment,emotion,0.0,,,,830.8680962999351,220,23,male,True,8308,8317,False,False,expiration,inspiration
230,93.0,25,F,down,0.9409647000720724,0.6150622767772334,,experiment,emotion,0.0,,,,832.6180098999757,220,23,male,True,8325,8334,False,False,inspiration,expiration
231,100.0,25,M,down,0.6509832999436185,1.2415209654278359,,experiment,emotion,0.0,,,,835.0679283000062,220,23,male,True,8350,8357,False,False,inspiration,inspiration
232,97.0,25,M,down,0.6554140000371262,0.7311895664809209,,experiment,emotion,0.0,,,,836.7345086999702,220,23,male,True,8366,8373,False,False,expiration,expiration
233,97.0,25,M,down,0.7149586000014096,0.7980644784099626,,experiment,emotion,0.0,,,,838.4510259999661,220,23,male,True,8384,8391,False,False,expiration,inspiration
234,93.0,25,M,down,0.6332603000337258,1.4377651375607148,,experiment,emotion,0.0,,,,840.8677076000023,220,23,male,True,8408,8414,False,False,expiration,expiration
235,95.0,25,M,down,1.0442804000340402,0.7423948497480648,,experiment,emotion,0.0,,,,842.5176499999361,220,23,male,True,8424,8434,False,False,expiration,inspiration
236,100.0,25,F,down,0.6457758999895304,0.7977540723453657,,experiment,emotion,0.0,,,,844.6342179999921,220,23,male,True,8445,8451,False,False,expiration,expiration
237,95.0,25,F,down,0.6702104000141844,1.1046550142363856,,experiment,emotion,0.0,,,,846.650742799975,220,23,male,True,8466,8473,False,False,expiration,inspiration
238,95.0,25,F,down,1.373197200009599,1.804546092713574,,experiment,emotion,0.0,,,,849.4007255999603,220,23,male,True,8493,8507,False,False,expiration,expiration
239,95.0,25,M,up,0.7576449000043795,0.5318148092094857,,experiment,emotion,0.0,,,,851.5673089999472,220,23,male,True,8515,8523,False,False,inspiration,inspiration
240,100.0,25,F,up,0.9246605000225828,0.8114199711973002,,experiment,emotion,0.0,,,,853.4172258999898,220,23,male,True,8533,8542,False,False,expiration,expiration
241,97.0,25,F,down,0.9774112999439241,0.6681871920013642,,experiment,emotion,0.0,,,,855.3004881999221,220,23,male,True,8552,8562,False,False,inspiration,peak
242,93.0,25,F,down,0.9589018999831752,1.8722648343652968,,experiment,emotion,0.0,,,,858.4340119999832,220,23,male,True,8584,8594,False,False,expiration,inspiration
243,93.0,25,M,down,0.8445883999811485,0.9746329976071816,,experiment,emotion,0.0,,,,860.6503281999612,220,23,male,True,8606,8614,False,False,expiration,expiration
244,97.0,25,F,up,1.1997284999815747,1.371064368082014,,experiment,emotion,0.0,,,,863.1501840999118,220,23,male,True,8631,8643,False,False,trough,inspiration
245,100.0,25,M,up,0.6395823999773711,0.5839061589162309,,experiment,emotion,0.0,,,,865.2333999999099,220,23,male,True,8652,8658,False,False,expiration,expiration
246,100.0,25,M,up,1.3708554001059383,1.0472765089543172,,experiment,emotion,0.0,,,,867.2000594999408,220,23,male,True,8671,8685,False,False,inspiration,expiration
247,93.0,25,F,down,0.7702726999996229,1.1195146044718296,,experiment,emotion,0.0,,,,869.9666461999295,220,23,male,True,8699,8707,False,False,expiration,inspiration
248,100.0,25,M,down,1.4143868000246584,1.4871618603336103,,experiment,emotion,0.0,,,,872.5165265999968,220,23,male,True,8724,8738,False,False,expiration,expiration
249,95.0,25,F,up,1.3951083000283688,0.33176462391089817,,experiment,emotion,0.0,,,,874.5498103999997,220,23,male,True,8745,8759,False,False,inspiration,peak
250,97.0,25,M,up,0.7672352000372484,1.7870651472674115,,experiment,emotion,0.0,,,,877.9996752999722,220,23,male,True,8779,8787,False,False,expiration,expiration
251,95.0,25,F,up,0.6714144999859855,1.5158176534293568,,experiment,emotion,0.0,,,,880.549519799999,220,23,male,True,8805,8812,False,False,expiration,expiration
252,93.0,25,M,down,0.8890623999759555,0.6776804267033408,,experiment,emotion,0.0,,,,882.182849099976,220,23,male,True,8821,8830,False,False,expiration,inspiration
253,97.0,25,F,down,0.8814167999662459,0.7516842809928426,,experiment,emotion,0.0,,,,884.0994659999852,220,23,male,True,8840,8849,False,False,inspiration,expiration
254,95.0,25,F,down,0.7312201999593526,0.8886478301634855,,experiment,emotion,0.0,,,,886.1326937999112,220,23,male,True,8860,8867,False,False,expiration,expiration
255,97.0,25,F,up,0.9806268999818712,0.8123446217822101,,experiment,emotion,0.0,,,,887.9492842999753,220,23,male,True,8879,8889,False,False,inspiration,expiration
256,93.0,25,F,up,0.7950693999882787,1.860029320229112,,experiment,emotion,0.0,,,,891.0658531999215,220,23,male,True,8910,8918,False,False,inspiration,inspiration
257,100.0,25,F,down,0.7918098999653012,1.6675345483365964,,experiment,emotion,0.0,,,,893.7991040999768,220,23,male,True,8937,8945,False,False,expiration,expiration
258,97.0,25,M,up,1.3369708999525756,0.3853194810140785,,experiment,emotion,0.0,,,,895.2489829999396,220,23,male,True,8952,8965,False,False,inspiration,expiration
259,100.0,25,M,up,0.6392922999802977,1.2078078972451431,,experiment,emotion,0.0,,,,898.0656210000162,220,23,male,True,8980,8986,False,False,expiration,trough
260,93.0,25,M,down,0.8963831000728533,1.588551663754676,,experiment,emotion,0.0,,,,900.5655387999723,220,23,male,True,9005,9014,False,False,expiration,expiration
261,95.0,25,M,up,1.2291385999415072,1.5402382509904688,,experiment,emotion,0.0,,,,903.2987609999254,220,23,male,True,9032,9044,False,False,inspiration,expiration
262,0.07676348088268421,25,up,up,0.6955426000058651,1.2606309432900598,,experiment,cRDM,0.0,,,,922.6813885999144,220,23,male,True,9226,9233,False,False,expiration,expiration
263,0.07676348088268421,25,up,up,0.7309431999456137,1.6636538731287382,,experiment,cRDM,0.0,,,,925.297961000004,220,23,male,True,9252,9259,False,False,expiration,expiration
264,0.07676348088268421,25,down,up,0.6859621000476182,0.610839886843068,,experiment,cRDM,0.0,,,,926.8979008999886,220,23,male,True,9268,9275,True,True,inspiration,expiration
265,0.07676348088268421,25,down,up,1.2074088000226766,1.5652435243957568,,experiment,cRDM,0.0,,,,929.4144580999856,220,23,male,True,9293,9305,True,True,expiration,expiration
266,0.07676348088268421,25,up,up,0.6471858000149949,0.8640083312779319,,experiment,cRDM,0.0,,,,931.747732299962,220,23,male,True,9317,9323,True,True,expiration,expiration
267,0.07676348088268421,25,down,down,0.6452038999414071,0.3054509236774536,,experiment,cRDM,0.0,,,,932.9477340999292,220,23,male,True,9329,9335,True,True,expiration,inspiration
268,0.07676348088268421,25,up,up,0.6193262999877334,1.9905892521671968,,experiment,cRDM,0.0,,,,935.8475749999052,220,23,male,True,9358,9364,False,False,inspiration,inspiration
269,0.07676348088268421,25,up,up,1.1542474000016227,1.3977981548408789,,experiment,cRDM,0.0,,,,938.1306614999195,220,23,male,True,9381,9393,False,False,expiration,expiration
270,0.07676348088268421,25,down,down,0.7325397999957204,1.8986401774429391,,experiment,cRDM,0.0,,,,941.4473705999553,220,23,male,True,9414,9421,False,False,expiration,expiration
271,0.07676348088268421,25,down,down,0.6444107999559492,1.9450663328396296,,experiment,cRDM,0.0,,,,944.3805510000093,220,23,male,True,9443,9449,False,False,inspiration,peak
272,0.07676348088268421,25,down,down,0.974091500043869,0.7722865276647564,,experiment,cRDM,0.0,,,,946.0638229999457,220,23,male,True,9460,9470,False,False,expiration,inspiration
273,0.07676348088268421,25,down,down,1.3567779000150042,0.3997194966748997,,experiment,cRDM,0.0,,,,947.6971270999637,220,23,male,True,9476,9490,False,False,inspiration,expiration
274,0.07676348088268421,25,down,down,0.7642716999398544,1.793075981872055,,experiment,cRDM,0.0,,,,951.1136429999024,220,23,male,True,9510,9518,False,False,expiration,inspiration
275,0.07676348088268421,25,down,down,0.7623718000249937,0.680802851205204,,experiment,cRDM,0.0,,,,952.8136026000137,220,23,male,True,9527,9535,False,False,expiration,expiration
276,0.07676348088268421,25,up,up,1.5800028999801723,0.4611762785717256,,experiment,cRDM,0.0,,,,954.2968727999832,220,23,male,True,9542,9558,False,False,expiration,peak
277,0.07676348088268421,25,up,up,0.9181235000723972,0.9433639436480484,,experiment,cRDM,0.0,,,,957.0967885999708,220,23,male,True,9570,9579,False,False,expiration,trough
278,0.07676348088268421,25,up,up,0.7145844999467954,1.3927999674367395,,experiment,cRDM,0.0,,,,959.6633634999163,220,23,male,True,9596,9603,False,False,expiration,expiration
279,0.07676348088268421,25,up,up,0.8185692999977618,0.9690216975387341,,experiment,cRDM,0.0,,,,961.61329759995,220,23,male,True,9615,9623,False,False,inspiration,inspiration
280,0.07676348088268421,25,down,up,0.9020333000225946,0.9862530858574364,,experiment,cRDM,0.0,,,,963.6798671999713,220,23,male,True,9636,9645,False,False,expiration,expiration
281,0.07676348088268421,25,up,up,0.7068119000177829,1.9753192485038442,,experiment,cRDM,0.0,,,,966.8130925999723,220,23,male,True,9667,9674,False,False,expiration,expiration
282,0.07676348088268421,25,up,up,0.5958653000416234,1.1906565841125816,,experiment,cRDM,0.0,,,,968.9630265999583,220,23,male,True,9689,9695,False,False,inspiration,expiration
283,0.07676348088268421,25,down,up,0.9599238999653608,0.6283639897569311,,experiment,cRDM,0.0,,,,970.4629756999202,220,23,male,True,9704,9714,False,False,expiration,expiration
284,0.07676348088268421,25,up,up,0.5944422000320628,0.952200966050332,,experiment,cRDM,0.0,,,,972.6295163999312,220,23,male,True,9725,9731,False,False,inspiration,expiration
285,0.07676348088268421,25,down,up,0.36715910001657903,1.8368768974975105,,experiment,cRDM,0.0,,,,975.312761500012,220,23,male,True,9752,9756,False,False,expiration,inspiration
286,0.07676348088268421,25,down,up,0.6995639000087976,1.5913822533040036,,experiment,cRDM,0.0,,,,977.5793341000101,220,23,male,True,9775,9782,False,False,expiration,expiration
287,0.07676348088268421,25,up,up,0.6567130999173969,1.7382177521831463,,experiment,cRDM,0.0,,,,980.2792490000137,220,23,male,True,9802,9809,False,False,expiration,expiration
288,0.07676348088268421,25,up,up,0.7307128000538796,0.5241785758055582,,experiment,cRDM,0.0,,,,981.7291851999472,220,23,male,True,9816,9823,False,False,inspiration,inspiration
289,0.07676348088268421,25,down,down,0.8072386999847367,1.3317549268473825,,experiment,cRDM,0.0,,,,984.0456511999946,220,23,male,True,9840,9848,False,False,expiration,trough
290,0.07676348088268421,25,up,up,0.8228509000036865,1.5199168367842586,,experiment,cRDM,0.0,,,,986.6290145999519,220,23,male,True,9865,9873,False,False,expiration,expiration
291,0.07676348088268421,25,down,up,1.1729590999893844,0.906621872766198,,experiment,cRDM,0.0,,,,988.6289589999942,220,23,male,True,9885,9897,False,False,trough,peak
292,0.07676348088268421,25,down,down,0.7047445001080632,1.841361912752971,,experiment,cRDM,0.0,,,,991.9121571999277,220,23,male,True,9918,9925,False,False,expiration,trough
293,0.07676348088268421,25,down,down,1.154782500001602,1.5842219039373973,,experiment,cRDM,0.0,,,,994.4621139999944,220,23,male,True,9944,9956,False,False,expiration,expiration
294,0.07676348088268421,25,up,up,0.7878787000663579,1.377474862857181,,experiment,cRDM,0.0,,,,997.2619809999595,220,23,male,True,9972,9980,False,False,inspiration,inspiration
295,0.07676348088268421,25,up,up,1.0873052999377248,0.49944235190318303,,experiment,cRDM,0.0,,,,998.8285731999204,220,23,male,True,9987,9998,False,False,expiration,expiration
296,0.07676348088268421,25,up,up,0.6614064999157563,0.3448921926528151,,experiment,cRDM,0.0,,,,1000.528488599928,220,23,male,True,10004,10011,False,False,expiration,trough
297,0.07676348088268421,25,down,down,1.05877669993788,1.2341199334977213,,experiment,cRDM,0.0,,,,1002.6950994000073,220,23,male,True,10026,10037,False,False,peak,expiration
298,0.07676348088268421,25,down,down,1.034612100105733,1.3102693285615978,,experiment,cRDM,0.0,,,,1005.3282845999347,220,23,male,True,10053,10063,False,False,inspiration,peak
299,0.07676348088268421,25,up,up,1.0883297000546008,1.8494478954274967,,experiment,cRDM,0.0,,,,1008.461547199986,220,23,male,True,10084,10095,False,False,inspiration,inspiration
300,0.07676348088268421,25,down,down,0.8432364000473171,1.7881955098855893,,experiment,cRDM,0.0,,,,1011.5947570999851,220,23,male,True,10115,10123,False,False,expiration,inspiration
301,0.07676348088268421,25,up,up,0.5459447000175714,1.979050255145048,,experiment,cRDM,0.0,,,,1014.6779854999623,220,23,male,True,10146,10151,False,False,expiration,expiration
302,0.07676348088268421,25,up,down,0.7072854000143707,0.4091906410582297,,experiment,cRDM,0.0,,,,1015.8946087999502,220,23,male,True,10158,10165,False,False,inspiration,inspiration
303,0.07676348088268421,25,up,down,0.5737430999288335,1.7989204202167006,,experiment,cRDM,0.0,,,,1018.6611746000127,220,23,male,True,10186,10192,False,False,inspiration,inspiration
304,0.07676348088268421,25,down,down,0.6551738999551162,0.9771540834413894,,experiment,cRDM,0.0,,,,1020.4777698999968,220,23,male,True,10204,10211,False,False,expiration,expiration
305,0.07676348088268421,25,down,down,0.45021339994855225,0.6810001549120857,,experiment,cRDM,0.0,,,,1022.0777145999017,220,23,male,True,10220,10225,False,False,expiration,inspiration
306,0.07676348088268421,25,up,up,0.654936800012365,0.4504532621674335,,experiment,cRDM,0.0,,,,1023.2610024999594,220,23,male,True,10232,10239,False,False,inspiration,expiration
307,0.07676348088268421,25,down,down,0.7039227000204846,1.446261277658316,,experiment,cRDM,0.0,,,,1025.610934299999,220,23,male,True,10255,10262,False,False,expiration,inspiration
308,0.07676348088268421,25,down,down,1.0936841999646276,0.8567135300408509,,experiment,cRDM,0.0,,,,1027.4441947999876,220,23,male,True,10274,10285,False,False,expiration,expiration
309,0.07676348088268421,25,up,up,1.276765799964778,1.5413411281417109,,experiment,cRDM,0.0,,,,1030.344136599917,220,23,male,True,10303,10316,False,False,inspiration,expiration
310,0.07676348088268421,25,up,down,0.6888956000329927,0.5145517216539196,,experiment,cRDM,0.0,,,,1032.3940017999848,220,23,male,True,10323,10330,False,False,expiration,expiration
311,0.07676348088268421,25,down,up,0.6716463000047952,0.3382887504622645,,experiment,cRDM,0.0,,,,1033.6772699999856,220,23,male,True,10336,10343,False,False,inspiration,peak
312,0.07676348088268421,25,up,up,1.0343584000365809,1.8490769579513116,,experiment,cRDM,0.0,,,,1036.4605362999719,220,23,male,True,10364,10374,False,False,expiration,inspiration
313,0.07676348088268421,25,down,down,0.7161198999965563,1.2451842709368468,,experiment,cRDM,0.0,,,,1038.9937730999663,220,23,male,True,10389,10396,False,False,expiration,expiration
314,0.07676348088268421,25,down,down,0.8150097000179812,1.0630883532332824,,experiment,cRDM,0.0,,,,1041.0268937000073,220,23,male,True,10410,10418,False,False,inspiration,inspiration
315,0.07676348088268421,25,down,down,0.7441923998994753,1.3376281503994565,,experiment,cRDM,0.0,,,,1043.4437140999362,220,23,male,True,10434,10441,False,False,expiration,expiration
316,0.07676348088268421,25,up,up,0.7043484000023454,1.1320045976284752,,experiment,cRDM,0.0,,,,1045.5935202999972,220,23,male,True,10455,10462,False,False,expiration,expiration
317,0.07676348088268421,25,up,down,0.644150200067088,1.214974904997589,,experiment,cRDM,0.0,,,,1047.7767616999336,220,23,male,True,10477,10483,False,False,inspiration,inspiration
318,0.07676348088268421,25,down,up,0.3505212999880314,1.515765609235208,,experiment,cRDM,0.0,,,,1050.193359299912,220,23,male,True,10501,10505,False,False,expiration,expiration
319,0.07676348088268421,25,down,down,1.005502099986188,1.951710697530136,,experiment,cRDM,0.0,,,,1052.8264419999905,220,23,male,True,10528,10538,False,False,expiration,expiration
320,0.07676348088268421,25,up,down,1.4004788000602275,0.3248208487047355,,experiment,cRDM,0.0,,,,1054.4265002999457,220,23,male,True,10544,10558,False,False,expiration,inspiration
321,0.07676348088268421,25,up,up,2.1631787000223994,1.0670241828453308,,experiment,cRDM,0.0,,,,1057.1597926999677,220,23,male,True,10571,10593,False,False,expiration,inspiration
322,0.07676348088268421,25,up,up,0.9266625000163912,1.0690627054547182,,experiment,cRDM,0.0,,,,1060.6432223999873,220,23,male,True,10606,10615,False,False,expiration,trough
323,0.07676348088268421,25,up,down,1.1593416000250727,0.9751724750644656,,experiment,cRDM,0.0,,,,1062.8095563999375,220,23,male,True,10627,10639,False,False,peak,expiration
324,0.07676348088268421,25,up,down,1.3284258000785485,1.2804368933625376,,experiment,cRDM,0.0,,,,1065.5094697999302,220,23,male,True,10654,10667,False,False,inspiration,expiration
325,0.07676348088268421,25,down,down,0.9578260000562296,0.9755734581401324,,experiment,cRDM,0.0,,,,1068.0760429999789,220,23,male,True,10680,10690,False,False,expiration,inspiration
326,0.07676348088268421,25,down,up,0.8862842998933047,0.3932176698220582,,experiment,cRDM,0.0,,,,1069.6926111999198,220,23,male,True,10696,10705,False,False,inspiration,expiration
327,0.07676348088268421,25,up,down,1.202982599963434,0.5405087378494986,,experiment,cRDM,0.0,,,,1071.3759021000003,220,23,male,True,10713,10725,False,False,expiration,inspiration
328,0.07676348088268421,25,down,up,0.9937778000021352,1.5610108338277604,,experiment,cRDM,0.0,,,,1074.4091369999803,220,23,male,True,10743,10753,False,False,expiration,expiration
329,0.07676348088268421,25,down,down,0.8054878000402823,0.4776594905586874,,experiment,cRDM,0.0,,,,1076.1424291000003,220,23,male,True,10761,10769,False,False,inspiration,expiration
330,0.07676348088268421,25,down,up,1.6422934000147509,1.2184522716591406,,experiment,cRDM,0.0,,,,1078.425642499933,220,23,male,True,10783,10799,False,False,expiration,inspiration
331,0.07676348088268421,25,up,down,0.9083446000004188,1.1591879944316246,,experiment,cRDM,0.0,,,,1081.4755370999922,220,23,male,True,10814,10823,False,False,expiration,expiration
332,0.07676348088268421,25,down,up,0.7321128000039607,1.6524337629371697,,experiment,cRDM,0.0,,,,1084.3087709000101,220,23,male,True,10842,10849,False,False,expiration,expiration
333,0.07676348088268421,25,down,up,1.7575697000138462,1.1384354377171069,,experiment,cRDM,0.0,,,,1086.4253459000026,220,23,male,True,10863,10881,False,False,inspiration,expiration
334,0.07676348088268421,25,down,down,1.1192992998985574,0.31575845827654603,,experiment,cRDM,0.0,,,,1088.758628499927,220,23,male,True,10887,10898,False,False,expiration,inspiration
335,0.07676348088268421,25,up,up,0.8757192000048235,1.7394575873706215,,experiment,cRDM,0.0,,,,1091.8751587999286,220,23,male,True,10918,10927,False,False,expiration,expiration
336,0.07676348088268421,25,up,down,0.8038196000270545,1.156562157385393,,experiment,cRDM,0.0,,,,1094.1750632999465,220,23,male,True,10941,10949,False,False,peak,expiration
337,0.07676348088268421,25,down,up,1.1862494000233708,0.6481178092250577,,experiment,cRDM,0.0,,,,1095.8916663000127,220,23,male,True,10958,10970,False,False,expiration,inspiration
338,0.07676348088268421,25,up,up,1.0206240999978036,0.7195225188581569,,experiment,cRDM,0.0,,,,1098.0582548999228,220,23,male,True,10980,10990,False,False,expiration,expiration
339,0.07676348088268421,25,down,down,1.3253799000522122,0.8911657968818399,,experiment,cRDM,0.0,,,,1100.2415369999362,220,23,male,True,11002,11015,False,False,inspiration,expiration
340,0.07676348088268421,25,up,down,1.3434237000765281,0.5029468053785903,,experiment,cRDM,0.0,,,,1102.3414633999346,220,23,male,True,11023,11036,False,False,expiration,inspiration
341,0.07676348088268421,25,up,up,1.0342380999354646,0.8256708783408444,,experiment,cRDM,0.0,,,,1104.7746815999271,220,23,male,True,11047,11057,False,False,expiration,expiration
342,100.0,25,M,up,1.3468789999606088,1.83397763318032,,experiment,emotion,1.0,,,,1113.9910138999112,220,23,male,True,11139,11152,False,False,inspiration,expiration
343,93.0,25,M,up,0.8737069999333471,0.4086417746534289,,experiment,emotion,1.0,,,,1116.0242054999107,220,23,male,True,11160,11169,False,False,expiration,trough
344,97.0,25,F,up,0.5140797999920323,0.6123569300140481,,experiment,emotion,1.0,,,,1117.790869099903,220,23,male,True,11177,11182,False,False,inspiration,peak
345,100.0,25,F,down,1.6231213998980818,1.9023891011663119,,experiment,emotion,1.0,,,,1120.4907724999357,220,23,male,True,11204,11220,False,False,trough,expiration
346,97.0,25,M,up,0.7919236000161618,1.5867876876668492,,experiment,emotion,1.0,,,,1123.9739662999054,220,23,male,True,11239,11247,False,False,trough,inspiration
347,95.0,25,F,down,1.0856746000936257,0.8669042333191892,,experiment,emotion,1.0,,,,1125.9072522999484,220,23,male,True,11258,11269,False,False,expiration,expiration
348,93.0,25,M,up,0.8804321000352502,1.3754573625011552,,experiment,emotion,1.0,,,,1128.640480299946,220,23,male,True,11286,11295,False,False,inspiration,expiration
349,95.0,25,M,up,0.7614617000799626,0.4889163061185634,,experiment,emotion,1.0,,,,1130.29041529994,220,23,male,True,11302,11310,False,False,expiration,expiration
350,100.0,25,F,up,0.6032459000125527,1.2633618071677135,,experiment,emotion,1.0,,,,1132.573654799955,220,23,male,True,11325,11331,False,False,inspiration,inspiration
351,95.0,25,F,up,0.7472175000002608,0.5214490822185612,,experiment,emotion,1.0,,,,1133.9736265999966,220,23,male,True,11339,11346,False,False,expiration,expiration
352,97.0,25,F,up,0.7396942999912426,0.7376988713769626,,experiment,emotion,1.0,,,,1135.7402153000005,220,23,male,True,11357,11364,False,False,trough,inspiration
353,100.0,25,F,up,0.6884280000813305,1.827647622151787,,experiment,emotion,1.0,,,,1138.5734405999538,220,23,male,True,11385,11392,False,False,expiration,expiration
354,97.0,25,F,up,0.7435046000173315,0.995042020484483,,experiment,emotion,1.0,,,,1140.523377800011,220,23,male,True,11405,11412,False,False,inspiration,expiration
355,93.0,25,F,up,0.9429500999394804,1.9855813621740823,,experiment,emotion,1.0,,,,1143.5399342000019,220,23,male,True,11435,11444,False,False,expiration,inspiration
356,95.0,25,M,down,1.459691600059159,1.0788040633745186,,experiment,emotion,1.0,,,,1145.8231846999845,220,23,male,True,11458,11473,False,False,expiration,trough
357,93.0,25,M,up,0.6638415000634268,1.9215860843974737,,experiment,emotion,1.0,,,,1149.473038999946,220,23,male,True,11494,11501,False,False,expiration,expiration
358,100.0,25,M,up,0.7346042999997735,1.987454175453016,,experiment,emotion,1.0,,,,1152.4062613999706,220,23,male,True,11523,11530,False,False,inspiration,peak
359,93.0,25,M,up,0.5596852999879047,1.0067333395463989,,experiment,emotion,1.0,,,,1154.4061849999707,220,23,male,True,11543,11549,False,False,expiration,expiration
360,97.0,25,F,up,0.6744493999285623,1.84400931863102,,experiment,emotion,1.0,,,,1157.0894435999217,220,23,male,True,11570,11577,False,False,expiration,expiration
361,97.0,25,M,up,0.8785256999544799,0.7603891409838637,,experiment,emotion,1.0,,,,1158.7893759999424,220,23,male,True,11587,11596,False,False,expiration,inspiration
362,95.0,25,M,up,0.7449192999629304,0.7028024026081766,,experiment,emotion,1.0,,,,1160.6559639999175,220,23,male,True,11606,11613,False,False,expiration,expiration
363,95.0,25,F,up,0.6689804999623448,0.3273394461851544,,experiment,emotion,1.0,,,,1162.00589879998,220,23,male,True,11619,11626,False,False,expiration,inspiration
364,93.0,25,M,down,1.2690487999934703,1.3079177791154073,,experiment,emotion,1.0,,,,1164.2558236999905,220,23,male,True,11642,11655,False,False,expiration,expiration
365,100.0,25,F,up,0.7821676998864859,0.958786172600714,,experiment,emotion,1.0,,,,1166.7557394999312,220,23,male,True,11667,11675,False,False,inspiration,peak
366,97.0,25,F,up,2.270574299967848,1.4539415527335242,,experiment,emotion,1.0,,,,1169.2723106999185,220,23,male,True,11692,11715,False,False,expiration,expiration
367,93.0,25,M,down,1.1093552000820637,1.5441479109821108,,experiment,emotion,1.0,,,,1173.3555158999516,220,23,male,True,11733,11744,False,False,expiration,inspiration
368,100.0,25,M,up,0.6557801000308245,1.7463843182862622,,experiment,emotion,1.0,,,,1176.472051299992,220,23,male,True,11764,11771,False,False,expiration,inspiration
369,100.0,25,F,up,0.8489095000550151,0.8182385353112036,,experiment,emotion,1.0,,,,1178.2219595999925,220,23,male,True,11782,11790,False,False,inspiration,expiration
370,95.0,25,M,up,0.7253028999548405,1.1424120826725677,,experiment,emotion,1.0,,,,1180.4885684999174,220,23,male,True,11804,11811,False,False,expiration,inspiration
371,93.0,25,F,up,0.7321470999158919,0.6230682448997344,,experiment,emotion,1.0,,,,1182.1217611999018,220,23,male,True,11821,11828,False,False,expiration,expiration
372,95.0,25,F,up,0.6728019999573007,1.9259238494276008,,experiment,emotion,1.0,,,,1185.055071800016,220,23,male,True,11850,11857,False,False,inspiration,expiration
373,97.0,25,F,up,0.7105357000837103,1.4859288188042237,,experiment,emotion,1.0,,,,1187.488313299953,220,23,male,True,11874,11881,False,False,expiration,inspiration
374,93.0,25,M,up,1.6679402999579906,1.582453315828684,,experiment,emotion,1.0,,,,1190.0548886999022,220,23,male,True,11900,11917,False,True,expiration,peak
375,100.0,25,M,down,1.0456882999278605,1.3811590216562135,,experiment,emotion,1.0,,,,1193.3881373999175,220,23,male,True,11933,11943,True,True,expiration,expiration
376,97.0,25,M,down,1.0559415000025183,1.6367652934608143,,experiment,emotion,1.0,,,,1196.3379719000075,220,23,male,True,11963,11974,False,False,expiration,expiration
377,100.0,25,F,,,1.1968484829559705,,experiment,emotion,1.0,,,,1198.8712299999315,220,23,male,True,11988,0,False,False,trough,0
378,93.0,25,F,down,1.7401267999084666,1.376993684126687,,experiment,emotion,1.0,,,,1202.9377343999222,220,23,male,True,12029,12046,False,False,inspiration,expiration
379,97.0,25,M,up,0.7339440000941977,1.6276394116907358,,experiment,emotion,1.0,,,,1206.570946599939,220,23,male,True,12065,12072,False,False,inspiration,expiration
380,95.0,25,F,up,0.7010476000141352,0.7380868255942149,,experiment,emotion,1.0,,,,1208.3207714000016,220,23,male,True,12083,12090,False,False,expiration,trough
381,95.0,25,M,up,0.6697327999863774,0.722959974163052,,experiment,emotion,1.0,,,,1210.0041331999234,220,23,male,True,12099,12106,False,False,inspiration,expiration
382,97.0,25,M,up,0.6684557000407949,0.7528287188115084,,experiment,emotion,1.0,,,,1211.6874218999874,220,23,male,True,12116,12123,False,False,expiration,expiration
383,100.0,25,M,up,0.4639730000635609,1.4765700936670472,,experiment,emotion,1.0,,,,1214.103984999936,220,23,male,True,12140,12145,False,False,expiration,expiration
384,95.0,25,F,up,0.6119684999575838,0.5705373472813255,,experiment,emotion,1.0,,,,1215.403956299997,220,23,male,True,12153,12159,False,False,expiration,inspiration
385,93.0,25,F,up,0.5686503999168053,0.5976275514497429,,experiment,emotion,1.0,,,,1216.8872367999284,220,23,male,True,12168,12174,False,False,inspiration,expiration
386,93.0,25,M,up,0.5230378999840468,0.4616981217153551,,experiment,emotion,1.0,,,,1218.2038303000156,220,23,male,True,12181,12186,False,False,expiration,expiration
387,95.0,25,F,up,0.4390938999131322,0.7971536447993783,,experiment,emotion,1.0,,,,1219.8037735999096,220,23,male,True,12197,12201,False,False,inspiration,inspiration
388,100.0,25,F,up,0.4318718999857083,1.6250751166495312,,experiment,emotion,1.0,,,,1222.137032300001,220,23,male,True,12221,12225,False,False,expiration,trough
389,97.0,25,M,up,0.4001735999481753,1.8288670425661024,,experiment,emotion,1.0,,,,1224.6702998999972,220,23,male,True,12246,12250,False,False,expiration,expiration
390,93.0,25,M,up,0.5130299999145791,1.6707424386954397,,experiment,emotion,1.0,,,,1227.0368667999282,220,23,male,True,12270,12275,False,False,inspiration,expiration
391,100.0,25,F,up,0.4298841999843717,1.8057668902752677,,experiment,emotion,1.0,,,,1229.6199854000004,220,23,male,True,12296,12300,False,False,inspiration,inspiration
392,97.0,25,M,up,0.4351971999276429,1.678412079591189,,experiment,emotion,1.0,,,,1231.9866699000122,220,23,male,True,12319,12323,False,False,expiration,expiration
393,97.0,25,F,up,0.31681870005559176,1.7889615000696433,,experiment,emotion,1.0,,,,1234.4699251999843,220,23,male,True,12344,12347,False,False,peak,expiration
394,93.0,25,F,down,0.7394044999964535,0.9184266992854992,,experiment,emotion,1.0,,,,1236.0865108999424,220,23,male,True,12360,12367,False,True,expiration,inspiration
395,95.0,25,F,down,1.4763749999692664,0.3734843990883137,,experiment,emotion,1.0,,,,1237.4864818999777,220,23,male,True,12374,12389,True,True,inspiration,inspiration
396,100.0,25,M,up,0.6542204000288621,1.3982210164563071,,experiment,emotion,1.0,,,,1240.6196252999362,220,23,male,True,12406,12413,True,False,expiration,inspiration
397,95.0,25,M,down,0.9715115999570116,0.3311878670374433,,experiment,emotion,1.0,,,,1241.8863346999278,220,23,male,True,12418,12428,False,False,inspiration,expiration
398,95.0,25,F,down,0.9895948000485078,0.8672058124993107,,experiment,emotion,1.0,,,,1243.9862648999554,220,23,male,True,12439,12449,False,False,expiration,expiration
399,95.0,25,F,down,0.70501619996503,0.3026875209256579,,experiment,emotion,1.0,,,,1245.5528550000165,220,23,male,True,12455,12462,False,False,expiration,inspiration
400,100.0,25,M,down,0.5634706999408081,1.0769637779583277,,experiment,emotion,1.0,,,,1247.619425199926,220,23,male,True,12476,12482,False,False,expiration,expiration
401,97.0,25,M,down,0.7929419999709353,1.8822393524570784,,experiment,emotion,1.0,,,,1250.3358803999145,220,23,male,True,12503,12511,False,False,inspiration,expiration
402,93.0,25,M,down,0.7757036000257358,0.5067743749019682,,experiment,emotion,1.0,,,,1251.9191507999785,220,23,male,True,12519,12527,False,False,expiration,expiration
403,93.0,25,M,down,0.6809978999663144,0.577936469354158,,experiment,emotion,1.0,,,,1253.5358956999844,220,23,male,True,12535,12542,False,False,inspiration,inspiration
404,97.0,25,M,down,0.7233776999637485,0.8653039512237215,,experiment,emotion,1.0,,,,1255.352480100002,220,23,male,True,12553,12560,False,False,expiration,expiration
405,100.0,25,F,down,1.6985219999914989,1.6629342454899847,,experiment,emotion,1.0,,,,1258.0023685999913,220,23,male,True,12579,12596,False,False,inspiration,expiration
406,100.0,25,F,up,0.6908563999459147,0.4007661125061335,,experiment,emotion,1.0,,,,1260.3689795999092,220,23,male,True,12603,12610,False,False,expiration,inspiration
407,93.0,25,M,down,1.3496068000094965,0.7753705698978153,,experiment,emotion,1.0,,,,1262.102240099921,220,23,male,True,12620,12633,False,False,inspiration,expiration
408,100.0,25,F,up,1.0427308999933302,1.7786158407774415,,experiment,emotion,1.0,,,,1265.5021120000165,220,23,male,True,12654,12664,False,False,inspiration,expiration
409,95.0,25,F,down,1.9141582999145608,1.4924845327046283,,experiment,emotion,1.0,,,,1268.3186968999216,220,23,male,True,12682,12701,False,False,inspiration,expiration
410,97.0,25,F,down,0.9202918000519276,0.7982768635267485,,experiment,emotion,1.0,,,,1271.3185533999929,220,23,male,True,12712,12721,False,False,expiration,inspiration
411,95.0,25,M,down,1.5453649000264704,1.3508481817422353,,experiment,emotion,1.0,,,,1273.8684748999076,220,23,male,True,12738,12753,False,False,expiration,inspiration
412,93.0,25,F,down,0.6937222999986261,0.4210125911016709,,experiment,emotion,1.0,,,,1276.1350634999108,220,23,male,True,12761,12768,False,False,expiration,expiration
413,97.0,25,F,down,1.1556873000226917,0.7168056059554535,,experiment,emotion,1.0,,,,1277.8181558999934,220,23,male,True,12778,12790,False,False,expiration,inspiration
414,95.0,25,F,down,0.7392998000141233,1.5046664640359,,experiment,emotion,1.0,,,,1280.7515515999405,220,23,male,True,12807,12814,False,False,expiration,expiration
415,97.0,25,M,down,0.9610592001117766,1.3367933415999091,,experiment,emotion,1.0,,,,1283.084813299938,220,23,male,True,12830,12840,False,False,inspiration,expiration
416,93.0,25,M,up,1.0221172000747174,0.9738542324414468,,experiment,emotion,1.0,,,,1285.284716199967,220,23,male,True,12852,12862,False,False,expiration,inspiration
417,100.0,25,F,down,1.515560199972242,1.4642986700132008,,experiment,emotion,1.0,,,,1288.0512969999108,220,23,male,True,12880,12895,False,False,expiration,expiration
418,97.0,25,M,,,1.220532444837908,,experiment,emotion,1.0,,,,1291.067833899986,220,23,male,True,12910,0,False,False,peak,0
419,100.0,25,F,down,1.3621182999340815,1.498716479073502,,experiment,emotion,1.0,,,,1295.2676939999221,220,23,male,True,12952,12966,False,False,expiration,expiration
420,93.0,25,M,down,1.1209480001125485,0.5895224501075573,,experiment,emotion,1.0,,,,1297.5009089999367,220,23,male,True,12974,12985,False,False,inspiration,expiration
421,95.0,25,M,down,0.9873293000273408,1.0496228672280778,,experiment,emotion,1.0,,,,1299.9675197999459,220,23,male,True,12999,13009,False,False,expiration,inspiration
422,0.07676348088268421,25,up,up,0.7398512000218034,1.7672217157944183,,experiment,cRDM,1.0,,,,1305.4339941999642,220,23,male,True,13054,13061,False,False,expiration,expiration
423,0.07676348088268421,25,up,down,0.7199448000174016,1.2591857270148457,,experiment,cRDM,1.0,,,,1307.6838982999325,220,23,male,True,13076,13083,False,False,expiration,expiration
424,0.07676348088268421,25,down,down,0.5727041000500321,1.497486342756959,,experiment,cRDM,1.0,,,,1310.1671323999765,220,23,male,True,13101,13107,False,False,expiration,inspiration
425,0.07676348088268421,25,down,down,1.4525872999802232,0.6541906280046303,,experiment,cRDM,1.0,,,,1311.6504149999234,220,23,male,True,13116,13131,False,False,inspiration,expiration
426,0.07676348088268421,25,up,down,0.9918822000036016,1.9078439653074784,,experiment,cRDM,1.0,,,,1315.2669635999482,220,23,male,True,13152,13162,False,False,peak,expiration
427,0.07676348088268421,25,down,down,0.6016499000834301,1.3451074401836118,,experiment,cRDM,1.0,,,,1317.8502098999452,220,23,male,True,13178,13184,False,False,trough,inspiration
428,0.07676348088268421,25,up,up,0.6814320000121371,1.4217019154009551,,experiment,cRDM,1.0,,,,1320.1334549000019,220,23,male,True,13201,13208,False,False,expiration,expiration
429,0.07676348088268421,25,up,up,1.1948115000268444,0.9526744431910406,,experiment,cRDM,1.0,,,,1322.050038699992,220,23,male,True,13220,13232,False,False,inspiration,expiration
430,0.07676348088268421,25,down,down,0.7315364999230951,0.4911085212005705,,experiment,cRDM,1.0,,,,1323.9833095999202,220,23,male,True,13239,13246,False,False,expiration,expiration
431,0.07676348088268421,25,down,up,0.672433799947612,1.4385333657141202,,experiment,cRDM,1.0,,,,1326.416432500002,220,23,male,True,13264,13271,False,False,peak,expiration
432,0.07676348088268421,25,down,down,0.3838570000370965,0.3961931030157029,,experiment,cRDM,1.0,,,,1327.7498115999624,220,23,male,True,13277,13281,False,False,expiration,expiration
433,0.07676348088268421,25,down,up,0.2504491999279708,1.7991561847372932,,experiment,cRDM,1.0,,,,1330.2330958999228,220,23,male,True,13302,13305,False,False,expiration,expiration
434,0.07676348088268421,25,down,up,0.5198215999407694,0.9363948552786934,,experiment,cRDM,1.0,,,,1331.8330229999265,220,23,male,True,13318,13323,False,False,expiration,inspiration
435,0.07676348088268421,25,down,up,0.893302199896425,1.1778065988899449,,experiment,cRDM,1.0,,,,1333.7995853999166,220,23,male,True,13337,13346,False,False,expiration,expiration
436,0.07676348088268421,25,up,up,0.8490284000290558,1.7331988204690152,,experiment,cRDM,1.0,,,,1336.6828227000078,220,23,male,True,13366,13374,False,False,expiration,expiration
437,0.07676348088268421,25,up,up,0.6081093000248075,0.6281797837868862,,experiment,cRDM,1.0,,,,1338.4327873999719,220,23,male,True,13384,13390,False,False,expiration,inspiration
438,0.07676348088268421,25,up,up,1.1158223000820726,0.4498957486335945,,experiment,cRDM,1.0,,,,1339.7660442999334,220,23,male,True,13397,13408,False,False,inspiration,expiration
439,0.07676348088268421,25,up,up,0.7428863000823185,1.2182136806407726,,experiment,cRDM,1.0,,,,1342.3659572999459,220,23,male,True,13423,13430,False,False,expiration,trough
440,0.07676348088268421,25,down,down,0.878665899974294,1.6737624577121093,,experiment,cRDM,1.0,,,,1345.0491837000009,220,23,male,True,13450,13459,False,False,expiration,expiration
441,0.07676348088268421,25,up,up,0.6761924000456929,1.3203883928200004,,experiment,cRDM,1.0,,,,1347.5156541999895,220,23,male,True,13475,13482,False,False,inspiration,peak
442,0.07676348088268421,25,up,up,0.6708207000046968,0.5441556309325211,,experiment,cRDM,1.0,,,,1348.999026699923,220,23,male,True,13489,13496,False,False,expiration,expiration
443,0.07676348088268421,25,down,up,0.7443638000404462,1.7820931958204214,,experiment,cRDM,1.0,,,,1351.7154761999843,220,23,male,True,13517,13524,False,False,expiration,expiration
444,0.07676348088268421,25,up,up,0.6700143000343814,1.0286195621016123,,experiment,cRDM,1.0,,,,1353.7488655999769,220,23,male,True,13537,13544,False,False,inspiration,inspiration
445,0.07676348088268421,25,down,up,0.662380599998869,1.8008312996370803,,experiment,cRDM,1.0,,,,1356.4654326000016,220,23,male,True,13564,13571,False,False,expiration,expiration
446,0.07676348088268421,25,down,up,0.6914854000788182,0.9110119996365541,,experiment,cRDM,1.0,,,,1358.3153658999365,220,23,male,True,13583,13590,False,False,inspiration,expiration
447,0.07676348088268421,25,up,up,0.4452450999524444,1.379116176069687,,experiment,cRDM,1.0,,,,1360.6486256999194,220,23,male,True,13606,13610,False,False,expiration,trough
448,0.07676348088268421,25,up,up,0.6276293999981135,1.309225067521074,,experiment,cRDM,1.0,,,,1362.6652118999045,220,23,male,True,13626,13632,False,False,expiration,expiration
449,0.07676348088268421,25,down,up,0.8780266999965534,0.9220826037732276,,experiment,cRDM,1.0,,,,1364.4818206999914,220,23,male,True,13644,13653,False,False,expiration,inspiration
450,0.07676348088268421,25,up,up,0.5564897999865934,1.6307017024844448,,experiment,cRDM,1.0,,,,1367.248350000009,220,23,male,True,13672,13678,False,False,expiration,expiration
451,0.07676348088268421,25,down,up,0.6198930999962613,1.557992268282551,,experiment,cRDM,1.0,,,,1369.6150030000135,220,23,male,True,13696,13702,False,False,expiration,expiration
452,0.07676348088268421,25,down,up,0.6479892999632284,0.4109401890583163,,experiment,cRDM,1.0,,,,1370.9148462999146,220,23,male,True,13709,13715,False,False,expiration,inspiration
453,0.07676348088268421,25,down,down,0.7831584000959992,1.4860485835487964,,experiment,cRDM,1.0,,,,1373.3146773999326,220,23,male,True,13733,13741,False,False,expiration,expiration
454,0.07676348088268421,25,up,up,0.7244209999917075,0.5596872303962444,,experiment,cRDM,1.0,,,,1374.9314327000175,220,23,male,True,13749,13756,False,False,trough,inspiration
455,0.07676348088268421,25,up,down,0.8345281999791041,1.6582636383926197,,experiment,cRDM,1.0,,,,1377.5813090999145,220,23,male,True,13775,13783,False,False,expiration,expiration
456,0.07676348088268421,25,up,up,0.5135894999839365,1.3544458051875898,,experiment,cRDM,1.0,,,,1380.0312477999832,220,23,male,True,13800,13805,False,False,peak,expiration
457,0.07676348088268421,25,down,up,0.7249890000093728,1.0932472675710976,,experiment,cRDM,1.0,,,,1381.8978167999305,220,23,male,True,13818,13825,False,False,expiration,inspiration
458,0.07676348088268421,25,down,up,0.8166873999871314,0.3555076596560327,,experiment,cRDM,1.0,,,,1383.231134200003,220,23,male,True,13832,13840,False,False,inspiration,expiration
459,0.07676348088268421,25,up,up,1.1985155000584198,1.5534158794458701,,experiment,cRDM,1.0,,,,1385.864387699985,220,23,male,True,13858,13870,False,False,inspiration,expiration
460,0.07676348088268421,25,down,down,1.695291699958034,1.3763772184480187,,experiment,cRDM,1.0,,,,1388.6975759000052,220,23,male,True,13886,13903,False,False,expiration,inspiration
461,0.07676348088268421,25,up,up,0.7281088000163436,1.1819691504247491,,experiment,cRDM,1.0,,,,1391.8307536999928,220,23,male,True,13918,13925,False,False,expiration,expiration
462,0.07676348088268421,25,up,down,0.717118899920024,0.5643479091038064,,experiment,cRDM,1.0,,,,1393.3807372999145,220,23,male,True,13933,13940,False,False,inspiration,inspiration
463,0.07676348088268421,25,up,up,0.9375034999102354,1.343237578762798,,experiment,cRDM,1.0,,,,1395.6973195999165,220,23,male,True,13956,13965,False,False,expiration,expiration
464,0.07676348088268421,25,down,down,1.1105711999116463,0.4563833466579238,,experiment,cRDM,1.0,,,,1397.347286199918,220,23,male,True,13973,13984,False,False,inspiration,expiration
465,0.07676348088268421,25,down,up,1.5977579000173137,0.7800217331039223,,experiment,cRDM,1.0,,,,1399.4971172999356,220,23,male,True,13995,14011,False,False,expiration,inspiration
466,0.07676348088268421,25,up,down,2.1438154999632393,0.3342974207824105,,experiment,cRDM,1.0,,,,1401.6970816999676,220,23,male,True,14016,14037,False,False,expiration,inspiration
467,0.07676348088268421,25,down,up,0.8631899999454618,1.2618260738968439,,experiment,cRDM,1.0,,,,1405.3636423000135,220,23,male,True,14053,14062,False,False,expiration,expiration
468,0.07676348088268421,25,down,down,1.0135664999252183,0.3903706261506449,,experiment,cRDM,1.0,,,,1406.8802627999105,220,23,male,True,14068,14078,False,False,expiration,inspiration
469,0.07676348088268421,25,up,up,0.6606763999443501,1.1317894814449472,,experiment,cRDM,1.0,,,,1409.2801634999923,220,23,male,True,14092,14099,False,False,expiration,expiration
470,0.07676348088268421,25,up,down,0.7124501999933273,0.9612743891691968,,experiment,cRDM,1.0,,,,1411.1634163999695,220,23,male,True,14111,14118,False,False,inspiration,inspiration
471,0.07676348088268421,25,down,up,0.6999923000112176,1.7881882144758747,,experiment,cRDM,1.0,,,,1413.9298525999766,220,23,male,True,14139,14146,False,False,expiration,expiration
472,0.07676348088268421,25,up,up,0.7372352000093088,0.8550365994386302,,experiment,cRDM,1.0,,,,1415.7465869999726,220,23,male,True,14157,14164,False,False,inspiration,peak
473,0.07676348088268421,25,down,up,0.8594939999748021,1.5560830276925652,,experiment,cRDM,1.0,,,,1418.2963743999137,220,23,male,True,14183,14192,False,False,expiration,inspiration
474,0.07676348088268421,25,down,down,0.7077204999513924,1.5826204280075111,,experiment,cRDM,1.0,,,,1421.0130686999764,220,23,male,True,14210,14217,False,False,expiration,expiration
475,0.07676348088268421,25,down,up,0.6551379000302404,0.6443952438693488,,experiment,cRDM,1.0,,,,1422.6296889999646,220,23,male,True,14226,14233,False,False,trough,inspiration
476,0.07676348088268421,25,up,down,2.0789092000341043,1.5559696810560346,,experiment,cRDM,1.0,,,,1425.1129377000034,220,23,male,True,14251,14272,False,False,expiration,inspiration
477,0.07676348088268421,25,up,up,0.7253550000023097,1.0343638858111397,,experiment,cRDM,1.0,,,,1428.4794601999454,220,23,male,True,14284,14291,False,False,expiration,expiration
478,0.07676348088268421,25,down,up,0.6454102999996394,1.7489495788812452,,experiment,cRDM,1.0,,,,1431.2294095999093,220,23,male,True,14312,14318,False,False,inspiration,peak
479,0.07676348088268421,25,down,up,0.5502769999438897,1.7220677591779296,,experiment,cRDM,1.0,,,,1433.8625900999175,220,23,male,True,14338,14344,False,False,expiration,inspiration
480,0.07676348088268421,25,up,up,0.7529785999795422,0.8564485186627113,,experiment,cRDM,1.0,,,,1435.5458699999147,220,23,male,True,14355,14363,False,False,inspiration,expiration
481,0.07676348088268421,25,up,up,0.7354023000225425,1.887691143057478,,experiment,cRDM,1.0,,,,1438.4624267999316,220,23,male,True,14384,14391,False,False,expiration,inspiration
482,0.07676348088268421,25,up,up,0.6915008000796661,0.8085708749236273,,experiment,cRDM,1.0,,,,1440.2623453999404,220,23,male,True,14402,14409,False,False,expiration,expiration
483,0.07676348088268421,25,up,up,0.5799186000367627,0.4509484865024996,,experiment,cRDM,1.0,,,,1441.6789685999975,220,23,male,True,14416,14422,False,False,expiration,expiration
484,0.07676348088268421,25,up,up,0.7356291000032797,1.0874317407492364,,experiment,cRDM,1.0,,,,1443.612205799902,220,23,male,True,14436,14443,False,False,inspiration,expiration
485,0.07676348088268421,25,down,up,0.8597521000774577,0.7821248393710577,,experiment,cRDM,1.0,,,,1445.412083299947,220,23,male,True,14454,14463,False,False,expiration,expiration
486,0.07676348088268421,25,down,up,2.338136200094596,1.34210657050147,,experiment,cRDM,1.0,,,,1447.8787363999288,220,23,male,True,14478,14501,False,False,peak,expiration
487,0.07676348088268421,25,up,down,2.1265216999454424,0.7573111947886266,,experiment,cRDM,1.0,,,,1451.2453051999912,220,23,male,True,14512,14533,False,False,inspiration,expiration
488,0.07676348088268421,25,down,up,0.8613863999489695,1.3547323201402548,,experiment,cRDM,1.0,,,,1454.9784716999854,220,23,male,True,14549,14558,False,False,inspiration,expiration
489,0.07676348088268421,25,down,,,1.7087337331357448,,experiment,cRDM,1.0,,,,1457.7950404000005,220,23,male,True,14577,0,False,False,inspiration,0
490,0.07676348088268421,25,down,up,1.0742482000496238,1.1800036731099155,,experiment,cRDM,1.0,,,,1461.6615803999591,220,23,male,True,14616,14627,False,False,inspiration,expiration
491,0.07676348088268421,25,up,up,1.2563291999977082,0.9689908018472831,,experiment,cRDM,1.0,,,,1463.9614950999382,220,23,male,True,14639,14652,False,False,expiration,inspiration
492,0.07676348088268421,25,down,up,1.0501217999262735,0.3196031457045124,,experiment,cRDM,1.0,,,,1465.7947240999201,220,23,male,True,14657,14668,False,False,inspiration,expiration
493,0.07676348088268421,25,down,up,2.0108093000017107,0.4208462323288601,,experiment,cRDM,1.0,,,,1467.528043499915,220,23,male,True,14675,14695,False,False,expiration,expiration
494,0.07676348088268421,25,down,up,0.9056535999989136,1.4668305823230234,,experiment,cRDM,1.0,,,,1471.261208700016,220,23,male,True,14712,14721,False,False,expiration,inspiration
495,0.07676348088268421,25,up,up,0.7073662999318913,1.49816076366439,,experiment,cRDM,1.0,,,,1473.944455799996,220,23,male,True,14739,14746,False,False,expiration,expiration
496,0.07676348088268421,25,up,up,0.9518588000210002,0.5058823056925592,,experiment,cRDM,1.0,,,,1475.4109990999566,220,23,male,True,14754,14764,False,False,inspiration,inspiration
497,0.07676348088268421,25,down,down,1.689095199923031,1.2974108191212241,,experiment,cRDM,1.0,,,,1477.9276757999326,220,23,male,True,14779,14796,False,False,expiration,inspiration
498,0.07676348088268421,25,up,up,1.0003361999988556,0.5945713542833195,,experiment,cRDM,1.0,,,,1480.4775123000147,220,23,male,True,14804,14814,False,False,expiration,expiration
499,0.07676348088268421,25,down,up,0.9780279999831692,0.7150495469700829,,experiment,cRDM,1.0,,,,1482.4608002000025,220,23,male,True,14824,14834,False,False,inspiration,inspiration
500,0.07676348088268421,25,up,up,1.4014264000579717,0.974015440328002,,experiment,cRDM,1.0,,,,1484.677390399971,220,23,male,True,14846,14860,False,False,expiration,inspiration
501,0.07676348088268421,25,up,up,1.1878638999769464,1.2601218062885602,,experiment,cRDM,1.0,,,,1487.593931899988,220,23,male,True,14875,14887,False,False,expiration,expiration
502,100.0,25,M,,,0.7329761053486425,,experiment,emotion,2.0,,,,1491.9937655999095,220,23,male,True,14919,0,False,False,expiration,0
503,93.0,25,M,down,1.3218937999336051,1.78713938025606,,experiment,emotion,2.0,,,,1496.4769633999094,220,23,male,True,14964,14977,False,False,expiration,inspiration
504,97.0,25,F,up,0.6926560000283644,1.4683742071378814,,experiment,emotion,2.0,,,,1499.5601718999676,220,23,male,True,14995,15002,False,False,expiration,expiration
505,100.0,25,F,up,0.6820887000067161,1.9370954729145964,,experiment,emotion,2.0,,,,1502.476735999924,220,23,male,True,15024,15031,False,False,inspiration,expiration
506,97.0,25,M,up,1.4251301999902353,0.5815712536802848,,experiment,emotion,2.0,,,,1504.0266759999795,220,23,male,True,15040,15054,False,False,expiration,inspiration
507,95.0,25,F,down,0.8602495000232011,0.7730593492973017,,experiment,emotion,2.0,,,,1506.5265970999606,220,23,male,True,15065,15074,False,False,expiration,expiration
508,93.0,25,M,,,0.4239334771460704,,experiment,emotion,2.0,,,,1508.0931739999216,220,23,male,True,15080,0,False,False,expiration,0
509,95.0,25,M,up,1.0763969999970868,1.3545847275008938,,experiment,emotion,2.0,,,,1512.1263985999396,220,23,male,True,15121,15132,False,False,expiration,expiration
510,100.0,25,F,up,0.78422499995213,1.177364557213051,,experiment,emotion,2.0,,,,1514.659628399997,220,23,male,True,15146,15154,False,False,inspiration,expiration
511,95.0,25,F,down,1.216023200075142,1.6320344032508016,,experiment,emotion,2.0,,,,1517.342842099955,220,23,male,True,15173,15185,False,False,expiration,inspiration
512,97.0,25,F,up,0.7654246999882162,1.9080061693612171,,experiment,emotion,2.0,,,,1520.759391399915,220,23,male,True,15207,15215,False,False,expiration,inspiration
513,100.0,25,F,down,1.4848504000110552,1.6929748168929897,,experiment,emotion,2.0,,,,1523.4759660999991,220,23,male,True,15234,15249,False,False,expiration,expiration
514,97.0,25,F,up,1.4222957999445498,0.655098043119595,,experiment,emotion,2.0,,,,1525.8925209000006,220,23,male,True,15258,15272,False,False,inspiration,expiration
515,93.0,25,F,up,0.7553892999421805,0.6026678632826481,,experiment,emotion,2.0,,,,1528.1924433999231,220,23,male,True,15281,15289,False,False,expiration,expiration
516,95.0,25,M,up,0.970881399931386,1.4658398089032394,,experiment,emotion,2.0,,,,1530.7089540999148,220,23,male,True,15307,15317,False,False,expiration,expiration
517,93.0,25,M,up,0.5858569999691099,1.0168429402239738,,experiment,emotion,2.0,,,,1532.9589562999317,220,23,male,True,15329,15335,False,False,inspiration,inspiration
518,100.0,25,M,up,0.5722811999730766,0.7127697567396871,,experiment,emotion,2.0,,,,1534.5255735999674,220,23,male,True,15345,15351,False,False,expiration,expiration
519,93.0,25,M,up,0.4796448999550194,0.7824117323271358,,experiment,emotion,2.0,,,,1536.1421715999024,220,23,male,True,15361,15366,False,False,inspiration,inspiration
520,97.0,25,F,up,0.6680790000827983,1.7776455835660654,,experiment,emotion,2.0,,,,1538.6587356999514,220,23,male,True,15386,15393,False,False,expiration,inspiration
521,97.0,25,M,up,0.6492443999741226,0.7009729424805484,,experiment,emotion,2.0,,,,1540.3085447999185,220,23,male,True,15403,15409,False,False,expiration,expiration
522,95.0,25,M,up,0.31694429996423423,1.8583376218259533,,experiment,emotion,2.0,,,,1543.0752258999273,220,23,male,True,15430,15433,False,False,inspiration,inspiration
523,95.0,25,F,up,0.7682673000963405,0.5902644289529135,,experiment,emotion,2.0,,,,1544.3585427999496,220,23,male,True,15443,15451,False,False,expiration,expiration
524,93.0,25,M,down,1.05503780010622,1.1518995141339918,,experiment,emotion,2.0,,,,1546.5417758999392,220,23,male,True,15465,15476,False,False,inspiration,expiration
525,100.0,25,F,up,0.7234622000250965,0.7229941377012071,,experiment,emotion,2.0,,,,1548.6083471999734,220,23,male,True,15486,15493,False,False,expiration,expiration
526,97.0,25,F,up,0.6626799999503419,1.5966648144876718,,experiment,emotion,2.0,,,,1551.2081571000165,220,23,male,True,15512,15519,False,False,expiration,expiration
527,93.0,25,M,up,1.0235833999468014,1.1234674106311953,,experiment,emotion,2.0,,,,1553.2582254000006,220,23,male,True,15532,15542,False,False,inspiration,inspiration
528,100.0,25,M,down,1.2686818999936804,0.704448966049811,,experiment,emotion,2.0,,,,1555.2581129999596,220,23,male,True,15552,15565,False,False,expiration,expiration
529,100.0,25,F,up,1.3384455000050366,1.1431311280658951,,experiment,emotion,2.0,,,,1557.941362899961,220,23,male,True,15579,15592,False,False,peak,expiration
530,95.0,25,M,down,1.0352652000728997,0.8448732874283273,,experiment,emotion,2.0,,,,1560.4246351999466,220,23,male,True,15604,15614,False,False,expiration,inspiration
531,93.0,25,F,down,0.6883319999324158,1.2489717928124908,,experiment,emotion,2.0,,,,1562.9745147000067,220,23,male,True,15629,15636,False,False,expiration,expiration
532,95.0,25,F,down,0.624040300026536,1.82535425936606,,experiment,emotion,2.0,,,,1565.7577488999814,220,23,male,True,15657,15663,False,False,expiration,expiration
533,97.0,25,F,down,0.8311571000376716,1.8896568626477503,,experiment,emotion,2.0,,,,1568.5576494999696,220,23,male,True,15685,15693,False,False,inspiration,expiration
534,93.0,25,M,down,0.8563590999692678,1.5032191969818534,,experiment,emotion,2.0,,,,1571.1575613999742,220,23,male,True,15711,15720,False,False,inspiration,inspiration
535,100.0,25,M,down,1.1474356999387965,1.5162566051366102,,experiment,emotion,2.0,,,,1573.8073695999335,220,23,male,True,15738,15749,False,False,expiration,inspiration
536,97.0,25,M,up,0.9082104999106376,0.956616706589821,,experiment,emotion,2.0,,,,1576.1906851999229,220,23,male,True,15761,15770,False,False,expiration,expiration
537,100.0,25,F,up,0.7572185000171885,0.3158970326339754,,experiment,emotion,2.0,,,,1577.69062020001,220,23,male,True,15776,15784,False,False,expiration,inspiration
538,93.0,25,F,down,1.516290400060825,1.0689618898107702,,experiment,emotion,2.0,,,,1579.790522599942,220,23,male,True,15798,15813,False,False,expiration,expiration
539,97.0,25,M,up,0.7546947000082582,0.6848661702589149,,experiment,emotion,2.0,,,,1582.2571348999627,220,23,male,True,15822,15830,False,False,inspiration,expiration
540,95.0,25,F,up,1.280816699960269,1.6047221920282984,,experiment,emotion,2.0,,,,1584.9069902999329,220,23,male,True,15849,15862,False,False,expiration,inspiration
541,95.0,25,M,up,0.7408568999962881,1.0966078936114694,,experiment,emotion,2.0,,,,1587.5569504000016,220,23,male,True,15875,15882,False,False,expiration,expiration
542,97.0,25,M,up,0.9046434999909252,1.025456033345835,,experiment,emotion,2.0,,,,1589.5901811999502,220,23,male,True,15895,15904,False,False,inspiration,expiration
543,100.0,25,M,up,1.4453568999888375,0.8890264171811473,,experiment,emotion,2.0,,,,1591.6734646999976,220,23,male,True,15916,15930,False,False,expiration,inspiration
544,95.0,25,F,up,0.710253500030376,1.7203494676039162,,experiment,emotion,2.0,,,,1595.1065690999383,220,23,male,True,15951,15958,False,False,expiration,inspiration
545,93.0,25,F,up,0.7239010999910533,0.788408500145932,,experiment,emotion,2.0,,,,1596.8899056999944,220,23,male,True,15968,15975,False,False,expiration,expiration
