,stimLvl,stimTime,rand,response,rt,precedingITI,trialNumber,trialType,stimuli,block,estIntens,estThres,estSlope,trialStart,subject,age,gender,headRest,onset,responsI,manBadOnset,manBadRespons,onset_phase,respons_phase
0,0.9,100,down,,,0.6107582246054043,,introTrial,cRDM,,,,,93.23336949999792,224,25,female,True,931,0,False,False,expiration,0
1,150.0,100,F,,,0.6187463227555993,,introTrial,emotion,,,,,97.79977539999528,224,25,female,True,977,0,False,False,expiration,0
2,200.0,25,F,up,0.5841964999854099,1.1140793058097538,,tutorial,emotion,,,,,139.0982251999958,224,25,female,True,1390,1396,False,False,inspiration,inspiration
3,200.0,25,F,up,0.4169002999842633,0.7376767705213297,,tutorial,emotion,,,,,140.69816770000034,224,25,female,True,1406,1410,False,False,expiration,expiration
4,200.0,25,M,up,0.4659796000050847,1.367793735754522,,tutorial,emotion,,,,,142.781493699993,224,25,female,True,1426,1431,False,False,expiration,expiration
5,0.0,25,M,down,0.47972600001958204,1.287870990548804,,tutorial,emotion,,,,,144.81476809998276,224,25,female,True,1447,1452,False,False,inspiration,inspiration
6,0.0,25,M,down,0.38354870001785457,1.2354730641601015,,tutorial,emotion,,,,,146.79800439998507,224,25,female,True,1467,1471,False,False,expiration,inspiration
7,200.0,25,M,up,0.5219069000158925,1.5113628049835208,,tutorial,emotion,,,,,149.01461419998668,224,25,female,True,1489,1494,False,False,expiration,expiration
8,0.0,25,M,down,0.5629959999932908,0.6865647958897798,,tutorial,emotion,,,,,150.51453639997638,224,25,female,True,1504,1510,False,False,inspiration,expiration
9,200.0,25,F,up,0.3834896999760531,1.888756720170916,,tutorial,emotion,,,,,153.24779159997706,224,25,female,True,1531,1535,False,False,inspiration,inspiration
10,0.0,25,F,down,0.4167248999874573,0.8789942520982563,,tutorial,emotion,,,,,154.83108589999028,224,25,female,True,1547,1551,False,False,expiration,expiration
11,0.0,25,F,down,0.6505417000153102,1.6016003222320048,,tutorial,emotion,,,,,157.13099479998345,224,25,female,True,1570,1577,False,False,expiration,expiration
12,0.9,25,up,up,0.7515956999850459,1.2761915205139145,,tutorial,cRDM,,,,,168.76386819998154,224,25,female,True,1686,1694,False,False,expiration,expiration
13,0.9,25,up,up,0.4819936999992933,0.9049575992138129,,tutorial,cRDM,,,,,170.73050449998118,224,25,female,True,1706,1711,False,False,inspiration,expiration
14,0.9,25,down,down,0.4963896999834106,0.34939556662349003,,tutorial,cRDM,,,,,171.84710539999648,224,25,female,True,1717,1722,False,False,expiration,expiration
15,0.9,25,down,down,0.3005073999811429,1.9747858435088077,,tutorial,cRDM,,,,,174.59684929999642,224,25,female,True,1745,1748,False,False,expiration,expiration
16,0.9,25,up,up,0.4612095000047702,0.3864463461658183,,tutorial,cRDM,,,,,175.68027839998834,224,25,female,True,1755,1760,False,False,expiration,expiration
17,0.9,25,down,down,0.3004724999773316,1.3128237684362405,,tutorial,cRDM,,,,,177.73025490000148,224,25,female,True,1776,1779,False,False,expiration,expiration
18,0.9,25,up,up,0.5826499999966472,1.6207520049179192,,tutorial,cRDM,,,,,180.0468397999939,224,25,female,True,1799,1805,False,False,inspiration,expiration
19,0.9,25,up,down,0.4002464000077453,1.522682114441196,,tutorial,cRDM,,,,,182.43005269998685,224,25,female,True,1823,1827,False,False,inspiration,inspiration
20,0.9,25,down,down,0.6149580999917816,0.6694087584677788,,tutorial,cRDM,,,,,183.7964902999811,224,25,female,True,1837,1843,False,False,expiration,expiration
21,0.9,25,down,down,0.4535592999891378,0.8807653841818324,,tutorial,cRDM,,,,,185.5799278999912,224,25,female,True,1854,1859,False,False,inspiration,inspiration
22,100.0,25,M,up,0.6324731000058819,1.684660526459323,,psi_staircase_training,emotion,,100.0,100.0,25.00050000000001,201.54601879999973,224,25,female,True,2014,2020,False,False,inspiration,expiration
23,55.0,25,M,down,0.4599113999865949,1.6684496990261348,,psi_staircase_training,emotion,,54.742809467541896,54.742809467541896,25.00050000000011,204.2125892999757,224,25,female,True,2041,2046,False,False,expiration,expiration
24,79.0,25,F,down,0.7336402999935672,1.2253755103799089,,psi_staircase_training,emotion,,79.636070985635,79.636070985635,25.71326925488641,206.2458342999744,224,25,female,True,2061,2068,False,False,inspiration,expiration
25,103.0,25,F,up,0.41670269999303855,0.9315238892330288,,psi_staircase_training,emotion,,97.61123893914808,97.61123893914808,26.1463337262867,208.26241119997573,224,25,female,True,2081,2085,False,False,expiration,expiration
26,87.0,25,M,down,0.6037999999825843,1.262857853516922,,psi_staircase_training,emotion,,85.98876744579668,85.98876744579668,23.003056417783494,210.29568270000163,224,25,female,True,2102,2108,False,False,expiration,expiration
27,95.0,25,F,up,0.4872309000056703,0.4295701134239497,,psi_staircase_training,emotion,,95.05640406123078,95.05640406123078,22.150603223582724,211.67923219999645,224,25,female,True,2116,2121,False,False,expiration,inspiration
28,84.0,25,M,down,0.942582699994091,1.1078561451967872,,psi_staircase_training,emotion,,88.41622646561945,88.41622646561945,20.597853251064073,213.62890199999677,224,25,female,True,2135,2144,False,False,expiration,expiration
29,92.0,25,F,up,0.4816912999958731,0.3991835128223104,,psi_staircase_training,emotion,,92.48012886422012,92.48012886422012,17.547034846052448,215.32883499999298,224,25,female,True,2152,2157,False,False,inspiration,inspiration
30,84.0,25,F,up,0.7563241000170821,0.6601457229543488,,psi_staircase_training,emotion,,88.47501306238607,88.47501306238607,16.344870876655484,216.8121418999799,224,25,female,True,2167,2175,False,False,expiration,expiration
31,71.0,25,M,down,0.5894784000120126,1.4392983846887308,,psi_staircase_training,emotion,,83.1053338170673,83.1053338170673,23.85893214584573,219.36200199997987,224,25,female,True,2192,2198,False,False,expiration,expiration
32,73.0,25,F,up,0.7841812999977265,1.3733415950641945,,psi_staircase_training,emotion,,85.79596557166968,85.79596557166968,21.15010536825469,221.69527699999162,224,25,female,True,2216,2224,False,False,expiration,expiration
33,61.0,25,F,up,0.7436461999895982,0.4451224434222839,,psi_staircase_training,emotion,,80.15474558274951,80.15474558274951,28.757577148279534,223.2618493999762,224,25,female,True,2231,2238,False,False,expiration,inspiration
34,51.0,25,F,down,0.3835286000103224,1.8628614152837681,,psi_staircase_training,emotion,,73.50303241665303,73.50303241665303,34.27232056253384,226.22841439998592,224,25,female,True,2261,2265,False,False,expiration,inspiration
35,52.0,25,M,down,0.8077527999994345,0.8398354078196479,,psi_staircase_training,emotion,,75.89090889538754,75.89090889538754,33.03512630763931,227.8117043999955,224,25,female,True,2277,2285,False,False,expiration,expiration
36,53.0,25,M,down,1.0578591000230515,1.6948118642756502,,psi_staircase_training,emotion,,77.80587695602236,77.80587695602236,31.860547035260968,230.661587199982,224,25,female,True,2305,2316,False,False,expiration,expiration
37,104.0,25,F,up,0.5783731999981683,0.6091437205638573,,psi_staircase_training,emotion,,79.36543082643266,79.36543082643266,30.74674375650416,232.67807979998182,224,25,female,True,2326,2332,False,False,inspiration,inspiration
38,53.0,25,F,down,0.7337280999927316,1.770409878042324,,psi_staircase_training,emotion,,77.90996786305531,77.90996786305531,29.53787226267739,235.34477070000142,224,25,female,True,2352,2359,False,False,inspiration,expiration
39,104.0,25,M,up,0.5402037000167184,1.9750115704653768,,psi_staircase_training,emotion,,79.1420593367369,79.1420593367369,28.381302761020475,238.37825159999196,224,25,female,True,2383,2388,False,False,inspiration,expiration
40,54.0,25,M,down,0.5752251999801956,1.9236245542081152,,psi_staircase_training,emotion,,78.00093945121165,78.00093945121165,27.17288671242317,241.21121319997474,224,25,female,True,2411,2417,False,False,inspiration,expiration
41,103.0,25,M,up,0.4166837999946438,1.1295268659394022,,psi_staircase_training,emotion,,79.01193256684276,79.01193256684276,26.02020145410521,243.26112099998863,224,25,female,True,2431,2435,False,False,inspiration,inspiration
42,56.0,25,M,down,0.7891067999880761,1.9059433791281453,,psi_staircase_training,emotion,,78.08522927941482,78.08522927941482,24.853923164383968,245.94437579999797,224,25,female,True,2458,2466,False,False,trough,inspiration
43,101.0,25,F,up,0.5066108999890275,1.8371954243254216,,psi_staircase_training,emotion,,78.95695280529814,78.95695280529814,23.74297385254196,248.91092359999308,224,25,female,True,2488,2493,False,False,inspiration,peak
44,57.0,25,F,down,0.5283016999892425,1.6726809186601062,,psi_staircase_training,emotion,,78.16817770310948,78.16817770310948,22.648168196619693,251.44416999997338,224,25,female,True,2513,2518,False,False,inspiration,inspiration
45,100.0,25,F,up,0.4914309000014328,1.2216974514382877,,psi_staircase_training,emotion,,78.89797356552876,78.89797356552876,21.62896171053832,253.54407879998325,224,25,female,True,2534,2539,False,False,expiration,inspiration
46,60.0,25,M,down,0.6618192000023555,1.3194193261971563,,psi_staircase_training,emotion,,78.24911751647544,78.24911751647544,20.65280612150064,255.71067979998767,224,25,female,True,2556,2563,False,False,expiration,expiration
47,98.0,25,M,up,0.7083153999992646,1.461196730524872,,psi_staircase_training,emotion,,78.94184914146985,78.94184914146985,19.726214133789664,258.1771679999947,224,25,female,True,2581,2588,False,False,expiration,expiration
48,62.0,25,F,down,1.022029300016584,0.7355970055742383,,psi_staircase_training,emotion,,78.3685076455783,78.3685076455783,18.86572001934602,259.9774511999858,224,25,female,True,2599,2609,False,False,trough,peak
49,64.0,25,F,down,0.7503062000032514,0.4763363915935972,,psi_staircase_training,emotion,,79.01155901753955,79.01155901753955,18.047073485438023,261.8271423999977,224,25,female,True,2617,2625,False,False,expiration,expiration
50,96.0,25,M,up,0.5314589999907184,1.29990884225164,,psi_staircase_training,emotion,,79.62443996029596,79.62443996029596,17.307940811608375,264.2270426999894,224,25,female,True,2641,2646,False,False,expiration,expiration
51,67.0,25,M,up,0.5028290000045672,0.5915323803919511,,psi_staircase_training,emotion,,79.10588928363006,79.10588928363006,16.582829678204632,265.6936462999729,224,25,female,True,2656,2661,False,False,trough,inspiration
52,0.29,25,up,up,0.6414802999934182,1.517533129254371,,psi_staircase_training,cRDM,,0.25,0.25693124029946324,0.10500000000000002,273.9599954999867,224,25,female,True,2738,2744,False,False,expiration,inspiration
53,0.25,25,up,up,0.9525696999917272,1.9887437202259444,,psi_staircase_training,cRDM,,0.21910266653183127,0.2260132002683493,0.10468632033873933,276.85988889998407,224,25,female,True,2767,2777,False,False,expiration,expiration
54,0.21,25,down,down,0.5530507999937981,0.4831381271475282,,psi_staircase_training,cRDM,,0.1900540959403307,0.19684979615540016,0.10294672984249993,278.5764031999861,224,25,female,True,2785,2791,False,False,inspiration,inspiration
55,0.18,25,down,down,0.7512871000217274,0.5805846519443333,,psi_staircase_training,cRDM,,0.1635257589279754,0.1701521334256793,0.100381647756865,279.99314409997896,224,25,female,True,2799,2807,False,False,expiration,expiration
56,0.15,25,up,up,0.5504057999933138,0.3140829143463717,,psi_staircase_training,cRDM,,0.14018955742449365,0.14660133511875031,0.0971307628663642,281.3430726999941,224,25,female,True,2812,2818,False,False,expiration,inspiration
57,0.13,25,down,down,0.5014033000043128,1.762011139316014,,psi_staircase_training,cRDM,,0.11987606021454796,0.12605547676183335,0.09361076941961036,283.9430033999961,224,25,female,True,2838,2843,False,False,expiration,trough
58,0.11,25,up,up,0.561357800004771,0.35114123910509565,,psi_staircase_training,cRDM,,0.10257735236965487,0.10849103445698656,0.08958521019937955,285.0760750999907,224,25,female,True,2850,2856,False,False,inspiration,expiration
59,0.09,25,down,down,0.5079677000176162,1.6396841251961891,,psi_staircase_training,cRDM,,0.08784432595859408,0.09348182153209693,0.08540131486476357,287.55952299997443,224,25,female,True,2874,2879,False,False,inspiration,inspiration
60,0.08,25,down,up,0.68800199998077,0.33891463117388304,,psi_staircase_training,cRDM,,0.07518520921180863,0.0805556301471181,0.08135545354720439,288.65947879999294,224,25,female,True,2885,2892,False,False,expiration,expiration
61,0.13,25,up,up,0.6430803000112064,1.4378329271504109,,psi_staircase_training,cRDM,,0.1145374077699418,0.12103712105675656,0.09846288191283688,291.05935969998245,224,25,female,True,2909,2915,False,False,expiration,expiration
62,0.13,25,down,down,0.5241831000021193,0.8894532199447602,,psi_staircase_training,cRDM,,0.1023941484636294,0.10857748278643099,0.09367011903258447,292.8593170999957,224,25,female,True,2927,2932,False,False,expiration,inspiration
63,0.12,25,down,up,0.6125482000061311,1.1665489073145632,,psi_staircase_training,cRDM,,0.093157405715179,0.09896538803474302,0.08798398514641666,294.82590419999906,224,25,female,True,2947,2953,False,False,expiration,expiration
64,0.16,25,down,down,0.5349475999828428,1.3751851945589304,,psi_staircase_training,cRDM,,0.1290085181734406,0.136602985232638,0.11504709211675675,297.09252330000163,224,25,female,True,2970,2975,False,False,expiration,expiration
65,0.16,25,up,up,0.5572937000251841,1.3493788534269966,,psi_staircase_training,cRDM,,0.1173317507949223,0.12465379317969215,0.1109201841494908,299.25908189997426,224,25,female,True,2991,2997,False,False,inspiration,expiration
66,0.15,25,up,down,0.5505949000071269,1.6834013521529299,,psi_staircase_training,cRDM,,0.10843366749217152,0.11543044405032805,0.10599279593052408,301.77590949999285,224,25,female,True,3017,3023,False,False,inspiration,expiration
67,0.2,25,down,down,0.484288400009973,1.9863139917015429,,psi_staircase_training,cRDM,,0.14409855016609446,0.15281347691523378,0.1320207162245539,304.59222349998885,224,25,female,True,3045,3050,False,False,inspiration,inspiration
68,0.19,25,down,down,0.8009709999896586,0.976611237069526,,psi_staircase_training,cRDM,,0.13259126637712648,0.14112390346443188,0.12925924588654691,306.3254828999925,224,25,female,True,3062,3070,False,False,expiration,inspiration
69,0.18,25,up,up,0.5281214000133332,1.5208578085969136,,psi_staircase_training,cRDM,,0.12330393288083467,0.13162155480034854,0.12600202327664015,308.92538449997664,224,25,female,True,3088,3093,False,False,expiration,trough
70,0.14,25,up,up,0.6431510999973398,1.1139361746152336,,psi_staircase_training,cRDM,,0.11572233632952808,0.12381126019289072,0.1225375212743451,310.82532619999256,224,25,female,True,3107,3113,False,False,expiration,expiration
71,0.14,25,up,up,0.6252070000045933,0.7780824248652816,,psi_staircase_training,cRDM,,0.10710680477941463,0.11528399028801095,0.12387457962885877,312.52525979999336,224,25,female,True,3124,3130,False,False,inspiration,peak
72,0.14,25,up,up,0.5425812999892514,1.66749840465302,,psi_staircase_training,cRDM,,0.09973460123498387,0.10790990110210134,0.1238460144158912,315.0918677999871,224,25,female,True,3150,3155,False,False,inspiration,inspiration
73,0.11,25,down,down,0.6546379000064917,0.8886578670161325,,psi_staircase_training,cRDM,,0.0935440351545593,0.1016454502194368,0.12272674803642407,316.7918126999866,224,25,female,True,3167,3174,False,False,expiration,inspiration
74,0.11,25,down,up,0.6304293999855872,1.7091745454091625,,psi_staircase_training,cRDM,,0.0865336216413926,0.09483155746005888,0.12570380239557274,319.4250308999908,224,25,female,True,3193,3199,False,False,expiration,expiration
75,0.16,25,down,down,0.7246739999973215,0.8271059309819009,,psi_staircase_training,cRDM,,0.10648934151152628,0.1144686538970861,0.1208770384931918,321.1748015999911,224,25,female,True,3211,3218,False,False,inspiration,expiration
76,0.15,25,up,up,0.5873395999951754,1.6208632195103514,,psi_staircase_training,cRDM,,0.10207595089766712,0.10980333733689536,0.11706066173781285,323.7751107999938,224,25,female,True,3237,3243,False,False,expiration,inspiration
77,0.1,25,up,down,0.4980596000095829,1.5056203606209455,,psi_staircase_training,cRDM,,0.0981069301134532,0.1056107254327054,0.11367352371010618,326.14146819998865,224,25,female,True,3260,3265,False,False,expiration,expiration
78,0.16,25,down,down,0.5627796000044327,1.5924966796412374,,psi_staircase_training,cRDM,,0.11450159686265787,0.12083083410851075,0.0958803738006334,328.52468829997815,224,25,female,True,3284,3290,False,False,inspiration,expiration
79,0.15,25,down,up,0.7265466000244487,1.4307848567174524,,psi_staircase_training,cRDM,,0.11176694893864728,0.11771008178792147,0.09003135401641055,330.80792539997486,224,25,female,True,3307,3314,False,False,expiration,expiration
80,0.18,25,up,down,0.7799371000146493,1.2203709368907851,,psi_staircase_training,cRDM,,0.12576974750182776,0.13366138879338935,0.11954892628353005,333.0245085999777,224,25,female,True,3329,3337,False,False,trough,inspiration
81,0.22,25,up,up,0.6813184999919031,0.495215900383382,,psi_staircase_training,cRDM,,0.14741447526151047,0.1570217772306285,0.14553913342688599,334.59114569998934,224,25,female,True,3345,3352,False,False,expiration,expiration
82,100.0,25,M,up,0.6697901999868918,1.9811089992973188,,psi_staircase,emotion,,100.0,100.0,25.00050000000001,356.22364689997636,224,25,female,True,3561,3568,False,False,expiration,expiration
83,55.0,25,M,down,0.5146116999967489,0.7176048180346399,,psi_staircase,emotion,,54.742809467541896,54.742809467541896,25.00050000000011,357.9569159999956,224,25,female,True,3578,3583,False,False,expiration,inspiration
84,79.0,25,F,up,0.559610900003463,1.7480070131435876,,psi_staircase,emotion,,79.636070985635,79.636070985635,25.71326925488641,360.5568102999823,224,25,female,True,3604,3610,False,False,expiration,inspiration
85,63.0,25,F,down,0.8977602999948431,1.6138483413394906,,psi_staircase,emotion,,62.164016703383474,62.164016703383474,25.29232598628389,363.07366689998884,224,25,female,True,3630,3639,False,False,expiration,inspiration
86,73.0,25,M,down,0.7787921999988612,1.5755048966538645,,psi_staircase,emotion,,73.5393094419089,73.5393094419089,23.64975108561003,365.906631699996,224,25,female,True,3658,3666,False,False,expiration,expiration
87,87.0,25,F,up,0.5493367000017315,1.8893758922191093,,psi_staircase,emotion,,82.48355301883353,82.48355301883353,24.57617413513036,368.9231731999898,224,25,female,True,3688,3693,False,False,expiration,expiration
88,83.0,25,M,up,0.5866886000148952,0.5609935752862316,,psi_staircase,emotion,,76.0242518205757,76.0242518205757,21.320254309741053,370.389860700001,224,25,female,True,3703,3709,False,False,trough,inspiration
89,69.0,25,F,up,0.5906990999937989,0.5661775940875621,,psi_staircase,emotion,,72.41600161323049,72.41600161323049,18.70114434084006,371.88973309998977,224,25,female,True,3718,3724,False,False,expiration,expiration
90,54.0,25,F,down,0.6345923999906518,1.2304658547904794,,psi_staircase,emotion,,65.56493264349415,65.56493264349415,24.958365490578192,374.0728321999777,224,25,female,True,3740,3746,False,False,inspiration,inspiration
91,56.0,25,M,down,0.5852581000071949,1.6492483391776755,,psi_staircase,emotion,,69.12060231880078,69.12060231880078,22.14364215086687,376.7062228999857,224,25,female,True,3766,3772,False,False,expiration,inspiration
92,84.0,25,F,down,0.7646598999854177,0.4850836178638592,,psi_staircase,emotion,,71.38190230837155,71.38190230837155,19.7699428074586,378.1228178999736,224,25,female,True,3780,3788,False,False,expiration,expiration
93,96.0,25,F,up,0.5140941999852657,1.1739908875821554,,psi_staircase,emotion,,76.90222639210148,76.90222639210148,26.76860429103559,380.48942219998565,224,25,female,True,3804,3809,False,False,peak,expiration
94,56.0,25,F,down,0.7017676000250503,1.768842420856558,,psi_staircase,emotion,,74.9560725711553,74.9560725711553,24.961592665763284,383.12266949997866,224,25,female,True,3830,3837,False,False,inspiration,expiration
95,95.0,25,M,up,0.5196030999941286,1.3902273738886746,,psi_staircase,emotion,,76.42688965501985,76.42688965501985,23.33078336619161,385.55588279999216,224,25,female,True,3854,3859,False,False,inspiration,inspiration
96,57.0,25,M,down,0.7442577000183519,0.9133192815479312,,psi_staircase,emotion,,75.02043730393777,75.02043730393777,21.600666130663466,387.3391766999848,224,25,female,True,3872,3879,False,False,expiration,inspiration
97,93.0,25,F,up,0.7154171000001952,1.966860896856699,,psi_staircase,emotion,,76.08804303608555,76.08804303608555,20.077791505057476,390.3890580000008,224,25,female,True,3903,3910,False,False,expiration,expiration
98,59.0,25,F,down,1.2608070999849588,0.8902113367551405,,psi_staircase,emotion,,75.02172870477972,75.02172870477972,18.527778004661,392.3556553999952,224,25,female,True,3922,3935,False,False,inspiration,expiration
99,91.0,25,M,up,0.5918774000019766,1.441693293275076,,psi_staircase,emotion,,75.85467783510678,75.85467783510678,17.195596029936304,395.4055319999752,224,25,female,True,3953,3959,False,False,inspiration,expiration
100,62.0,25,M,down,0.6289293000008911,0.3888048071044568,,psi_staircase,emotion,,75.02241828684642,75.02241828684642,15.892670229295796,396.75547369997366,224,25,female,True,3966,3972,False,False,expiration,trough
101,88.0,25,M,up,0.5796711999864783,1.3070608027474222,,psi_staircase,emotion,,75.75526988488049,75.75526988488049,14.78615987701124,399.03873669999297,224,25,female,True,3989,3995,False,False,expiration,expiration
102,65.0,25,M,down,0.8547573999967426,1.4118885905549123,,psi_staircase,emotion,,75.02244528699603,75.02244528699603,13.722641287503665,401.3886618999823,224,25,female,True,4013,4022,False,False,peak,expiration
103,85.0,25,F,up,0.7032011999981478,0.8046238232957752,,psi_staircase,emotion,,75.73286745231624,75.73286745231624,12.850654669250948,403.40525439998595,224,25,female,True,4033,4040,False,False,trough,inspiration
104,75.0,25,F,up,0.7912351000122726,0.7509211612426174,,psi_staircase,emotion,,75.02680121110309,75.02680121110309,12.00786364538552,405.2051988999883,224,25,female,True,4051,4059,False,False,expiration,expiration
105,80.0,25,F,up,0.6400634000019636,1.4477383076460633,,psi_staircase,emotion,,73.6160164479962,73.6160164479962,11.977326126367126,407.78841859998647,224,25,female,True,4077,4083,False,False,expiration,expiration
106,64.0,25,M,down,0.8249430999858305,1.5930149354764267,,psi_staircase,emotion,,72.88539362469379,72.88539362469379,11.30450434245049,410.3715293999994,224,25,female,True,4103,4111,False,False,inspiration,expiration
107,77.0,25,M,down,0.8481721999996807,0.5397715494489518,,psi_staircase,emotion,,73.39901017292357,73.39901017292357,10.577873249349082,412.0882508999785,224,25,female,True,4120,4128,False,False,expiration,inspiration
108,64.0,25,F,down,0.5816682000004221,1.590380621818961,,psi_staircase,emotion,,74.92057539471044,74.92057539471044,11.551737924688414,414.87174339999916,224,25,female,True,4148,4154,False,False,expiration,expiration
109,85.0,25,F,down,0.5767554000194649,1.5980810703140789,,psi_staircase,emotion,,75.28288830040361,75.28288830040361,10.936472063053767,417.4047294999763,224,25,female,True,4173,4179,False,False,inspiration,expiration
110,91.0,25,M,up,0.8211855999834371,1.7822616227616015,,psi_staircase,emotion,,76.99846388930621,76.99846388930621,13.496737167659841,420.1212706999795,224,25,female,True,4200,4208,False,False,inspiration,inspiration
111,64.0,25,M,down,0.8492244000080973,1.5509855940454782,,psi_staircase,emotion,,76.65686440797785,76.65686440797785,12.7879500097939,422.8211930999824,224,25,female,True,4227,4235,False,False,inspiration,inspiration
112,90.0,25,F,down,0.6097587000112981,0.8622324416465978,,psi_staircase,emotion,,76.96880712632353,76.96880712632353,12.192735343755851,424.8877026999835,224,25,female,True,4248,4254,False,False,inspiration,peak
113,96.0,25,M,up,0.6374146000016481,1.8182270363142408,,psi_staircase,emotion,,78.69671291742569,78.69671291742569,15.48194484200948,427.6710015999852,224,25,female,True,4275,4281,False,False,expiration,expiration
114,95.0,25,F,up,0.5701374999771359,1.343344649208507,,psi_staircase,emotion,,78.36883657813236,78.36883657813236,14.73268607014058,430.00426139999763,224,25,female,True,4299,4305,False,False,inspiration,inspiration
115,63.0,25,M,down,0.6122583000105806,0.6323902357111171,,psi_staircase,emotion,,78.0939008445613,78.0939008445613,14.09419237288102,431.55419709999114,224,25,female,True,4314,4320,False,False,expiration,expiration
116,93.0,25,F,up,0.5269846000010148,0.9405347962971892,,psi_staircase,emotion,,78.36370396782415,78.36370396782415,13.531071700932614,433.5374710999895,224,25,female,True,4334,4339,False,False,inspiration,peak
117,65.0,25,M,down,0.8350328000087757,0.9257528514868758,,psi_staircase,emotion,,78.10569942387464,78.10569942387464,13.013790298231411,435.33739579998655,224,25,female,True,4352,4360,False,False,expiration,inspiration
118,92.0,25,F,up,0.7157837999984622,0.6679340445678479,,psi_staircase,emotion,,78.37830142938981,78.37830142938981,12.54684030176524,437.17066859998164,224,25,female,True,4370,4377,False,False,expiration,expiration
119,66.0,25,M,down,0.7844064999953844,1.6471342309136838,,psi_staircase,emotion,,78.14554573088408,78.14554573088408,12.129897485463747,439.8870074999868,224,25,female,True,4398,4406,False,False,expiration,expiration
120,67.0,25,M,up,0.7412928999983706,1.523058833355618,,psi_staircase,emotion,,78.40391195086627,78.40391195086627,11.742794045044384,442.53713849998894,224,25,female,True,4424,4431,False,False,peak,expiration
121,92.0,25,F,up,1.3327828999899791,1.2856368328194046,,psi_staircase,emotion,,77.17346079695349,77.17346079695349,13.460982121536407,444.90370109997457,224,25,female,True,4448,4461,False,False,inspiration,expiration
122,63.0,25,F,down,0.6070471999992151,1.0968890930152335,,psi_staircase,emotion,,76.95614747439184,76.95614747439184,13.047907992838145,447.6703739999794,224,25,female,True,4476,4482,False,False,inspiration,peak
123,91.0,25,F,down,0.8342264999810141,1.1409531004516915,,psi_staircase,emotion,,77.17515565873111,77.17515565873111,12.670064606606305,449.77021229997627,224,25,female,True,4497,4505,False,False,expiration,inspiration
124,96.0,25,M,up,0.6060059999872465,1.140054037667238,,psi_staircase,emotion,,78.41217851444374,78.41217851444374,14.732088859964168,452.103458699974,224,25,female,True,4520,4526,False,False,expiration,expiration
125,62.0,25,M,down,0.6343927000125404,1.6628673841516313,,psi_staircase,emotion,,78.22086952947828,78.22086952947828,14.30423199986942,454.72003989998484,224,25,female,True,4546,4552,False,False,expiration,expiration
126,94.0,25,F,up,0.6058464000234379,0.7284889016896662,,psi_staircase,emotion,,78.41317925158707,78.41317925158707,13.916138936341722,456.43661119998427,224,25,female,True,4563,4569,False,False,expiration,inspiration
127,63.0,25,F,down,0.7997482999926433,0.8909214983623521,,psi_staircase,emotion,,78.21961536669029,78.21961536669029,13.552639184981306,458.2697168999875,224,25,female,True,4582,4590,False,False,expiration,expiration
128,93.0,25,F,up,0.6902649999829009,0.4332912041853387,,psi_staircase,emotion,,78.4053099576824,78.4053099576824,13.225045721156912,459.8531603999727,224,25,female,True,4597,4604,False,False,inspiration,inspiration
129,64.0,25,M,down,0.8293423000141047,0.6082560632375025,,psi_staircase,emotion,,78.22050006961821,78.22050006961821,12.918455635818924,461.5030892999785,224,25,female,True,4614,4622,False,False,expiration,expiration
130,92.0,25,M,up,0.6230923999974038,0.7694929611978834,,psi_staircase,emotion,,78.40302528553575,78.40302528553575,12.636439888662641,463.4363525999943,224,25,female,True,4633,4639,False,False,inspiration,expiration
131,65.0,25,M,down,0.7822386999905575,1.9369057626744963,,psi_staircase,emotion,,78.22260989100542,78.22260989100542,12.372671698400184,466.3362555999775,224,25,female,True,4662,4670,False,False,inspiration,expiration
132,0.29,25,up,up,0.7402298000233714,0.5593717430455158,,psi_staircase,cRDM,,0.25,0.25693124029946324,0.10500000000000002,476.619229599979,224,25,female,True,4765,4772,False,False,expiration,expiration
133,0.25,25,up,up,0.8012976000027265,0.8835758644193372,,psi_staircase,cRDM,,0.21910266653183127,0.2260132002683493,0.10468632033873933,478.51914409999154,224,25,female,True,4784,4792,False,False,inspiration,expiration
134,0.21,25,down,down,0.4806114000093658,1.4957007693393765,,psi_staircase,cRDM,,0.1900540959403307,0.19684979615540016,0.10294672984249993,481.06883789997664,224,25,female,True,4810,4815,False,False,inspiration,expiration
135,0.18,25,down,down,0.6667865999916103,0.5148672775275696,,psi_staircase,cRDM,,0.1635257589279754,0.1701521334256793,0.100381647756865,482.3356766999932,224,25,female,True,4822,4829,False,False,expiration,trough
136,0.15,25,up,up,0.5507607999898028,0.4202456547943546,,psi_staircase,cRDM,,0.14018955742449365,0.14660133511875031,0.0971307628663642,483.6856379999953,224,25,female,True,4836,4842,False,False,inspiration,expiration
137,0.13,25,down,down,0.6608919000136666,0.5896857580711414,,psi_staircase,cRDM,,0.11987606021454796,0.12605547676183335,0.09361076941961036,485.0855261999823,224,25,female,True,4850,4857,False,False,expiration,trough
138,0.11,25,up,up,0.5802236000017729,1.4002311945083317,,psi_staircase,cRDM,,0.10257735236965487,0.10849103445698656,0.08958521019937955,487.4021949999733,224,25,female,True,4873,4879,False,False,expiration,expiration
139,0.09,25,down,down,1.034661899990169,1.4752100462140108,,psi_staircase,cRDM,,0.08784432595859408,0.09348182153209693,0.08540131486476357,489.71875319999526,224,25,female,True,4896,4906,False,False,inspiration,expiration
140,0.08,25,down,down,1.2587552999902982,1.2045756637245113,,psi_staircase,cRDM,,0.07518520921180863,0.0805556301471181,0.08135545354720439,492.218658400001,224,25,female,True,4921,4934,False,False,inspiration,expiration
141,0.06,25,up,down,0.7799142999865579,1.7699900189528486,,psi_staircase,cRDM,,0.06447903911685147,0.06954222446062751,0.0767012018235253,495.5185095999914,224,25,female,True,4954,4962,False,False,inspiration,expiration
142,0.11,25,down,down,1.5856077999924307,1.0033029872883197,,psi_staircase,cRDM,,0.0948602595780939,0.10071627432598904,0.08871161898348927,497.5517961999867,224,25,female,True,4974,4990,False,False,expiration,expiration
143,0.1,25,down,down,0.6086096999933943,1.9761335413436119,,psi_staircase,cRDM,,0.08505363728379163,0.09053308292944777,0.08300704750323673,501.3848037999997,224,25,female,True,5013,5019,False,False,inspiration,expiration
144,0.1,25,down,down,1.0905589000030886,1.2844739869689628,,psi_staircase,cRDM,,0.07734387123035197,0.08244821182855559,0.0773246547018264,503.53491739998566,224,25,female,True,5034,5045,False,False,inspiration,expiration
145,0.09,25,up,down,1.0609408000018448,0.5660815288710705,,psi_staircase,cRDM,,0.07162362637496901,0.07632158084494688,0.07116839094236507,505.45147119998,224,25,female,True,5054,5065,False,False,expiration,expiration
146,0.12,25,up,up,0.7790125999890734,1.420110726898903,,psi_staircase,cRDM,,0.0949480904330502,0.10132124130120236,0.0965456126528749,508.2014269999927,224,25,female,True,5081,5089,False,False,expiration,expiration
147,0.12,25,down,down,0.7547640000120737,0.6038125198632903,,psi_staircase,cRDM,,0.0877518457940399,0.09372416100690996,0.09047343191952506,509.8346614999755,224,25,female,True,5097,5105,False,False,expiration,inspiration
148,0.12,25,down,down,0.6687068000028376,1.1018881036642456,,psi_staircase,cRDM,,0.08252726512533501,0.08807479424261523,0.08403843066291171,511.96774429999635,224,25,female,True,5119,5126,False,False,expiration,expiration
149,0.12,25,up,up,0.564545300003374,0.6181398103680279,,psi_staircase,cRDM,,0.07887223709322902,0.08399239790186812,0.07756431196718684,513.5178491999977,224,25,female,True,5134,5140,False,False,inspiration,inspiration
150,0.09,25,up,down,0.5203772999811918,0.7232663292788646,,psi_staircase,cRDM,,0.07642020200488484,0.08112506991677967,0.07127312131815895,515.0680643999949,224,25,female,True,5150,5155,False,False,expiration,expiration
151,0.13,25,up,up,0.476402300002519,1.7795726983872937,,psi_staircase,cRDM,,0.09043029852903804,0.09510982508775832,0.07088923012865075,517.6510215999733,224,25,female,True,5175,5180,False,False,expiration,expiration
152,0.12,25,up,down,0.5824271999881603,0.8206226428715,,psi_staircase,cRDM,,0.08802923001247735,0.09227304366257236,0.0642887007242385,519.2010107999959,224,25,female,True,5191,5197,False,False,expiration,inspiration
153,0.14,25,down,down,0.5560869000037201,1.5175515607187389,,psi_staircase,cRDM,,0.10153200552647262,0.1089094674991842,0.11175972461879588,521.5673663999769,224,25,female,True,5215,5221,False,False,expiration,expiration
154,0.14,25,down,down,0.6641201000020374,1.9750068754622316,,psi_staircase,cRDM,,0.09590488152137266,0.10290540927864272,0.10604962211024152,524.3673155999859,224,25,female,True,5243,5250,False,False,expiration,expiration
155,0.14,25,down,down,0.5814138000132516,1.8287571511182208,,psi_staircase,cRDM,,0.09170856771268424,0.09831140548507927,0.10002509452098583,527.1340129999735,224,25,female,True,5270,5276,False,False,expiration,expiration
156,0.14,25,up,up,0.6098244000168052,1.6834657545168408,,psi_staircase,cRDM,,0.0886746242924576,0.09487165053466194,0.09387753523447227,529.6505907999817,224,25,female,True,5295,5301,False,False,inspiration,expiration
157,0.14,25,up,down,0.5119601000042167,1.6214674096887578,,psi_staircase,cRDM,,0.08657107594111378,0.0923638564973595,0.08775369661515015,532.1504825000011,224,25,female,True,5320,5325,False,False,inspiration,inspiration
158,0.15,25,down,down,0.44364509999286383,1.6003047552479808,,psi_staircase,cRDM,,0.09696176738230217,0.10575963977136406,0.13327724345713934,534.5337690000015,224,25,female,True,5344,5348,False,False,expiration,inspiration
159,0.15,25,down,up,0.8126989000011235,0.9392203778197794,,psi_staircase,cRDM,,0.092009874316294,0.1005797744245075,0.12982373608257353,536.1837105999875,224,25,female,True,5361,5369,False,False,expiration,expiration
160,0.21,25,up,up,0.7752284000162035,1.7304991674111136,,psi_staircase,cRDM,,0.1123953751062213,0.12221624153905855,0.14877437960530168,539.0002105999738,224,25,female,True,5389,5397,False,False,expiration,expiration
161,0.19,25,up,up,0.7109855000162497,1.6917147516382585,,psi_staircase,cRDM,,0.10681182662164074,0.11649852836193356,0.1467419449891976,541.7334522999881,224,25,female,True,5416,5423,False,False,inspiration,expiration
162,0.17,25,down,down,0.5810058999923058,1.832272463427656,,psi_staircase,cRDM,,0.10173331327748623,0.1112876159587776,0.1447362576093745,544.5334061999747,224,25,female,True,5444,5450,False,False,inspiration,expiration
163,0.17,25,up,up,0.5710786999843549,1.3462655321737718,,psi_staircase,cRDM,,0.09698688471893638,0.10641820947572583,0.1428732891484916,546.7333574999939,224,25,female,True,5466,5472,False,False,inspiration,inspiration
164,0.14,25,down,down,0.5666533999901731,0.9925547702401878,,psi_staircase,cRDM,,0.09288506132415468,0.10218248660565146,0.1408448722565224,548.5667864999849,224,25,female,True,5485,5491,False,False,expiration,expiration
165,0.14,25,up,up,0.8602675999864005,1.029280575017825,,psi_staircase,cRDM,,0.08857538498828164,0.09779028990817408,0.1395947874817772,550.4331682999908,224,25,female,True,5503,5512,False,False,inspiration,expiration
166,0.14,25,down,down,0.7876199999882374,0.335763297727218,,psi_staircase,cRDM,,0.08476816119163164,0.0938799485420206,0.13803267964392008,551.899812299991,224,25,female,True,5518,5526,False,False,expiration,inspiration
167,0.14,25,up,up,0.6087255000020377,0.4101004683273857,,psi_staircase,cRDM,,0.08140671796675948,0.09039788321882776,0.13620539913185173,553.3497185999877,224,25,female,True,5532,5538,False,False,inspiration,expiration
168,0.14,25,down,down,1.2573876999958884,1.203035882803712,,psi_staircase,cRDM,,0.07844495996383202,0.08730011473844539,0.13414500308211846,555.4329984999787,224,25,female,True,5553,5566,False,False,expiration,expiration
169,0.14,25,up,up,0.6037915000051726,0.4577263034503231,,psi_staircase,cRDM,,0.07584589287306867,0.08455110721487638,0.1318735848706023,557.3995673999889,224,25,female,True,5573,5579,False,False,expiration,expiration
170,0.08,25,up,up,1.1578739999968093,0.8327564538952139,,psi_staircase,cRDM,,0.07357990263470064,0.08212229127622311,0.12940697026898884,559.0995251999993,224,25,female,True,5590,5602,False,False,inspiration,expiration
171,0.08,25,down,down,0.6629530000209343,0.8656046415164271,,psi_staircase,cRDM,,0.06939831977889935,0.07817273019022067,0.13292182255751325,561.3994584999746,224,25,female,True,5613,5620,False,False,inspiration,inspiration
172,0.15,25,down,down,0.7104101000004448,1.5863800454739994,,psi_staircase,cRDM,,0.06556721768264177,0.07450617883757565,0.13541456950219122,563.9159989999898,224,25,female,True,5638,5645,False,False,expiration,inspiration
173,0.08,25,down,up,0.6058296000119299,0.6291339695156242,,psi_staircase,cRDM,,0.06378693463949461,0.07258724299142581,0.13331414538092565,565.5326083999826,224,25,female,True,5654,5660,False,False,expiration,expiration
174,0.08,25,up,up,1.3468636999896262,0.3274248532075584,,psi_staircase,cRDM,,0.07417891900584737,0.08260608491187192,0.12766148364544475,566.7325689999852,224,25,female,True,5666,5679,False,False,expiration,inspiration
175,0.08,25,up,up,0.9446035999862944,1.9254423502723759,,psi_staircase,cRDM,,0.07016973000248668,0.0788467584143831,0.13144660174596412,570.2657955999894,224,25,female,True,5702,5711,False,False,inspiration,peak
176,0.14,25,down,down,0.6117224000045098,1.0317118288204838,,psi_staircase,cRDM,,0.06649018432321277,0.07534806042169613,0.134186227883742,572.5157169999728,224,25,female,True,5724,5730,False,False,expiration,inspiration
177,0.07,25,down,down,1.1248091000015847,0.7253157691424921,,psi_staircase,cRDM,,0.0647366466780314,0.07346025248185764,0.1321521935219423,574.1156197999952,224,25,female,True,5740,5751,False,False,expiration,expiration
178,0.08,25,down,down,1.3578550999809522,0.4095529954209505,,psi_staircase,cRDM,,0.06128819492722853,0.07018338010925411,0.1347514158735792,575.9155532000004,224,25,female,True,5758,5772,False,False,expiration,inspiration
179,0.15,25,up,up,0.6376291999768001,0.8318074416802324,,psi_staircase,cRDM,,0.05824455804837675,0.06723242174660263,0.13615538454016618,578.3487871999969,224,25,female,True,5782,5788,False,False,peak,expiration
180,0.07,25,up,down,0.9020865999918896,0.3183015089209956,,psi_staircase,cRDM,,0.056822850196184736,0.06569240786459521,0.13436318969567645,579.5653087999963,224,25,female,True,5795,5804,False,False,expiration,inspiration
181,0.07,25,up,up,0.574372700008098,0.9872973014563888,,psi_staircase,cRDM,,0.06534381575046491,0.07393801073535207,0.13019177440479596,581.7320037999889,224,25,female,True,5816,5822,False,False,expiration,expiration
182,83.0,25,F,down,1.105426800000714,1.838980419209113,,experiment,emotion,0.0,,,,591.4149822999898,224,25,female,True,5913,5924,False,False,expiration,expiration
183,73.0,25,M,down,0.7628587999788579,0.9203126819560754,,experiment,emotion,0.0,,,,593.7315480999822,224,25,female,True,5936,5944,False,False,expiration,expiration
184,79.0,25,F,down,0.6473444000002928,1.8811750542354,,experiment,emotion,0.0,,,,596.6481179999828,224,25,female,True,5965,5971,False,False,expiration,expiration
185,83.0,25,M,up,0.8697069000045303,0.9500945893224306,,experiment,emotion,0.0,,,,598.514717699989,224,25,female,True,5984,5993,False,False,expiration,inspiration
186,79.0,25,F,up,0.4473987999954261,1.472764615423249,,experiment,emotion,0.0,,,,601.1979632999863,224,25,female,True,6011,6015,False,False,expiration,expiration
187,76.0,25,F,down,0.8185238999722059,0.9333809497750654,,experiment,emotion,0.0,,,,602.8478862999764,224,25,female,True,6027,6035,False,False,inspiration,expiration
188,73.0,25,M,down,0.639607299992349,1.5074862211092552,,experiment,emotion,0.0,,,,605.4477873999857,224,25,female,True,6053,6059,False,False,inspiration,inspiration
189,76.0,25,F,down,0.7204041999939363,1.4721102540197275,,experiment,emotion,0.0,,,,607.831033399998,224,25,female,True,6077,6084,False,False,expiration,inspiration
190,83.0,25,M,up,0.7964485999837052,0.4749337849606689,,experiment,emotion,0.0,,,,609.2809953999822,224,25,female,True,6092,6100,False,False,inspiration,expiration
191,76.0,25,M,down,0.6101835000154097,1.2665339596965908,,experiment,emotion,0.0,,,,611.6142275999882,224,25,female,True,6115,6121,False,False,inspiration,inspiration
192,79.0,25,F,down,0.6879771999956574,0.9530458360611248,,experiment,emotion,0.0,,,,613.464465099998,224,25,female,True,6134,6141,False,False,expiration,inspiration
193,83.0,25,M,up,1.4563145000138318,0.5987220876147528,,experiment,emotion,0.0,,,,615.0141213999888,224,25,female,True,6149,6164,False,False,expiration,inspiration
194,79.0,25,M,down,0.8165182000084314,1.9274810390032169,,experiment,emotion,0.0,,,,618.6639067999787,224,25,female,True,6186,6194,False,False,expiration,inspiration
195,73.0,25,M,up,1.4274977000022773,1.5532780384063425,,experiment,emotion,0.0,,,,621.3138801999739,224,25,female,True,6212,6226,False,False,expiration,inspiration
196,76.0,25,F,down,1.0889517000177875,1.091641756332027,,experiment,emotion,0.0,,,,624.1304525999876,224,25,female,True,6240,6251,False,False,expiration,expiration
197,73.0,25,F,down,0.8373920000158249,1.9020320335012424,,experiment,emotion,0.0,,,,627.3969938999799,224,25,female,True,6273,6281,False,False,expiration,expiration
198,83.0,25,M,down,0.7855000999988988,1.4164129150140754,,experiment,emotion,0.0,,,,629.9468798999732,224,25,female,True,6298,6306,False,False,inspiration,expiration
199,73.0,25,M,down,0.7462945999868679,1.927860319268728,,experiment,emotion,0.0,,,,632.9301305999978,224,25,female,True,6328,6335,False,False,inspiration,expiration
200,79.0,25,F,up,0.8563392999931239,0.5401886488641109,,experiment,emotion,0.0,,,,634.4800667999953,224,25,female,True,6344,6353,False,False,expiration,expiration
201,79.0,25,F,up,1.0160942999937106,1.4085356318919908,,experiment,emotion,0.0,,,,637.0133151999908,224,25,female,True,6369,6379,False,False,expiration,expiration
202,76.0,25,M,up,0.6222199999901932,0.5457728315859216,,experiment,emotion,0.0,,,,638.8632081999967,224,25,female,True,6388,6394,False,False,trough,inspiration
203,76.0,25,F,down,1.305061699997168,1.1954711782050005,,experiment,emotion,0.0,,,,640.9463355999906,224,25,female,True,6409,6422,False,False,expiration,expiration
204,73.0,25,M,down,1.0723586000094656,1.4401112529039748,,experiment,emotion,0.0,,,,643.963050499995,224,25,female,True,6439,6450,False,False,expiration,expiration
205,83.0,25,F,down,1.4498658000084106,1.8683395104699472,,experiment,emotion,0.0,,,,647.179530399997,224,25,female,True,6471,6485,False,False,expiration,expiration
206,79.0,25,F,down,0.8845860000001267,0.9096134960786156,,experiment,emotion,0.0,,,,649.812843599997,224,25,female,True,6497,6506,False,False,inspiration,expiration
207,73.0,25,M,down,0.7510071000142489,1.1566776086249109,,experiment,emotion,0.0,,,,652.1294119999802,224,25,female,True,6520,6528,False,False,expiration,inspiration
208,83.0,25,M,up,0.7577376000117511,1.5530064020433147,,experiment,emotion,0.0,,,,654.7126662999799,224,25,female,True,6546,6554,False,False,expiration,trough
209,83.0,25,F,up,0.5962170000129845,0.7790374491499981,,experiment,emotion,0.0,,,,656.529237699986,224,25,female,True,6564,6570,False,False,inspiration,expiration
210,76.0,25,M,up,0.6091983999940567,0.33533096106258675,,experiment,emotion,0.0,,,,657.7291985999908,224,25,female,True,6576,6582,False,False,expiration,expiration
211,73.0,25,F,down,0.8559592999808956,1.5908707500309929,,experiment,emotion,0.0,,,,660.2124471999996,224,25,female,True,6601,6610,False,False,expiration,expiration
212,76.0,25,M,down,0.8673696000187192,1.8032403873533929,,experiment,emotion,0.0,,,,663.1290114999865,224,25,female,True,6630,6639,False,False,expiration,expiration
213,79.0,25,F,up,0.6501973000122234,0.8524725754296223,,experiment,emotion,0.0,,,,665.1122660999828,224,25,female,True,6650,6657,False,False,expiration,inspiration
214,73.0,25,M,up,0.4923319999943487,1.2340923443415897,,experiment,emotion,0.0,,,,667.2620591000014,224,25,female,True,6672,6677,False,False,expiration,expiration
215,83.0,25,F,down,0.5550737000012305,0.7490842461952827,,experiment,emotion,0.0,,,,668.7954571000008,224,25,female,True,6687,6693,False,False,inspiration,inspiration
216,79.0,25,M,up,0.8353363999922294,0.7878315529950602,,experiment,emotion,0.0,,,,670.41208129999,224,25,female,True,6703,6711,False,False,expiration,expiration
217,83.0,25,F,down,0.6874813000031281,0.6485191233753257,,experiment,emotion,0.0,,,,672.1619022999947,224,25,female,True,6721,6728,False,False,inspiration,expiration
218,73.0,25,M,up,0.6587654000031762,0.9453247288466748,,experiment,emotion,0.0,,,,674.0786255999992,224,25,female,True,6740,6747,False,False,expiration,inspiration
219,79.0,25,F,down,1.2168361000076402,0.8770155513281492,,experiment,emotion,0.0,,,,675.878544999985,224,25,female,True,6758,6770,False,False,expiration,inspiration
220,76.0,25,M,up,0.9046920999826398,1.9852274662601217,,experiment,emotion,0.0,,,,679.3450688000012,224,25,female,True,6792,6801,False,False,expiration,inspiration
221,76.0,25,F,up,1.2161492999875918,1.4997352974108609,,experiment,emotion,0.0,,,,682.0283150999749,224,25,female,True,6819,6831,False,False,expiration,inspiration
222,79.0,25,F,up,0.7402406999899541,1.4878041587550068,,experiment,emotion,0.0,,,,685.0115395999746,224,25,female,True,6849,6856,False,False,expiration,expiration
223,83.0,25,M,up,0.6312716999964323,1.8250760678430535,,experiment,emotion,0.0,,,,687.8780907999899,224,25,female,True,6878,6884,False,False,expiration,expiration
224,76.0,25,F,up,1.4720063999993729,0.9319311096936982,,experiment,emotion,0.0,,,,689.7113652999979,224,25,female,True,6896,6911,False,False,inspiration,expiration
225,73.0,25,M,up,0.8394725000252947,1.6180648773205792,,experiment,emotion,0.0,,,,693.0779157999788,224,25,female,True,6930,6938,False,False,peak,expiration
226,73.0,25,M,down,1.1419419999874665,1.8880701895385648,,experiment,emotion,0.0,,,,696.0944673999911,224,25,female,True,6960,6971,False,False,peak,expiration
227,76.0,25,F,down,1.094714300008491,1.5528148405663198,,experiment,emotion,0.0,,,,699.0609397999942,224,25,female,True,6990,7001,False,False,inspiration,expiration
228,83.0,25,F,up,1.5098213999881407,0.99871523075103,,experiment,emotion,0.0,,,,701.4275859999761,224,25,female,True,7013,7028,False,False,trough,expiration
229,79.0,25,M,down,1.0178921000042465,0.8105561666766385,,experiment,emotion,0.0,,,,704.0275101999869,224,25,female,True,7039,7049,False,False,expiration,inspiration
230,73.0,25,F,down,0.5950118000037037,0.9029862210080312,,experiment,emotion,0.0,,,,706.2274065999954,224,25,female,True,7061,7067,False,False,expiration,expiration
231,83.0,25,M,down,1.5710588000074497,0.9276525694433001,,experiment,emotion,0.0,,,,708.0273307999887,224,25,female,True,7079,7095,False,False,inspiration,expiration
232,79.0,25,M,down,1.6918885000050068,0.4911733423196101,,experiment,emotion,0.0,,,,710.3604743999895,224,25,female,True,7103,7120,False,False,expiration,expiration
233,79.0,25,M,down,0.9565900000161492,0.6121265177817479,,experiment,emotion,0.0,,,,712.9438190999789,224,25,female,True,7128,7138,False,False,expiration,trough
234,73.0,25,M,down,0.8357258999894839,1.930963960503216,,experiment,emotion,0.0,,,,716.0937353999761,224,25,female,True,7160,7168,False,False,expiration,expiration
235,76.0,25,M,down,0.7110752000007778,1.6420239681867037,,experiment,emotion,0.0,,,,718.8603072999977,224,25,female,True,7188,7195,False,False,expiration,expiration
236,83.0,25,F,down,0.6578394000243861,0.7563707712025469,,experiment,emotion,0.0,,,,720.593567999982,224,25,female,True,7205,7212,False,False,expiration,inspiration
237,76.0,25,F,down,0.7455881999921985,1.753701508893708,,experiment,emotion,0.0,,,,723.2767990999855,224,25,female,True,7232,7239,False,False,expiration,expiration
238,76.0,25,F,down,0.7100313999981154,1.097448239018323,,experiment,emotion,0.0,,,,725.393376299995,224,25,female,True,7253,7260,False,False,inspiration,expiration
239,76.0,25,M,down,0.9624540999939201,1.6984966737995042,,experiment,emotion,0.0,,,,728.0599539999968,224,25,female,True,7280,7290,False,False,inspiration,expiration
240,83.0,25,F,down,0.8701517999870703,1.6167693746967442,,experiment,emotion,0.0,,,,730.8931812999945,224,25,female,True,7308,7317,False,False,expiration,inspiration
241,79.0,25,F,down,0.6782736000022851,0.6922645972669292,,experiment,emotion,0.0,,,,732.7931085999879,224,25,female,True,7327,7334,False,False,expiration,expiration
242,73.0,25,F,down,0.7870701999927405,1.927057081646038,,experiment,emotion,0.0,,,,735.6763506999997,224,25,female,True,7356,7364,False,False,expiration,expiration
243,73.0,25,M,down,0.7591406000137795,1.690907120721674,,experiment,emotion,0.0,,,,738.426249799988,224,25,female,True,7383,7391,False,False,inspiration,expiration
244,79.0,25,F,down,0.7552659999928437,1.4761003482016093,,experiment,emotion,0.0,,,,740.9261109999788,224,25,female,True,7408,7416,False,False,inspiration,expiration
245,83.0,25,M,down,1.0937009000044782,1.0801030514896826,,experiment,emotion,0.0,,,,743.0426691999893,224,25,female,True,7430,7441,False,False,expiration,inspiration
246,83.0,25,M,down,1.1463793000148144,1.069810220356128,,experiment,emotion,0.0,,,,745.4760129999777,224,25,female,True,7454,7465,False,False,expiration,inspiration
247,73.0,25,F,down,0.9118255999928806,0.8490921765681814,,experiment,emotion,0.0,,,,747.7425338999893,224,25,female,True,7477,7486,False,False,expiration,expiration
248,83.0,25,M,down,0.94392589997733,1.1313728402405323,,experiment,emotion,0.0,,,,750.0594583999773,224,25,female,True,7500,7509,False,False,expiration,expiration
249,76.0,25,F,down,0.7414903000171762,0.5780192519505074,,experiment,emotion,0.0,,,,751.8588908999809,224,25,female,True,7518,7525,False,False,trough,inspiration
250,79.0,25,M,down,1.0580696000251921,0.4657885425319942,,experiment,emotion,0.0,,,,753.3423378999869,224,25,female,True,7532,7543,False,False,expiration,expiration
251,76.0,25,F,down,1.0524445000046398,0.8267562031527262,,experiment,emotion,0.0,,,,755.5089324,224,25,female,True,7554,7565,False,False,inspiration,expiration
252,73.0,25,M,up,1.234682000009343,1.2167721245932923,,experiment,emotion,0.0,,,,758.0586945999821,224,25,female,True,7580,7592,False,False,trough,expiration
253,79.0,25,F,down,1.1019380000070669,0.712218501776064,,experiment,emotion,0.0,,,,760.2754245999968,224,25,female,True,7602,7613,False,False,expiration,inspiration
254,76.0,25,F,down,0.9763693000131752,0.8019126901738645,,experiment,emotion,0.0,,,,762.4419966999849,224,25,female,True,7623,7633,False,False,expiration,expiration
255,79.0,25,F,down,0.9754911999916658,1.8992540571236471,,experiment,emotion,0.0,,,,765.5918888999731,224,25,female,True,7655,7665,False,False,expiration,expiration
256,73.0,25,F,down,1.0915217000001576,0.988236010217218,,experiment,emotion,0.0,,,,767.8417995999916,224,25,female,True,7677,7688,False,False,inspiration,expiration
257,83.0,25,F,down,1.2523262999893632,1.2260358708764412,,experiment,emotion,0.0,,,,770.4250534999883,224,25,female,True,7703,7716,False,False,expiration,expiration
258,79.0,25,M,up,0.9051079000055324,1.6514734522622905,,experiment,emotion,0.0,,,,773.6082692999918,224,25,female,True,7735,7744,False,False,trough,inspiration
259,83.0,25,M,up,0.8279053999867756,1.8096328618328867,,experiment,emotion,0.0,,,,776.5915057999956,224,25,female,True,7765,7773,False,False,inspiration,inspiration
260,73.0,25,M,up,0.7193646000232548,0.7731767796276059,,experiment,emotion,0.0,,,,778.458037799981,224,25,female,True,7784,7791,False,False,expiration,trough
261,76.0,25,M,down,0.922393099986948,1.260994333340408,,experiment,emotion,0.0,,,,780.7080025999749,224,25,female,True,7806,7815,False,False,expiration,expiration
262,0.062014596283912836,25,up,up,0.7250703999889083,1.140641240400075,,experiment,cRDM,0.0,,,,788.3243935999927,224,25,female,True,7882,7889,False,False,expiration,expiration
263,0.062014596283912836,25,up,up,0.6687403999967501,1.3774506452946775,,experiment,cRDM,0.0,,,,790.7076314000004,224,25,female,True,7906,7913,False,False,expiration,expiration
264,0.062014596283912836,25,down,down,1.2399789000046442,0.5156714433453117,,experiment,cRDM,0.0,,,,792.157398499985,224,25,female,True,7921,7933,False,False,expiration,expiration
265,0.062014596283912836,25,down,down,0.6570983999990858,1.3989506866340689,,experiment,cRDM,0.0,,,,795.0572710999986,224,25,female,True,7950,7957,False,False,expiration,expiration
266,0.062014596283912836,25,up,up,0.845652699994389,0.7582196590509989,,experiment,cRDM,0.0,,,,796.7407437999791,224,25,female,True,7966,7974,False,False,expiration,inspiration
267,0.062014596283912836,25,down,down,1.05770050000865,0.4493229907206897,,experiment,cRDM,0.0,,,,798.2906953999773,224,25,female,True,7982,7993,False,False,inspiration,expiration
268,0.062014596283912836,25,up,up,0.7260983999876771,1.2889892204366171,,experiment,cRDM,0.0,,,,800.9072539999906,224,25,female,True,8008,8015,False,False,inspiration,inspiration
269,0.062014596283912836,25,up,down,1.129807699995581,1.3391422845703504,,experiment,cRDM,0.0,,,,803.2405192999868,224,25,female,True,8031,8042,False,False,expiration,inspiration
270,0.062014596283912836,25,down,down,0.9462531000026502,1.272200463293402,,experiment,cRDM,0.0,,,,805.9071154999838,224,25,female,True,8058,8067,False,False,expiration,expiration
271,0.062014596283912836,25,down,down,1.3414514000178317,1.933956505566079,,experiment,cRDM,0.0,,,,809.0569168999791,224,25,female,True,8090,8103,False,False,expiration,expiration
272,0.062014596283912836,25,down,up,1.7831918000010774,1.938887161089913,,experiment,cRDM,0.0,,,,812.590189599985,224,25,female,True,8125,8143,False,False,expiration,inspiration
273,0.062014596283912836,25,down,down,1.4246965000056662,1.3773351068145672,,experiment,cRDM,0.0,,,,816.0066722999909,224,25,female,True,8159,8173,False,False,expiration,expiration
274,0.062014596283912836,25,down,up,1.1697649999987334,1.518563545296879,,experiment,cRDM,0.0,,,,819.2066005999803,224,25,female,True,8191,8203,False,False,expiration,expiration
275,0.062014596283912836,25,down,up,0.9536386000108904,0.3041698657872408,,experiment,cRDM,0.0,,,,820.9397341999866,224,25,female,True,8209,8219,False,False,expiration,inspiration
276,0.062014596283912836,25,up,up,1.1190136999939568,1.7562847030924704,,experiment,cRDM,0.0,,,,823.9064193999803,224,25,female,True,8238,8249,False,False,expiration,inspiration
277,0.062014596283912836,25,up,down,1.623076099989703,1.8214774430417469,,experiment,cRDM,0.0,,,,827.1063028999779,224,25,female,True,8270,8286,False,False,expiration,expiration
278,0.062014596283912836,25,up,up,0.6801655000017489,0.526878089784224,,experiment,cRDM,0.0,,,,829.5062204999849,224,25,female,True,8294,8301,False,False,expiration,trough
279,0.062014596283912836,25,up,down,0.8872005000011995,1.1103151139993546,,experiment,cRDM,0.0,,,,831.5561698999954,224,25,female,True,8315,8324,False,False,expiration,expiration
280,0.062014596283912836,25,down,up,1.2576568000076804,1.3066214532059004,,experiment,cRDM,0.0,,,,834.022707999975,224,25,female,True,8339,8352,False,False,inspiration,inspiration
281,0.062014596283912836,25,up,down,1.1753822999889962,1.2243555413229943,,experiment,cRDM,0.0,,,,836.7559848999954,224,25,female,True,8367,8379,False,False,expiration,inspiration
282,0.062014596283912836,25,up,up,0.6568411999905948,0.6224823522939538,,experiment,cRDM,0.0,,,,838.8225273999852,224,25,female,True,8387,8394,False,False,expiration,expiration
283,0.062014596283912836,25,down,down,1.4642771999933757,1.5416720835703035,,experiment,cRDM,0.0,,,,841.2891009000014,224,25,female,True,8412,8427,False,False,inspiration,expiration
284,0.062014596283912836,25,up,up,0.7312986000033561,1.1104329338650625,,experiment,cRDM,0.0,,,,844.1390572999952,224,25,female,True,8441,8448,False,False,expiration,inspiration
285,0.062014596283912836,25,down,down,1.0450682000082452,1.1510511524442344,,experiment,cRDM,0.0,,,,846.2722921999813,224,25,female,True,8462,8472,False,False,expiration,expiration
286,0.062014596283912836,25,down,down,1.010050899989437,1.9814825033577088,,experiment,cRDM,0.0,,,,849.5553466999844,224,25,female,True,8495,8505,False,False,inspiration,expiration
287,0.062014596283912836,25,up,up,0.8806420000037178,1.5022991655705034,,experiment,cRDM,0.0,,,,852.3387167999755,224,25,female,True,8522,8531,False,False,expiration,inspiration
288,0.062014596283912836,25,up,up,1.5717939999885857,0.3807719639007909,,experiment,cRDM,0.0,,,,853.8555751999958,224,25,female,True,8538,8554,False,False,expiration,expiration
289,0.062014596283912836,25,down,down,1.2403199000109453,0.6571283472463669,,experiment,cRDM,0.0,,,,856.3550453999777,224,25,female,True,8563,8575,False,False,inspiration,expiration
290,0.062014596283912836,25,up,up,1.120950599986827,0.8327731936478047,,experiment,cRDM,0.0,,,,858.6884896999983,224,25,female,True,8586,8597,False,False,trough,peak
291,0.062014596283912836,25,down,up,0.9276026000152342,0.7005247529375458,,experiment,cRDM,0.0,,,,860.7717653999863,224,25,female,True,8607,8616,False,False,expiration,inspiration
292,0.062014596283912836,25,down,up,0.8037520000070799,1.2620526803835996,,experiment,cRDM,0.0,,,,863.2216374999845,224,25,female,True,8631,8639,False,False,expiration,expiration
293,0.062014596283912836,25,down,up,1.2545638000010513,1.7655945859544704,,experiment,cRDM,0.0,,,,866.0548017999972,224,25,female,True,8660,8673,False,False,expiration,expiration
294,0.062014596283912836,25,up,up,1.2182734999805689,1.1618635172414946,,experiment,cRDM,0.0,,,,868.7380900999997,224,25,female,True,8686,8698,False,False,inspiration,expiration
295,0.062014596283912836,25,up,up,1.3856991000066046,1.1802659109952145,,experiment,cRDM,0.0,,,,871.4046610999794,224,25,female,True,8713,8727,False,False,inspiration,expiration
296,0.062014596283912836,25,up,up,1.3914791999850422,1.6704749424651464,,experiment,cRDM,0.0,,,,874.7378832999966,224,25,female,True,8746,8760,False,False,inspiration,expiration
297,0.062014596283912836,25,down,up,1.5232825999846682,1.8269092265646552,,experiment,cRDM,0.0,,,,878.2210877999896,224,25,female,True,8781,8796,False,False,peak,expiration
298,0.062014596283912836,25,down,up,0.9613884999998844,1.816916973715205,,experiment,cRDM,0.0,,,,881.8209524999838,224,25,female,True,8817,8827,False,False,expiration,expiration
299,0.062014596283912836,25,up,up,1.3845071000105236,1.2763634749930417,,experiment,cRDM,0.0,,,,884.3208424999902,224,25,female,True,8842,8856,False,False,inspiration,expiration
300,0.062014596283912836,25,down,down,1.7779541999916546,1.6639802186986172,,experiment,cRDM,0.0,,,,887.6373822999885,224,25,female,True,8875,8893,False,False,expiration,expiration
301,0.062014596283912836,25,up,down,1.1151112000225112,1.1573897446896166,,experiment,cRDM,0.0,,,,890.8372751999997,224,25,female,True,8907,8918,False,False,expiration,inspiration
302,0.062014596283912836,25,up,up,1.1434918000013568,1.1775240146512589,,experiment,cRDM,0.0,,,,893.4038717999938,224,25,female,True,8933,8944,False,False,expiration,expiration
303,0.062014596283912836,25,up,up,1.81173069999204,1.1349027202554427,,experiment,cRDM,0.0,,,,895.953597899992,224,25,female,True,8959,8977,False,False,expiration,expiration
304,0.062014596283912836,25,down,down,0.9343633000098636,0.4648570079143418,,experiment,cRDM,0.0,,,,898.4870147999901,224,25,female,True,8984,8993,False,False,inspiration,expiration
305,0.062014596283912836,25,down,down,1.3189351999899372,1.9559571762318613,,experiment,cRDM,0.0,,,,901.653480899986,224,25,female,True,9016,9029,False,False,inspiration,expiration
306,0.062014596283912836,25,up,up,1.0102932000008875,1.8899950898067717,,experiment,cRDM,0.0,,,,905.1201177999899,224,25,female,True,9050,9060,False,False,inspiration,expiration
307,0.062014596283912836,25,down,up,1.369379299983848,1.5387410944898636,,experiment,cRDM,0.0,,,,907.9199782999933,224,25,female,True,9078,9092,False,False,inspiration,expiration
308,0.062014596283912836,25,down,down,1.3807932999916377,0.5927627348351394,,experiment,cRDM,0.0,,,,910.1365653999964,224,25,female,True,9100,9114,False,False,expiration,inspiration
309,0.062014596283912836,25,up,down,2.1901415000029374,0.4673312981665958,,experiment,cRDM,0.0,,,,912.2531919999748,224,25,female,True,9122,9144,False,False,expiration,peak
310,0.062014596283912836,25,up,up,0.8436609999916982,1.333382841746496,,experiment,cRDM,0.0,,,,916.019687299995,224,25,female,True,9159,9167,False,False,expiration,inspiration
311,0.062014596283912836,25,down,up,0.7790748999977951,0.4502416021830985,,experiment,cRDM,0.0,,,,917.5863073999936,224,25,female,True,9175,9183,False,False,inspiration,inspiration
312,0.062014596283912836,25,up,up,0.7275515999936033,0.542175495293537,,experiment,cRDM,0.0,,,,919.1527979999955,224,25,female,True,9191,9198,False,True,expiration,expiration
313,0.062014596283912836,25,down,up,0.8589155999943614,1.3858833477794965,,experiment,cRDM,0.0,,,,921.5194894000017,224,25,female,True,9214,9223,True,True,expiration,expiration
314,0.062014596283912836,25,down,down,0.7095153999980539,1.4805972872029605,,experiment,cRDM,0.0,,,,924.1358428999956,224,25,female,True,9241,9248,True,True,inspiration,expiration
315,0.062014596283912836,25,down,down,1.1533122999826446,1.083776394477939,,experiment,cRDM,0.0,,,,926.1860120999918,224,25,female,True,9261,9273,True,True,expiration,expiration
316,0.062014596283912836,25,up,up,0.7920484000060242,0.4670182089990938,,experiment,cRDM,0.0,,,,928.069262999983,224,25,female,True,9280,9288,True,True,expiration,expiration
317,0.062014596283912836,25,up,down,0.6646162999968511,1.1136240143915783,,experiment,cRDM,0.0,,,,930.2357409999823,224,25,female,True,9302,9309,False,False,inspiration,expiration
318,0.062014596283912836,25,down,up,0.8572369000175968,0.6092723810034872,,experiment,cRDM,0.0,,,,931.7691186000012,224,25,female,True,9317,9326,False,False,expiration,expiration
319,0.062014596283912836,25,down,up,1.57628769997973,0.8833556263796878,,experiment,cRDM,0.0,,,,933.7690254999907,224,25,female,True,9337,9353,False,False,inspiration,expiration
320,0.062014596283912836,25,up,up,0.8103964000183623,0.5509469415267754,,experiment,cRDM,0.0,,,,936.1689517999766,224,25,female,True,9361,9369,False,False,trough,inspiration
321,0.062014596283912836,25,up,down,0.6431073000130709,0.9110306146980248,,experiment,cRDM,0.0,,,,938.1522412999767,224,25,female,True,9381,9387,False,False,expiration,expiration
322,0.062014596283912836,25,up,up,0.7355461000115611,0.9211884078033732,,experiment,cRDM,0.0,,,,939.968824599986,224,25,female,True,9399,9406,False,False,inspiration,expiration
323,0.062014596283912836,25,up,down,1.785244300001068,1.927446908203292,,experiment,cRDM,0.0,,,,942.9020220999955,224,25,female,True,9428,9446,False,False,inspiration,expiration
324,0.062014596283912836,25,up,up,0.7097397999896202,0.7160081391371355,,experiment,cRDM,0.0,,,,945.668614299997,224,25,female,True,9456,9463,False,False,inspiration,expiration
325,0.062014596283912836,25,down,down,1.219479199993657,1.5012942651779306,,experiment,cRDM,0.0,,,,948.1518605999879,224,25,female,True,9481,9493,False,False,inspiration,expiration
326,0.062014596283912836,25,down,up,0.7845890000171494,1.3526068643463136,,experiment,cRDM,0.0,,,,951.0017604999884,224,25,female,True,9509,9517,False,False,trough,inspiration
327,0.062014596283912836,25,up,down,1.5177185000211466,1.2504194503993806,,experiment,cRDM,0.0,,,,953.3016498999788,224,25,female,True,9532,9547,False,False,expiration,inspiration
328,0.062014596283912836,25,down,down,1.81579240001156,1.1226076732273478,,experiment,cRDM,0.0,,,,956.2015555999823,224,25,female,True,9561,9579,False,False,expiration,peak
329,0.062014596283912836,25,down,down,1.8387583000003358,1.9598894103490263,,experiment,cRDM,0.0,,,,960.2345816000017,224,25,female,True,9602,9620,False,False,inspiration,expiration
330,0.062014596283912836,25,down,up,1.2994309999921825,1.7298922653958309,,experiment,cRDM,0.0,,,,964.0679168999776,224,25,female,True,9640,9653,False,False,inspiration,expiration
331,0.062014596283912836,25,up,up,0.7681462000182364,0.5159817049909003,,experiment,cRDM,0.0,,,,966.1511979999776,224,25,female,True,9661,9669,False,False,expiration,inspiration
332,0.062014596283912836,25,down,up,0.8739159000106156,0.44119466814072295,,experiment,cRDM,0.0,,,,967.634447199991,224,25,female,True,9676,9685,False,False,expiration,expiration
333,0.062014596283912836,25,down,up,0.8336193999857642,0.5011730060088492,,experiment,cRDM,0.0,,,,969.2677494999953,224,25,female,True,9692,9700,False,False,expiration,inspiration
334,0.062014596283912836,25,down,up,0.9377385999832768,1.8972441584737352,,experiment,cRDM,0.0,,,,972.2676609999907,224,25,female,True,9722,9731,False,False,expiration,inspiration
335,0.062014596283912836,25,up,up,1.2451766000012867,0.8236106660396447,,experiment,cRDM,0.0,,,,974.2842051999761,224,25,female,True,9742,9754,False,False,expiration,expiration
336,0.062014596283912836,25,up,up,1.2909595000091942,1.7831646836757735,,experiment,cRDM,0.0,,,,977.5674096999865,224,25,female,True,9775,9788,False,False,expiration,expiration
337,0.062014596283912836,25,down,down,1.4436986999935468,1.3846513545596957,,experiment,cRDM,0.0,,,,980.5006418999983,224,25,female,True,9804,9818,False,False,expiration,expiration
338,0.062014596283912836,25,up,up,1.5517130999942308,0.8004716531676759,,experiment,cRDM,0.0,,,,983.000563299982,224,25,female,True,9829,9845,False,False,inspiration,expiration
339,0.062014596283912836,25,down,up,1.0262305999931414,1.150909917057349,,experiment,cRDM,0.0,,,,985.9671426999847,224,25,female,True,9859,9869,False,False,inspiration,expiration
340,0.062014596283912836,25,up,up,1.3322798000008331,0.8119298844400185,,experiment,cRDM,0.0,,,,988.0670603999753,224,25,female,True,9880,9893,False,False,expiration,inspiration
341,0.062014596283912836,25,up,up,1.0058314999914728,1.8776374103677282,,experiment,cRDM,0.0,,,,991.5335462999938,224,25,female,True,9914,9924,False,False,expiration,inspiration
342,83.0,25,M,up,0.7547260000137612,1.2006241786931593,,experiment,emotion,1.0,,,,1006.249592499982,224,25,female,True,10062,10070,False,False,expiration,inspiration
343,73.0,25,M,down,0.7124273999943398,1.6899829328868912,,experiment,emotion,1.0,,,,1008.9829458999741,224,25,female,True,10089,10096,False,False,expiration,expiration
344,79.0,25,F,up,0.8751379000023007,1.4809008772775685,,experiment,emotion,1.0,,,,1011.4662061999844,224,25,female,True,10114,10123,False,False,inspiration,expiration
345,83.0,25,F,up,0.6582788999949116,1.044937862141037,,experiment,emotion,1.0,,,,1013.6660966999773,224,25,female,True,10136,10143,False,False,expiration,inspiration
346,79.0,25,M,up,1.4359836000076032,0.897588820776664,,experiment,emotion,1.0,,,,1015.4993753999879,224,25,female,True,10154,10168,False,False,expiration,expiration
347,76.0,25,F,up,1.27674639999168,0.4553641589825036,,experiment,emotion,1.0,,,,1017.6825948999904,224,25,female,True,10176,10189,False,False,trough,expiration
348,73.0,25,M,down,0.999374600010924,1.9047892434121605,,experiment,emotion,1.0,,,,1021.148946799978,224,25,female,True,10211,10221,False,False,inspiration,expiration
349,76.0,25,M,up,0.8986842999875079,1.849785818961816,,experiment,emotion,1.0,,,,1024.2657046999955,224,25,female,True,10242,10251,False,False,inspiration,expiration
350,83.0,25,F,up,0.8210477999818977,0.4406610146612504,,experiment,emotion,1.0,,,,1025.8823075999971,224,25,female,True,10258,10266,False,False,expiration,inspiration
351,76.0,25,F,up,1.1001321999938227,1.2045394561927287,,experiment,emotion,1.0,,,,1028.182217499998,224,25,female,True,10281,10292,False,False,expiration,expiration
352,79.0,25,F,up,0.7255369999911636,1.5235789020000468,,experiment,emotion,1.0,,,,1031.098802499997,224,25,female,True,10310,10317,False,False,expiration,expiration
353,83.0,25,F,up,1.783963499998208,0.7340835168312949,,experiment,emotion,1.0,,,,1032.815371499979,224,25,female,True,10327,10345,False,False,expiration,expiration
354,79.0,25,F,down,0.9454159000015352,1.6928326769624569,,experiment,emotion,1.0,,,,1036.5819193999923,224,25,female,True,10365,10374,False,False,inspiration,expiration
355,73.0,25,F,down,0.8621632999856956,0.8034537198516449,,experiment,emotion,1.0,,,,1038.6151731999996,224,25,female,True,10385,10394,False,False,expiration,inspiration
356,76.0,25,M,down,0.921873199986294,1.7392239166014052,,experiment,emotion,1.0,,,,1041.4984140000017,224,25,female,True,10414,10423,False,False,expiration,expiration
357,73.0,25,M,down,0.8557547999953385,1.934216311966512,,experiment,emotion,1.0,,,,1044.6315936999745,224,25,female,True,10445,10454,False,False,expiration,expiration
358,83.0,25,M,down,0.9325025000143796,1.4763028680415733,,experiment,emotion,1.0,,,,1047.2648422999773,224,25,female,True,10472,10481,False,False,inspiration,expiration
359,73.0,25,M,down,0.8689779000123963,0.3173549027950821,,experiment,emotion,1.0,,,,1048.781465099979,224,25,female,True,10487,10496,False,False,expiration,inspiration
360,79.0,25,F,up,1.259632800007239,1.402735893828218,,experiment,emotion,1.0,,,,1051.3646949999966,224,25,female,True,10513,10526,False,False,expiration,trough
361,79.0,25,M,down,0.7740542000101414,0.5342363731994066,,experiment,emotion,1.0,,,,1053.4313062999863,224,25,female,True,10534,10542,False,False,inspiration,expiration
362,76.0,25,M,up,1.482755700009875,0.7327390099461559,,experiment,emotion,1.0,,,,1055.2145648000003,224,25,female,True,10551,10566,False,False,expiration,peak
363,76.0,25,F,down,1.1599312000034845,1.93459454854873,,experiment,emotion,1.0,,,,1058.9144058999955,224,25,female,True,10588,10600,False,False,inspiration,expiration
364,73.0,25,M,down,1.0855120000196619,1.5656689862766722,,experiment,emotion,1.0,,,,1061.930819399975,224,25,female,True,10619,10630,False,False,inspiration,inspiration
365,83.0,25,F,up,0.6691865999891888,1.7090455225379997,,experiment,emotion,1.0,,,,1065.0141789999907,224,25,female,True,10649,10656,True,True,peak,expiration
366,79.0,25,F,down,0.6579519000079017,1.6192745339418713,,experiment,emotion,1.0,,,,1067.5973997999972,224,25,female,True,10675,10682,True,True,expiration,expiration
367,73.0,25,M,down,1.0473563999985345,1.8759446457962168,,experiment,emotion,1.0,,,,1070.4139760999824,224,25,female,True,10703,10713,True,True,expiration,expiration
368,83.0,25,M,down,1.9224503000150437,1.6794952748971181,,experiment,emotion,1.0,,,,1073.4138805999828,224,25,female,True,10733,10752,True,True,inspiration,expiration
369,83.0,25,F,up,0.6106107999803498,0.6173189745421799,,experiment,emotion,1.0,,,,1076.2307174000016,224,25,female,True,10762,10768,True,False,expiration,inspiration
370,76.0,25,M,down,0.6576166999875568,0.7367427976984857,,experiment,emotion,1.0,,,,1077.863723699993,224,25,female,True,10778,10785,False,False,expiration,expiration
371,73.0,25,F,down,0.6413009999960195,0.7080507020736668,,experiment,emotion,1.0,,,,1079.4969913999955,224,25,female,True,10794,10800,False,False,expiration,expiration
372,76.0,25,F,down,0.7167373000120278,1.4591739480103971,,experiment,emotion,1.0,,,,1081.8635759999743,224,25,female,True,10818,10825,False,False,expiration,expiration
373,79.0,25,F,down,0.8721939999959432,1.0210088999258524,,experiment,emotion,1.0,,,,1083.8801716999733,224,25,female,True,10838,10847,False,False,expiration,inspiration
374,73.0,25,M,down,0.7226254999986851,1.9744661199788842,,experiment,emotion,1.0,,,,1086.996702399978,224,25,female,True,10869,10876,False,False,expiration,expiration
375,83.0,25,M,up,0.9873923000122886,1.8819555308634803,,experiment,emotion,1.0,,,,1089.879935999983,224,25,female,True,10898,10908,False,False,expiration,expiration
376,79.0,25,M,down,0.5917855000006966,0.7497560191840191,,experiment,emotion,1.0,,,,1091.8965485999943,224,25,female,True,10918,10924,False,False,expiration,inspiration
377,83.0,25,F,up,1.507839600002626,0.6038782976719874,,experiment,emotion,1.0,,,,1093.346485099988,224,25,female,True,10933,10948,False,False,expiration,expiration
378,73.0,25,F,down,0.7453103000007104,1.9353386971865043,,experiment,emotion,1.0,,,,1097.0630141999864,224,25,female,True,10970,10977,False,False,expiration,expiration
379,79.0,25,M,down,1.1886902000114787,1.1507463506793938,,experiment,emotion,1.0,,,,1099.2296385999944,224,25,female,True,10992,11004,False,False,inspiration,expiration
380,76.0,25,F,down,1.3304456000041682,0.3484844365516922,,experiment,emotion,1.0,,,,1101.0628676999768,224,25,female,True,11010,11023,False,False,expiration,inspiration
381,76.0,25,M,down,0.8079117999877781,1.2095222511955224,,experiment,emotion,1.0,,,,1103.879429499997,224,25,female,True,11038,11046,False,False,expiration,inspiration
382,79.0,25,M,down,1.1196327999932691,1.0134845627191378,,experiment,emotion,1.0,,,,1105.9626816999807,224,25,female,True,11059,11070,False,False,expiration,expiration
383,83.0,25,M,up,1.3911088999884669,1.7055991889822983,,experiment,emotion,1.0,,,,1109.0792321999907,224,25,female,True,11090,11104,False,False,inspiration,expiration
384,76.0,25,F,down,0.7518715999904089,1.3303160454179968,,experiment,emotion,1.0,,,,1112.0624758999913,224,25,female,True,11120,11128,False,False,inspiration,peak
385,73.0,25,F,down,0.8150397999852429,0.3171306839008821,,experiment,emotion,1.0,,,,1113.4124269999738,224,25,female,True,11133,11141,False,False,expiration,expiration
386,73.0,25,M,down,0.7943335000018124,0.9865961683363552,,experiment,emotion,1.0,,,,1115.4790004999961,224,25,female,True,11154,11162,False,False,inspiration,peak
387,76.0,25,F,down,0.7239040000131354,1.713039365277665,,experiment,emotion,1.0,,,,1118.2454540999897,224,25,female,True,11182,11189,False,False,expiration,inspiration
388,83.0,25,F,down,1.0641637000080664,1.2174935195883558,,experiment,emotion,1.0,,,,1120.462165999983,224,25,female,True,11204,11215,False,False,expiration,inspiration
389,79.0,25,M,down,0.9079923999961466,1.6407344458353328,,experiment,emotion,1.0,,,,1123.4953677999727,224,25,female,True,11234,11243,False,False,inspiration,expiration
390,73.0,25,M,down,0.7401057999813929,0.8867049094940154,,experiment,emotion,1.0,,,,1125.5452163000011,224,25,female,True,11255,11262,False,False,expiration,inspiration
391,83.0,25,F,down,0.9731463000061922,0.7898346841972057,,experiment,emotion,1.0,,,,1127.345178699994,224,25,female,True,11273,11283,False,False,expiration,expiration
392,79.0,25,M,down,0.9659361999947578,1.8280500322647928,,experiment,emotion,1.0,,,,1130.4284297999984,224,25,female,True,11304,11314,False,False,inspiration,expiration
393,79.0,25,F,down,0.9443014000135008,1.6803663511179996,,experiment,emotion,1.0,,,,1133.3450085999793,224,25,female,True,11333,11342,False,False,inspiration,expiration
394,73.0,25,F,up,1.0980800999968778,1.4303840755515675,,experiment,emotion,1.0,,,,1135.978241899982,224,25,female,True,11359,11370,False,False,expiration,peak
395,76.0,25,F,down,0.6915555000014137,1.2874423714954022,,experiment,emotion,1.0,,,,1138.6447455000016,224,25,female,True,11386,11393,False,False,expiration,inspiration
396,83.0,25,M,down,0.9719561000238172,1.5910611036825288,,experiment,emotion,1.0,,,,1141.2113902999845,224,25,female,True,11411,11421,False,False,expiration,expiration
397,76.0,25,M,down,1.0840456000005358,1.502436429803171,,experiment,emotion,1.0,,,,1143.9612983999832,224,25,female,True,11439,11450,False,False,expiration,expiration
398,76.0,25,F,down,0.993138000019826,1.5550378240187748,,experiment,emotion,1.0,,,,1146.861180799984,224,25,female,True,11468,11478,False,False,inspiration,expiration
399,76.0,25,F,down,0.8352068999956828,0.6893133351834662,,experiment,emotion,1.0,,,,1148.8111142999842,224,25,female,True,11487,11495,False,False,expiration,inspiration
400,83.0,25,M,down,1.3790136000025086,1.6720730748407169,,experiment,emotion,1.0,,,,1151.594336899987,224,25,female,True,11515,11529,False,False,expiration,peak
401,79.0,25,M,down,0.6274511000083294,1.4629886639741498,,experiment,emotion,1.0,,,,1154.710886899993,224,25,female,True,11546,11552,False,False,trough,inspiration
402,73.0,25,M,down,0.7978181000216864,0.4742095571373447,,experiment,emotion,1.0,,,,1156.0774994999808,224,25,female,True,11560,11568,False,False,expiration,expiration
403,73.0,25,M,down,0.7648920999781694,1.2882328196578494,,experiment,emotion,1.0,,,,1158.427421499975,224,25,female,True,11583,11591,False,False,inspiration,expiration
404,79.0,25,M,down,0.977290400012862,1.3235775855916452,,experiment,emotion,1.0,,,,1160.7940127999755,224,25,female,True,11607,11617,False,False,inspiration,expiration
405,83.0,25,F,up,0.6617217000166421,1.2111746061382018,,experiment,emotion,1.0,,,,1163.260569299979,224,25,female,True,11632,11639,False,False,expiration,inspiration
406,83.0,25,F,up,1.0935055000009015,0.3451188589706737,,experiment,emotion,1.0,,,,1164.5438598999754,224,25,female,True,11645,11656,False,False,inspiration,expiration
407,73.0,25,M,down,0.8489285999967251,1.7484384846818637,,experiment,emotion,1.0,,,,1167.6604143999866,224,25,female,True,11676,11684,False,False,inspiration,expiration
408,83.0,25,F,down,0.7960904999927152,1.4427489428775917,,experiment,emotion,1.0,,,,1170.2102992,224,25,female,True,11701,11709,False,False,inspiration,inspiration
409,76.0,25,F,down,0.7294333000027109,1.396852568860306,,experiment,emotion,1.0,,,,1172.676882299973,224,25,female,True,11726,11733,False,False,expiration,inspiration
410,79.0,25,F,down,0.9078600999782792,1.6983763417321365,,experiment,emotion,1.0,,,,1175.3934612999726,224,25,female,True,11753,11762,False,False,expiration,expiration
411,76.0,25,M,down,0.7693014999968,1.892696674589036,,experiment,emotion,1.0,,,,1178.4600149999894,224,25,female,True,11784,11792,False,False,expiration,expiration
412,73.0,25,F,down,1.0107629999984056,1.457494207525548,,experiment,emotion,1.0,,,,1180.9765851999982,224,25,female,True,11809,11819,False,False,inspiration,expiration
413,79.0,25,F,up,0.971851999987848,1.4045255461985364,,experiment,emotion,1.0,,,,1183.676480299997,224,25,female,True,11836,11846,False,False,inspiration,expiration
414,76.0,25,F,up,0.6839245999872219,0.8523995465695666,,experiment,emotion,1.0,,,,1185.7764083999793,224,25,female,True,11857,11864,False,False,expiration,inspiration
415,79.0,25,M,down,1.559074300021166,1.2973805630110682,,experiment,emotion,1.0,,,,1188.0262667999775,224,25,female,True,11880,11896,False,False,expiration,inspiration
416,73.0,25,M,down,0.8651344999962021,1.8151721557000449,,experiment,emotion,1.0,,,,1191.6761855999941,224,25,female,True,11916,11925,False,False,expiration,expiration
417,83.0,25,F,up,0.8178770999948028,1.2794880288068038,,experiment,emotion,1.0,,,,1194.1094369999773,224,25,female,True,11940,11948,False,False,peak,expiration
418,79.0,25,M,down,1.2142635000054725,0.6714608019473929,,experiment,emotion,1.0,,,,1195.8760395999998,224,25,female,True,11958,11970,False,False,expiration,inspiration
419,83.0,25,F,down,1.547510500007775,1.2616337836992106,,experiment,emotion,1.0,,,,1198.6258430999878,224,25,female,True,11986,12001,False,False,expiration,inspiration
420,73.0,25,M,down,0.6617881999991369,0.44028704363094295,,experiment,emotion,1.0,,,,1200.8925205999985,224,25,female,True,12008,12015,False,False,expiration,expiration
421,76.0,25,M,down,0.9076338000013492,1.2694757187510557,,experiment,emotion,1.0,,,,1203.1256708999865,224,25,female,True,12031,12040,False,False,inspiration,expiration
422,0.062014596283912836,25,up,down,1.7193923000013456,0.4262262162789291,,experiment,cRDM,1.0,,,,1272.2899003999773,224,25,female,True,12722,12739,False,False,expiration,expiration
423,0.062014596283912836,25,up,up,0.6168759999854956,0.9342115766710386,,experiment,cRDM,1.0,,,,1275.2064297999896,224,25,female,True,12751,12757,False,False,inspiration,inspiration
424,0.062014596283912836,25,down,down,0.6747619999805465,0.9453234428000252,,experiment,cRDM,1.0,,,,1277.0395429999915,224,25,female,True,12770,12777,False,False,expiration,expiration
425,0.062014596283912836,25,down,up,0.7963485999789555,0.8961614881122832,,experiment,cRDM,1.0,,,,1278.8729740999988,224,25,female,True,12788,12796,False,False,expiration,inspiration
426,0.062014596283912836,25,up,up,0.7950865000020713,0.7736762994313818,,experiment,cRDM,1.0,,,,1280.7062370999777,224,25,female,True,12806,12814,False,False,expiration,expiration
427,0.062014596283912836,25,down,down,0.6905110999941826,1.5093701315402182,,experiment,cRDM,1.0,,,,1283.2728130999894,224,25,female,True,12832,12839,False,False,trough,inspiration
428,0.062014596283912836,25,up,down,0.6571456000092439,0.6217510382879562,,experiment,cRDM,1.0,,,,1284.8561275999816,224,25,female,True,12848,12855,False,False,expiration,expiration
429,0.062014596283912836,25,up,down,1.5930924999993294,0.8551222460093493,,experiment,cRDM,1.0,,,,1286.63921579998,224,25,female,True,12866,12882,False,False,inspiration,expiration
430,0.062014596283912836,25,down,up,1.4113910999731158,1.9721137795600585,,experiment,cRDM,1.0,,,,1290.455911500001,224,25,female,True,12904,12918,False,False,inspiration,expiration
431,0.062014596283912836,25,down,up,1.52850829999079,0.7200553193313491,,experiment,cRDM,1.0,,,,1292.8557968999958,224,25,female,True,12928,12943,False,False,expiration,inspiration
432,0.062014596283912836,25,down,up,1.0629079999926034,0.9322701264754945,,experiment,cRDM,1.0,,,,1295.572383599996,224,25,female,True,12955,12966,False,False,expiration,inspiration
433,0.062014596283912836,25,down,up,1.2027326000097671,1.848207943608934,,experiment,cRDM,1.0,,,,1298.7555708999862,224,25,female,True,12987,12999,False,False,expiration,inspiration
434,0.062014596283912836,25,down,up,0.8873221999965608,1.7922379081495303,,experiment,cRDM,1.0,,,,1302.0219464999973,224,25,female,True,13020,13029,False,False,inspiration,inspiration
435,0.062014596283912836,25,down,down,1.1355897999892477,1.9745729862023316,,experiment,cRDM,1.0,,,,1305.1387086999894,224,25,female,True,13051,13062,False,False,trough,peak
436,0.062014596283912836,25,up,up,0.6935677000146825,1.1688523311368386,,experiment,cRDM,1.0,,,,1307.7217790999855,224,25,female,True,13077,13084,False,False,expiration,expiration
437,0.062014596283912836,25,up,up,1.1886081999982707,1.137468904003694,,experiment,cRDM,1.0,,,,1309.8217586999815,224,25,female,True,13098,13110,False,False,inspiration,expiration
438,0.062014596283912836,25,up,up,1.6317563999909908,1.2399225808334224,,experiment,cRDM,1.0,,,,1312.5215252999915,224,25,female,True,13125,13141,False,False,expiration,expiration
439,0.062014596283912836,25,up,up,0.8106362999824341,1.4990251634874203,,experiment,cRDM,1.0,,,,1315.92163289999,224,25,female,True,13159,13167,False,False,inspiration,inspiration
440,0.062014596283912836,25,down,up,0.9214168999751564,0.3569895958146704,,experiment,cRDM,1.0,,,,1317.3548761999991,224,25,female,True,13173,13182,False,False,expiration,expiration
441,0.062014596283912836,25,up,up,0.8695023999898694,1.4145089011608605,,experiment,cRDM,1.0,,,,1319.9547871999964,224,25,female,True,13199,13208,False,False,inspiration,expiration
442,0.062014596283912836,25,up,up,0.9722384000197052,1.9513869890364992,,experiment,cRDM,1.0,,,,1323.0380576999742,224,25,female,True,13230,13240,False,False,inspiration,expiration
443,0.062014596283912836,25,down,up,0.8163933000178076,1.6209228664523698,,experiment,cRDM,1.0,,,,1325.887901499984,224,25,female,True,13258,13266,False,False,inspiration,expiration
444,0.062014596283912836,25,up,up,0.7925028000026941,1.7285754574797214,,experiment,cRDM,1.0,,,,1328.6878127999953,224,25,female,True,13286,13294,False,False,inspiration,peak
445,0.062014596283912836,25,down,up,1.123232799989637,0.6362287185295108,,experiment,cRDM,1.0,,,,1330.3710813999933,224,25,female,True,13303,13314,False,False,expiration,inspiration
446,0.062014596283912836,25,down,down,0.7612974999938159,1.819593639173652,,experiment,cRDM,1.0,,,,1333.5709617999964,224,25,female,True,13335,13343,False,False,expiration,expiration
447,0.062014596283912836,25,up,up,0.6931474999873899,1.9007045999822327,,experiment,cRDM,1.0,,,,1336.5041648999904,224,25,female,True,13364,13371,False,False,expiration,expiration
448,0.062014596283912836,25,up,up,1.216827700001886,0.7790372031925433,,experiment,cRDM,1.0,,,,1338.2374705999973,224,25,female,True,13382,13394,False,False,inspiration,expiration
449,0.062014596283912836,25,down,up,1.0049370999913665,1.7146563893239974,,experiment,cRDM,1.0,,,,1341.4373614999934,224,25,female,True,13414,13424,False,False,inspiration,expiration
450,0.062014596283912836,25,up,up,0.8780274000018835,1.3341136747509554,,experiment,cRDM,1.0,,,,1344.037262400001,224,25,female,True,13440,13449,False,False,expiration,inspiration
451,0.062014596283912836,25,down,up,0.8507395999913571,1.7042124297931172,,experiment,cRDM,1.0,,,,1346.8704805999878,224,25,female,True,13468,13477,False,False,expiration,trough
452,0.062014596283912836,25,down,up,0.9955298000131734,0.4744995732180456,,experiment,cRDM,1.0,,,,1348.4537488999777,224,25,female,True,13484,13494,False,False,inspiration,expiration
453,0.062014596283912836,25,down,up,0.9169548999925609,0.6146956826016259,,experiment,cRDM,1.0,,,,1350.3203179999834,224,25,female,True,13503,13512,False,False,expiration,inspiration
454,0.062014596283912836,25,up,up,1.3363515000091866,1.3274006669754874,,experiment,cRDM,1.0,,,,1352.8369434999768,224,25,female,True,13528,13541,False,False,expiration,expiration
455,0.062014596283912836,25,up,up,1.8732621999806724,0.6744071934895037,,experiment,cRDM,1.0,,,,1355.1200263999924,224,25,female,True,13551,13570,False,False,inspiration,expiration
456,0.062014596283912836,25,up,down,0.8305645000073127,1.8850656788863196,,experiment,cRDM,1.0,,,,1359.136720999988,224,25,female,True,13591,13599,False,False,expiration,expiration
457,0.062014596283912836,25,down,up,1.2224503000034022,1.8022570764105128,,experiment,cRDM,1.0,,,,1362.0198685999785,224,25,female,True,13620,13632,False,False,inspiration,expiration
458,0.062014596283912836,25,down,down,1.6727964000019708,1.1035223507514111,,experiment,cRDM,1.0,,,,1364.5864972999843,224,25,female,True,13645,13662,False,False,expiration,expiration
459,0.062014596283912836,25,up,up,0.7385956000071019,1.0491267654817067,,experiment,cRDM,1.0,,,,1367.5696990999859,224,25,female,True,13675,13682,False,False,expiration,inspiration
460,0.062014596283912836,25,down,up,1.226002699986566,1.3704615160729916,,experiment,cRDM,1.0,,,,1369.9363096999878,224,25,female,True,13699,13711,False,False,expiration,expiration
461,0.062014596283912836,25,up,up,1.476782200013986,1.6508848457788512,,experiment,cRDM,1.0,,,,1373.069502699975,224,25,female,True,13730,13745,False,False,expiration,expiration
462,0.062014596283912836,25,up,up,0.8652130000118632,1.886230258263187,,experiment,cRDM,1.0,,,,1376.6860563999799,224,25,female,True,13766,13775,False,False,expiration,expiration
463,0.062014596283912836,25,up,down,0.7501190000039059,0.31022341799326164,,experiment,cRDM,1.0,,,,1378.1191961999866,224,25,female,True,13781,13789,False,False,expiration,inspiration
464,0.062014596283912836,25,down,up,0.8072258000029251,0.6923165111976919,,experiment,cRDM,1.0,,,,1379.819064499985,224,25,female,True,13798,13806,False,False,expiration,expiration
465,0.062014596283912836,25,down,up,1.0614193000074008,0.6864432450884694,,experiment,cRDM,1.0,,,,1381.5858597999904,224,25,female,True,13815,13826,False,False,expiration,inspiration
466,0.062014596283912836,25,up,up,0.939516199985519,0.3166479876456247,,experiment,cRDM,1.0,,,,1383.2358375999902,224,25,female,True,13832,13841,False,False,expiration,expiration
467,0.062014596283912836,25,down,up,1.0405597000208218,1.594913929786796,,experiment,cRDM,1.0,,,,1386.0357269999804,224,25,female,True,13860,13870,False,False,peak,expiration
468,0.062014596283912836,25,down,up,0.7430177000060212,1.7201289882799264,,experiment,cRDM,1.0,,,,1389.052270299988,224,25,female,True,13890,13897,False,False,inspiration,expiration
469,0.062014596283912836,25,up,up,0.7101194999995641,0.8539355481362291,,experiment,cRDM,1.0,,,,1390.902164499974,224,25,female,True,13908,13915,False,False,expiration,inspiration
470,0.062014596283912836,25,up,up,0.6737122999911662,1.7285014605757498,,experiment,cRDM,1.0,,,,1393.618570599996,224,25,female,True,13936,13943,False,False,expiration,expiration
471,0.062014596283912836,25,down,up,0.7896239999972751,1.2073882966383171,,experiment,cRDM,1.0,,,,1395.7686746999968,224,25,female,True,13957,13965,False,False,expiration,expiration
472,0.062014596283912836,25,up,up,0.5950766000023577,1.7690679133616,,experiment,cRDM,1.0,,,,1398.5852345999738,224,25,female,True,13985,13991,False,False,expiration,expiration
473,0.062014596283912836,25,down,up,0.7898381999984849,1.2212651263998646,,experiment,cRDM,1.0,,,,1400.6684771,224,25,female,True,14006,14014,False,False,inspiration,expiration
474,0.062014596283912836,25,down,up,0.6792205999954604,1.9798559864070215,,experiment,cRDM,1.0,,,,1403.685031799978,224,25,female,True,14036,14043,False,False,inspiration,expiration
475,0.062014596283912836,25,down,up,1.0476108999864664,0.6225118925078734,,experiment,cRDM,1.0,,,,1405.2516502999933,224,25,female,True,14052,14062,False,False,expiration,inspiration
476,0.062014596283912836,25,up,up,0.7623568999988493,1.4763045343886794,,experiment,cRDM,1.0,,,,1408.0349261999945,224,25,female,True,14080,14088,False,False,expiration,expiration
477,0.062014596283912836,25,up,up,0.7834747000015341,0.9259106228551748,,experiment,cRDM,1.0,,,,1409.9848054999893,224,25,female,True,14099,14107,False,False,inspiration,expiration
478,0.062014596283912836,25,down,up,0.950901400006842,1.5376789682235248,,experiment,cRDM,1.0,,,,1412.5513987999875,224,25,female,True,14125,14135,False,False,inspiration,expiration
479,0.062014596283912836,25,down,up,1.0306605999940075,0.4147628446120048,,experiment,cRDM,1.0,,,,1414.1846560999984,224,25,female,True,14141,14151,False,False,expiration,inspiration
480,0.062014596283912836,25,up,up,0.7453855999920052,1.356443937985721,,experiment,cRDM,1.0,,,,1416.8178924999954,224,25,female,True,14168,14175,False,False,expiration,expiration
481,0.062014596283912836,25,up,up,0.7341289000178222,1.3148723175225532,,experiment,cRDM,1.0,,,,1419.1511560999786,224,25,female,True,14191,14198,False,False,expiration,expiration
482,0.062014596283912836,25,up,up,1.8998916000127792,0.8417492756386493,,experiment,cRDM,1.0,,,,1420.984426799987,224,25,female,True,14209,14228,False,False,inspiration,expiration
483,0.062014596283912836,25,up,down,1.6636579000041818,1.8540662619037125,,experiment,cRDM,1.0,,,,1425.017614799988,224,25,female,True,14250,14267,False,False,expiration,expiration
484,0.062014596283912836,25,up,up,0.7878123999980744,1.4258605977921357,,experiment,cRDM,1.0,,,,1428.3674625999995,224,25,female,True,14283,14291,False,False,peak,expiration
485,0.062014596283912836,25,down,down,0.6855628000048455,1.784790253795462,,experiment,cRDM,1.0,,,,1431.2007150999852,224,25,female,True,14311,14318,False,False,inspiration,expiration
486,0.062014596283912836,25,down,up,1.08417049999116,0.659763713249448,,experiment,cRDM,1.0,,,,1432.8171082999909,224,25,female,True,14328,14339,False,False,expiration,expiration
487,0.062014596283912836,25,up,down,1.7207643000001551,1.5357646028972272,,experiment,cRDM,1.0,,,,1435.700505899993,224,25,female,True,14356,14373,False,False,expiration,expiration
488,0.062014596283912836,25,down,down,0.9321763000043576,1.089351575732432,,experiment,cRDM,1.0,,,,1438.767121199984,224,25,female,True,14387,14396,False,False,inspiration,expiration
489,0.062014596283912836,25,down,up,0.6435927999846172,0.7219994925828359,,experiment,cRDM,1.0,,,,1440.6836882999924,224,25,female,True,14406,14412,False,False,expiration,inspiration
490,0.062014596283912836,25,down,down,0.8617273999843746,1.7397885471166985,,experiment,cRDM,1.0,,,,1443.333589899994,224,25,female,True,14433,14442,False,False,expiration,expiration
491,0.062014596283912836,25,up,up,0.7117098000016995,0.37092887794111307,,experiment,cRDM,1.0,,,,1444.8335632999951,224,25,female,True,14448,14455,False,False,trough,inspiration
492,0.062014596283912836,25,down,down,0.7008407000103034,0.6777069054724346,,experiment,cRDM,1.0,,,,1446.4834708999842,224,25,female,True,14464,14471,False,False,expiration,expiration
493,0.062014596283912836,25,down,up,1.8234699000022372,1.3845454809360718,,experiment,cRDM,1.0,,,,1448.8167905999871,224,25,female,True,14488,14506,False,False,inspiration,expiration
494,0.062014596283912836,25,down,down,0.7839572000084445,0.6527135056465443,,experiment,cRDM,1.0,,,,1451.5333187999786,224,25,female,True,14515,14523,False,False,inspiration,peak
495,0.062014596283912836,25,up,up,0.8179023999837227,1.5525229318468416,,experiment,cRDM,1.0,,,,1454.1164067999923,224,25,female,True,14541,14549,False,False,expiration,inspiration
496,0.062014596283912836,25,up,down,0.7545336000039242,1.1099711602834021,,experiment,cRDM,1.0,,,,1456.2997486999955,224,25,female,True,14562,14570,False,False,expiration,expiration
497,0.062014596283912836,25,down,up,1.0026884999824688,1.5010631507416188,,experiment,cRDM,1.0,,,,1458.7995913999912,224,25,female,True,14588,14598,False,False,expiration,expiration
498,0.062014596283912836,25,up,up,0.8100240999774542,1.544701886875345,,experiment,cRDM,1.0,,,,1461.6162787999785,224,25,female,True,14616,14624,False,False,inspiration,expiration
499,0.062014596283912836,25,down,down,0.761421800008975,0.6976325879899097,,experiment,cRDM,1.0,,,,1463.3828517999789,224,25,female,True,14633,14641,False,False,expiration,inspiration
500,0.062014596283912836,25,up,up,0.784513299993705,0.7891533791004307,,experiment,cRDM,1.0,,,,1465.1827671999927,224,25,female,True,14651,14659,False,False,expiration,expiration
501,0.062014596283912836,25,up,down,0.7635673999902792,0.3056077191521415,,experiment,cRDM,1.0,,,,1466.5327126999912,224,25,female,True,14665,14673,False,False,expiration,inspiration
502,83.0,25,M,up,1.425667200004682,0.7779575854776763,,experiment,emotion,2.0,,,,1523.9306008999995,224,25,female,True,15239,15253,False,False,peak,expiration
503,73.0,25,M,up,1.201466900005471,1.4150826438346178,,experiment,emotion,2.0,,,,1527.0638026999952,224,25,female,True,15270,15282,False,False,expiration,expiration
504,79.0,25,F,down,0.6377903000102378,1.4092044612567394,,experiment,emotion,2.0,,,,1529.9637055999774,224,25,female,True,15299,15305,False,False,expiration,expiration
505,83.0,25,F,up,0.7539530000067316,0.7016167536366651,,experiment,emotion,2.0,,,,1531.5803108999974,224,25,female,True,15315,15323,False,False,expiration,expiration
506,79.0,25,M,up,0.8217045999772381,0.5107176697432461,,experiment,emotion,2.0,,,,1533.1135186999743,224,25,female,True,15331,15339,False,False,inspiration,peak
507,76.0,25,F,down,0.8534075000206941,1.427588454471571,,experiment,emotion,2.0,,,,1535.6468414999836,224,25,female,True,15356,15365,False,False,expiration,expiration
508,73.0,25,M,down,1.062614599999506,1.5288604279795956,,experiment,emotion,2.0,,,,1538.296723699983,224,25,female,True,15382,15393,False,False,inspiration,expiration
509,76.0,25,M,down,0.7040184999932535,0.7781987988223666,,experiment,emotion,2.0,,,,1540.4132447000009,224,25,female,True,15404,15411,False,False,expiration,inspiration
510,83.0,25,F,up,0.7077213999873493,1.698436553681274,,experiment,emotion,2.0,,,,1543.0965442000015,224,25,female,True,15430,15437,False,False,expiration,expiration
511,76.0,25,F,down,1.1417807999823708,1.1801804890006828,,experiment,emotion,2.0,,,,1545.2464682999996,224,25,female,True,15452,15463,False,False,inspiration,expiration
512,79.0,25,F,down,0.9875228000164498,0.4986987652571772,,experiment,emotion,2.0,,,,1547.1797440999944,224,25,female,True,15471,15481,False,False,expiration,inspiration
513,83.0,25,F,down,0.8945795999898108,1.048613214005443,,experiment,emotion,2.0,,,,1549.4796615999949,224,25,female,True,15494,15503,False,False,expiration,expiration
514,79.0,25,F,up,0.7703362999891397,1.017584785801553,,experiment,emotion,2.0,,,,1551.6629084999731,224,25,female,True,15516,15524,False,False,trough,inspiration
515,73.0,25,F,down,0.8587955000111833,1.4969815460181264,,experiment,emotion,2.0,,,,1554.229500599991,224,25,female,True,15542,15551,False,False,expiration,expiration
516,76.0,25,M,down,1.0442064999951979,1.1334551732059597,,experiment,emotion,2.0,,,,1556.4960519999731,224,25,female,True,15564,15574,False,False,inspiration,expiration
517,73.0,25,M,up,0.8139519999967888,1.2752281729979598,,experiment,emotion,2.0,,,,1559.0792962999842,224,25,female,True,15590,15598,False,False,inspiration,inspiration
518,83.0,25,M,up,0.6956849999842234,1.0980772458473906,,experiment,emotion,2.0,,,,1561.2625712000006,224,25,female,True,15612,15619,False,False,expiration,expiration
519,73.0,25,M,up,0.915454599977238,1.1638043833915133,,experiment,emotion,2.0,,,,1563.3957895999774,224,25,female,True,15633,15642,False,False,peak,expiration
520,79.0,25,F,up,1.0112418000062462,1.4080027067948455,,experiment,emotion,2.0,,,,1565.979056399985,224,25,female,True,15659,15669,False,False,inspiration,expiration
521,79.0,25,M,up,0.8586907999997493,1.3478406621797103,,experiment,emotion,2.0,,,,1568.5956170999852,224,25,female,True,15685,15694,False,False,expiration,inspiration
522,76.0,25,M,up,0.8890897999808658,1.0459225440641151,,experiment,emotion,2.0,,,,1570.7622085999756,224,25,female,True,15707,15716,False,False,expiration,expiration
523,76.0,25,F,down,0.9753200999984984,0.5997312853201552,,experiment,emotion,2.0,,,,1572.5120030999826,224,25,female,True,15725,15735,False,False,inspiration,expiration
524,73.0,25,M,down,0.6242566999862902,0.3543615913340187,,experiment,emotion,2.0,,,,1574.1120512999769,224,25,female,True,15741,15747,False,False,expiration,expiration
525,83.0,25,F,up,0.7279157000011764,1.4123029062296215,,experiment,emotion,2.0,,,,1576.4453218999845,224,25,female,True,15764,15771,False,False,expiration,expiration
526,79.0,25,F,down,0.8203348999959417,1.4076656442710922,,experiment,emotion,2.0,,,,1578.86190779999,224,25,female,True,15788,15796,False,False,inspiration,expiration
527,73.0,25,M,down,0.7837966999795754,1.033912695181621,,experiment,emotion,2.0,,,,1580.9784896999772,224,25,female,True,15809,15817,False,False,expiration,inspiration
528,83.0,25,M,down,0.8128205999964848,1.1875193703420066,,experiment,emotion,2.0,,,,1583.2284207999764,224,25,female,True,15832,15840,False,False,expiration,expiration
529,83.0,25,F,up,0.7043340000091121,0.8839587970784797,,experiment,emotion,2.0,,,,1585.19498629999,224,25,female,True,15851,15858,False,False,inspiration,inspiration
530,76.0,25,M,down,0.921008700010134,1.757771918647551,,experiment,emotion,2.0,,,,1587.928244199982,224,25,female,True,15879,15888,False,False,expiration,inspiration
531,73.0,25,F,down,1.5451029000105336,1.0975077941696765,,experiment,emotion,2.0,,,,1590.2281546999875,224,25,female,True,15902,15917,False,False,expiration,inspiration
532,76.0,25,F,up,0.9332116000005044,1.390801795349758,,experiment,emotion,2.0,,,,1593.4280530999822,224,25,female,True,15934,15943,False,False,expiration,expiration
533,79.0,25,F,down,0.7450167999777477,1.7181278887881102,,experiment,emotion,2.0,,,,1596.3612595000013,224,25,female,True,15963,15970,False,False,expiration,expiration
534,73.0,25,M,down,1.0420778999978209,1.4786490866086603,,experiment,emotion,2.0,,,,1598.861174199992,224,25,female,True,15988,15998,False,False,trough,inspiration
535,83.0,25,M,up,0.7511648999934549,0.7698216144950727,,experiment,emotion,2.0,,,,1600.9610904,224,25,female,True,16009,16017,False,False,expiration,expiration
536,79.0,25,M,up,0.8703850000165403,1.3355919785172523,,experiment,emotion,2.0,,,,1603.3108659999853,224,25,female,True,16033,16042,False,False,inspiration,inspiration
537,83.0,25,F,down,1.16136070000357,1.710545921331059,,experiment,emotion,2.0,,,,1606.1608916999828,224,25,female,True,16061,16073,False,False,expiration,expiration
