,stimLvl,stimTime,rand,response,rt,precedingITI,trialNumber,trialType,stimuli,block,estIntens,estThres,estSlope,trialStart,subject,age,gender,headRest,onset,responsI,manBadOnset,manBadRespons,onset_phase,respons_phase
0,150.0,100,F,up,2.9030693999957293,1.4183337544551846,,introTrial,emotion,,,,,213.02710529998882,525,26,male,True,2129,2158,False,False,inspiration,inspiration
1,0.9,100,down,down,3.4285205001942813,0.8975838477265303,,introTrial,cRDM,,,,,217.0936382999644,525,26,male,True,2170,2204,False,False,peak,inspiration
2,200.0,25,F,up,1.236928900005296,0.9979906357979836,,tutorial,emotion,,,,,254.6422322001308,525,26,male,True,2545,2557,False,False,inspiration,expiration
3,200.0,25,M,up,0.8713261000812054,1.0462121485471405,,tutorial,emotion,,,,,257.2088327000384,525,26,male,True,2571,2580,False,False,expiration,inspiration
4,200.0,25,M,up,0.7780430000275373,1.2168061203308598,,tutorial,emotion,,,,,259.59206319996156,525,26,male,True,2595,2603,False,False,expiration,expiration
5,0.0,25,F,down,0.7364544998854399,0.8499284996736263,,tutorial,emotion,,,,,261.50866360007785,525,26,male,True,2614,2621,False,False,inspiration,expiration
6,0.0,25,F,down,0.5327463001012802,1.5396305381493216,,tutorial,emotion,,,,,264.0584383001551,525,26,male,True,2640,2645,False,False,inspiration,inspiration
7,200.0,25,M,up,0.6163510999176651,0.8401945738040517,,tutorial,emotion,,,,,265.7418144000694,525,26,male,True,2656,2662,False,False,expiration,expiration
8,0.0,25,F,down,0.8287485998589545,1.9727057071561,,tutorial,emotion,,,,,268.608387199929,525,26,male,True,2685,2693,False,False,expiration,expiration
9,200.0,25,F,up,0.9171881000511348,1.723656261934143,,tutorial,emotion,,,,,271.4249537000433,525,26,male,True,2713,2722,False,False,inspiration,expiration
10,0.0,25,M,down,0.698094499995932,0.915187362681025,,tutorial,emotion,,,,,273.55807520006783,525,26,male,True,2735,2742,False,False,inspiration,expiration
11,0.0,25,M,down,0.7643669000826776,1.2226881276330979,,tutorial,emotion,,,,,275.7747947999742,525,26,male,True,2757,2765,False,False,expiration,inspiration
12,0.9,25,up,up,1.617128900019452,1.7224182590377548,,tutorial,cRDM,,,,,288.99098090012563,525,26,male,True,2889,2905,False,False,expiration,expiration
13,0.9,25,up,up,0.9803291999269276,0.9969293651731436,,tutorial,cRDM,,,,,291.8908661000896,525,26,male,True,2918,2928,False,False,inspiration,expiration
14,0.9,25,down,down,0.7663747998885809,1.6082594628501867,,tutorial,cRDM,,,,,294.7407371001318,525,26,male,True,2946,2954,False,False,inspiration,inspiration
15,0.9,25,down,down,0.7544964998960495,1.294932330855459,,tutorial,cRDM,,,,,297.0906653001439,525,26,male,True,2970,2978,False,False,expiration,inspiration
16,0.9,25,up,up,0.6949264002032578,1.7812296782727441,,tutorial,cRDM,,,,,299.90722550009383,525,26,male,True,2998,3005,False,False,expiration,expiration
17,0.9,25,down,down,0.7087075999006629,1.9227923004660528,,tutorial,cRDM,,,,,302.790451799985,525,26,male,True,3027,3034,False,False,inspiration,expiration
18,0.9,25,up,up,0.5457838999573141,1.215329833015616,,tutorial,cRDM,,,,,304.9903762000613,525,26,male,True,3049,3054,False,False,expiration,expiration
19,0.9,25,up,up,0.8124695001170039,0.5216397744782011,,tutorial,cRDM,,,,,306.32366500003263,525,26,male,True,3062,3070,False,False,inspiration,expiration
20,0.9,25,down,down,0.7462355999741703,0.8194739253668955,,tutorial,cRDM,,,,,308.2069254000671,525,26,male,True,3081,3088,False,False,expiration,expiration
21,0.9,25,down,down,0.6736341998912394,1.290695670806557,,tutorial,cRDM,,,,,310.5235033000354,525,26,male,True,3104,3111,False,False,peak,expiration
22,100.0,25,M,up,0.8616863999050111,1.851520633847152,,psi_staircase_training,emotion,,100.0,100.0,25.00050000000001,323.2063931000885,525,26,male,True,3231,3240,False,False,expiration,expiration
23,55.0,25,M,down,0.7784879000391811,0.5537065844614544,,psi_staircase_training,emotion,,54.742809467541896,54.742809467541896,25.00050000000011,324.98963640001597,525,26,male,True,3249,3257,False,False,trough,inspiration
24,79.0,25,F,down,0.7502323000226171,1.5759022793781958,,psi_staircase_training,emotion,,79.636070985635,79.636070985635,25.71326925488641,327.7228827001527,525,26,male,True,3276,3284,False,False,expiration,expiration
25,103.0,25,F,down,1.173331000143662,0.6995886449623615,,psi_staircase_training,emotion,,97.61123893914808,97.61123893914808,26.1463337262867,329.52279700012883,525,26,male,True,3294,3306,False,False,expiration,peak
26,127.0,25,M,up,0.7443750998936594,1.4649979896626766,,psi_staircase_training,emotion,,117.15641007867752,117.15641007867752,31.432291447829705,332.5227004000917,525,26,male,True,3324,3331,False,False,expiration,inspiration
27,116.0,25,F,up,0.6221668999642134,1.5251697516888938,,psi_staircase_training,emotion,,105.03864224082596,105.03864224082596,29.69406400548579,335.15591890015634,525,26,male,True,3351,3357,False,False,expiration,expiration
28,88.0,25,M,down,0.9762692998629064,1.8675997274903018,,psi_staircase_training,emotion,,98.16151255584974,98.16151255584974,27.87588470540113,338.00584240001626,525,26,male,True,3379,3389,False,False,expiration,expiration
29,116.0,25,F,up,0.9270907000172884,1.6230594485307936,,psi_staircase_training,emotion,,103.47850698803556,103.47850698803556,26.167505567848767,340.9390362999402,525,26,male,True,3408,3417,False,False,inspiration,expiration
30,88.0,25,F,up,0.7004832001402974,0.4052181960140778,,psi_staircase_training,emotion,,99.56005942312154,99.56005942312154,24.06105184598684,342.60566970007494,525,26,male,True,3425,3432,False,False,expiration,inspiration
31,74.0,25,M,down,0.7026658998802304,1.4727917249247169,,psi_staircase_training,emotion,,91.91983893808435,91.91983893808435,29.04129467771474,345.15548580000177,525,26,male,True,3451,3458,False,False,expiration,expiration
32,76.0,25,F,down,0.8129495000466704,1.336619111595407,,psi_staircase_training,emotion,,94.91103073229219,94.91103073229219,27.331179953636077,347.5721688999329,525,26,male,True,3475,3483,False,False,inspiration,expiration
33,114.0,25,F,down,0.6414345998782665,1.9855210994233043,,psi_staircase_training,emotion,,97.12131177218676,97.12131177218676,25.805267019113053,350.7386690001004,525,26,male,True,3506,3512,False,False,inspiration,inspiration
34,126.0,25,F,down,0.7981709998566657,0.40191873659380895,,psi_staircase_training,emotion,,103.7678694544779,103.7678694544779,31.01857602728765,352.15507990005426,525,26,male,True,3521,3529,False,False,expiration,expiration
35,134.0,25,M,up,0.6772915998008102,1.4072097103919494,,psi_staircase_training,emotion,,110.88541985212879,110.88541985212879,35.42714261836444,354.721875899937,525,26,male,True,3546,3553,False,False,inspiration,expiration
36,133.0,25,M,up,0.7539905000012368,0.3584045099443622,,psi_staircase_training,emotion,,108.41279349600248,108.41279349600248,34.38000052536924,356.1051523000933,525,26,male,True,3560,3568,False,False,expiration,expiration
37,132.0,25,F,up,0.8103338000364602,0.5124466381606689,,psi_staircase_training,emotion,,106.39510687545099,106.39510687545099,33.391600981378744,357.72176660015253,525,26,male,True,3576,3584,False,False,inspiration,peak
38,80.0,25,F,down,0.7227660000789909,1.482102210026848,,psi_staircase_training,emotion,,104.71667230228711,104.71667230228711,32.45811949098211,360.3883577999659,525,26,male,True,3603,3610,False,False,expiration,inspiration
39,132.0,25,M,down,1.443215100094676,1.2005602877837105,,psi_staircase_training,emotion,,106.28431082542488,106.28431082542488,31.499410771195148,362.6549076000229,525,26,male,True,3625,3639,False,False,expiration,expiration
40,139.0,25,M,up,1.586286700097844,0.4610184726763094,,psi_staircase_training,emotion,,111.37909599760113,111.37909599760113,35.134140560875714,364.9048353999388,525,26,male,True,3648,3664,False,False,inspiration,expiration
41,138.0,25,M,up,0.864379599923268,0.30122206980561617,,psi_staircase_training,emotion,,109.90974709042408,109.90974709042408,34.33060564181417,367.1547352999914,525,26,male,True,3670,3679,False,False,expiration,expiration
42,82.0,25,M,down,0.7571211000904441,1.867439007465605,,psi_staircase_training,emotion,,108.6298275314316,108.6298275314316,33.559160060716465,370.23799990001135,525,26,male,True,3701,3709,False,False,expiration,inspiration
43,138.0,25,F,up,0.8998683001846075,0.3786473101186976,,psi_staircase_training,emotion,,109.90371269995724,109.90371269995724,32.736127561484714,371.72123660007486,525,26,male,True,3716,3725,False,False,inspiration,expiration
44,82.0,25,F,down,0.7932849999051541,0.8830464206729451,,psi_staircase_training,emotion,,108.821301103301,108.821301103301,31.933249218448005,373.8378413999453,525,26,male,True,3737,3745,False,False,expiration,inspiration
45,83.0,25,F,down,0.6714278999716043,1.3418569834968157,,psi_staircase_training,emotion,,109.9058783286387,109.9058783286387,31.085463614490656,376.3377193000633,525,26,male,True,3762,3769,False,False,expiration,expiration
46,139.0,25,M,up,1.1153154000639915,1.7294011280738024,,psi_staircase_training,emotion,,110.86298272259044,110.86298272259044,30.274277542984162,379.0708469001112,525,26,male,True,3790,3801,False,False,peak,expiration
47,83.0,25,M,down,0.7936067001428455,1.7644945259931548,,psi_staircase_training,emotion,,109.98053996833102,109.98053996833102,29.426879985838852,382.28753320011316,525,26,male,True,3822,3830,False,False,inspiration,expiration
48,138.0,25,F,up,0.924477299908176,1.945075730046249,,psi_staircase_training,emotion,,110.7966893552846,110.7966893552846,28.623158342245517,385.370639000088,525,26,male,True,3853,3862,False,False,inspiration,inspiration
49,84.0,25,F,down,0.742554800119251,0.9267439879452968,,psi_staircase_training,emotion,,110.02206209406653,110.02206209406653,27.79779988153749,387.57056130003184,525,26,male,True,3875,3882,False,False,expiration,expiration
50,137.0,25,M,up,1.0138874999247491,1.7578614277915587,,psi_staircase_training,emotion,,110.74982621874395,110.74982621874395,27.015804306118017,390.43725690012803,525,26,male,True,3903,3913,False,False,expiration,expiration
51,85.0,25,M,down,0.8483203998766841,0.6119388193706227,,psi_staircase_training,emotion,,110.06667994692378,110.06667994692378,26.231153880721717,392.4538275001105,525,26,male,True,3923,3931,False,False,inspiration,expiration
52,0.29,25,up,up,1.0985692997928709,0.8427878487886777,,psi_staircase_training,cRDM,,0.25,0.25693124029946324,0.10500000000000002,400.5035403000657,525,26,male,True,4004,4015,False,False,expiration,expiration
53,0.25,25,up,up,0.8083924001548439,1.813971291423768,,psi_staircase_training,cRDM,,0.21910266653183127,0.2260132002683493,0.10468632033873933,403.6867607000749,525,26,male,True,4036,4044,False,False,inspiration,expiration
54,0.21,25,down,down,0.7437811000272632,0.6507214550331495,,psi_staircase_training,cRDM,,0.1900540959403307,0.19684979615540016,0.10294672984249993,405.4033644001465,525,26,male,True,4053,4060,False,False,expiration,expiration
55,0.18,25,down,down,1.0178779000416398,1.6423508299859657,,psi_staircase_training,cRDM,,0.1635257589279754,0.1701521334256793,0.100381647756865,408.0532303999644,525,26,male,True,4080,4090,False,False,inspiration,expiration
56,0.15,25,up,up,0.6236397000029683,1.978781807537152,,psi_staircase_training,cRDM,,0.14018955742449365,0.14660133511875031,0.0971307628663642,411.3364735001232,525,26,male,True,4112,4118,False,False,expiration,expiration
57,0.13,25,down,down,0.8541043000295758,1.9148780324601569,,psi_staircase_training,cRDM,,0.11987606021454796,0.12605547676183335,0.09361076941961036,414.15300539997406,525,26,male,True,4140,4149,False,False,peak,expiration
58,0.11,25,up,up,0.9078367999754846,0.4162772274085744,,psi_staircase_training,cRDM,,0.10257735236965487,0.10849103445698656,0.08958521019937955,415.686297000153,525,26,male,True,4156,4165,False,False,expiration,trough
59,0.09,25,down,up,1.2308746001217514,0.6610988689216234,,psi_staircase_training,cRDM,,0.08784432595859408,0.09348182153209693,0.08540131486476357,417.5362339999992,525,26,male,True,4174,4186,False,False,inspiration,expiration
60,0.15,25,down,down,0.7273371999617666,1.0900326233012965,,psi_staircase_training,cRDM,,0.13155912473180306,0.1381188895520143,0.0993725908154588,420.1527754999697,525,26,male,True,4200,4207,False,False,expiration,inspiration
61,0.14,25,up,up,1.3633471000939608,0.8576449268533657,,psi_staircase_training,cRDM,,0.11766356181723595,0.12390200059915553,0.09450488567713924,422.0027693000157,525,26,male,True,4219,4233,False,False,expiration,expiration
62,0.13,25,down,down,0.7830765000544488,0.4718406647617531,,psi_staircase_training,cRDM,,0.10674922597039307,0.1126411889911647,0.08925619231942186,424.13599000009714,525,26,male,True,4240,4248,False,False,inspiration,expiration
63,0.12,25,down,down,0.9962367999833076,1.4300430854865993,,psi_staircase_training,cRDM,,0.09811428985799032,0.10367787741672026,0.08428169684318693,426.63587340014055,525,26,male,True,4265,4275,False,False,expiration,inspiration
64,0.12,25,down,down,1.1579183000139892,1.0039625231147469,,psi_staircase_training,cRDM,,0.09096221507811762,0.0962626731048912,0.08029559916633151,428.91916449996637,525,26,male,True,4288,4300,False,False,expiration,expiration
65,0.09,25,up,up,0.6973534999415278,1.1237497765388755,,psi_staircase_training,cRDM,,0.08555328036869046,0.09055096870482823,0.07570900049953558,431.4857258999255,525,26,male,True,4314,4321,False,False,inspiration,peak
66,0.08,25,up,up,0.7198528000153601,1.177878217400078,,psi_staircase_training,cRDM,,0.077957509340601,0.08324464736285506,0.08009381703007258,433.6522773001343,525,26,male,True,4336,4343,False,False,expiration,inspiration
67,0.07,25,down,up,0.7839302001520991,1.1602971489740783,,psi_staircase_training,cRDM,,0.07010551822608077,0.07573373668134199,0.08526077761987136,435.80221190000884,525,26,male,True,4357,4365,False,False,expiration,expiration
68,0.11,25,down,down,0.4879237001296133,0.4910577749234278,,psi_staircase_training,cRDM,,0.08890111652699227,0.09383843793250464,0.0747945137061462,437.35214240010833,525,26,male,True,4372,4377,False,False,expiration,expiration
69,0.11,25,up,up,0.690366999944672,1.500853984906032,,psi_staircase_training,cRDM,,0.08463163102614353,0.08933967626387118,0.07132125400408998,439.61874320008786,525,26,male,True,4395,4402,False,False,inspiration,expiration
70,0.1,25,up,up,1.1277768998406827,0.7426380520974678,,psi_staircase_training,cRDM,,0.08142656123739021,0.08587177004202094,0.06733959642437598,441.33534760004835,525,26,male,True,4412,4423,False,False,expiration,expiration
71,0.1,25,up,up,0.6368890001904219,0.4910877637305586,,psi_staircase_training,cRDM,,0.07787511751690711,0.0822272255276979,0.06592923075663965,443.2352758001071,525,26,male,True,4431,4437,False,False,inspiration,inspiration
72,0.08,25,up,up,0.7691966001875699,0.4581659843461786,,psi_staircase_training,cRDM,,0.07504822049770928,0.07925823240254437,0.06377664471421035,444.6019079000689,525,26,male,True,4445,4453,False,False,expiration,expiration
73,0.07,25,down,down,0.7256006000097841,1.3723599476034447,,psi_staircase_training,cRDM,,0.06988694836306426,0.07448856754952195,0.06970902662478341,447.0185180001426,525,26,male,True,4469,4476,False,False,inspiration,expiration
74,0.07,25,down,down,0.7397133000195026,1.5037798565661251,,psi_staircase_training,cRDM,,0.06403412305340668,0.06918792436922623,0.07807392541316999,449.5184017999563,525,26,male,True,4494,4501,False,False,inspiration,inspiration
75,0.07,25,down,down,0.4788418000098318,1.7403880245243404,,psi_staircase_training,cRDM,,0.05827917483101978,0.06388634180226611,0.08494187281696987,452.26823780010454,525,26,male,True,4522,4527,False,False,expiration,expiration
76,0.06,25,up,up,0.7734817999880761,0.4825911726431856,,psi_staircase_training,cRDM,,0.05293195358295808,0.05886610905653945,0.08989535751260769,453.5015744001139,525,26,male,True,4534,4542,False,False,inspiration,expiration
77,0.06,25,up,up,1.6789818999823185,1.4708302912742588,,psi_staircase_training,cRDM,,0.04762032833692822,0.05388892800413349,0.09496178701343286,456.0181366000325,525,26,male,True,4559,4576,False,False,trough,expiration
78,0.06,25,down,down,0.9887531998101622,0.8766336933015122,,psi_staircase_training,cRDM,,0.04291150213234824,0.0493673746609314,0.09779874686406753,458.85135539993655,525,26,male,True,4588,4598,False,False,expiration,expiration
79,0.05,25,down,down,0.7464694001246244,1.4809984447402094,,psi_staircase_training,cRDM,,0.03886588134521725,0.04537304133159503,0.09857569050413324,461.58463570009917,525,26,male,True,4615,4622,False,False,expiration,expiration
80,0.05,25,up,down,0.4505883001256734,1.259874730345907,,psi_staircase_training,cRDM,,0.03510603923062508,0.041630868728170234,0.0988433624636118,463.8845476999413,525,26,male,True,4638,4643,False,False,expiration,inspiration
81,0.07,25,up,up,0.6366739999502897,1.5790920147130705,,psi_staircase_training,cRDM,,0.04613410812655337,0.05299370060370336,0.10391462119074472,466.184459600132,525,26,male,True,4661,4667,False,False,expiration,expiration
82,100.0,25,M,down,0.6152898999862373,1.3625020057760475,,psi_staircase,emotion,,100.0,100.0,25.00050000000001,481.55083800014114,525,26,male,True,4815,4821,False,False,inspiration,inspiration
83,145.0,25,M,up,0.6236709998920561,0.8909152342129372,,psi_staircase,emotion,,145.25719053245996,145.25719053245996,25.000500000000283,483.4004538001027,525,26,male,True,4833,4839,False,False,expiration,expiration
84,121.0,25,F,up,0.5863646999932826,1.2155981506187772,,psi_staircase,emotion,,120.36392901436103,120.36392901436103,25.71326925488699,485.583732600091,525,26,male,True,4855,4861,False,False,inspiration,inspiration
85,97.0,25,F,up,0.6618530999403447,1.9288763122215968,,psi_staircase,emotion,,102.38876106084959,102.38876106084959,26.14633372628729,488.45025320001884,525,26,male,True,4883,4890,False,False,inspiration,peak
86,73.0,25,M,down,0.6229115000460297,1.9198838649741912,,psi_staircase,emotion,,82.84358992132628,82.84358992132628,31.43229144782805,491.40019059996115,525,26,male,True,4913,4919,False,False,inspiration,inspiration
87,84.0,25,F,down,0.5606576001737267,1.6163661295085847,,psi_staircase,emotion,,94.9613577591715,94.9613577591715,29.694064005486627,493.9833921000827,525,26,male,True,4939,4945,False,False,inspiration,inspiration
88,112.0,25,M,down,0.5752888000570238,1.1537034051704136,,psi_staircase,emotion,,101.83848744414509,101.83848744414509,27.875884705401482,496.04986499994993,525,26,male,True,4960,4966,False,False,expiration,expiration
89,126.0,25,F,up,0.9935242000501604,1.987869670013359,,psi_staircase,emotion,,111.81267858747788,111.81267858747788,31.08064639559283,498.96657490008516,525,26,male,True,4989,4999,False,False,peak,expiration
90,124.0,25,F,up,0.818961099954322,1.1632894854734852,,psi_staircase,emotion,,107.11747814864692,107.11747814864692,29.457244424775585,501.4831257001497,525,26,male,True,5014,5022,False,False,inspiration,inspiration
91,88.0,25,M,down,0.9727375998627394,1.1550664544173013,,psi_staircase,emotion,,103.82560427072252,103.82560427072252,28.023192182934288,503.8163722001482,525,26,male,True,5037,5047,False,False,expiration,inspiration
92,111.0,25,F,down,0.7078474999871105,1.9711490482182898,,psi_staircase,emotion,,106.966534762061,106.966534762061,26.24805361527061,507.1162517999765,525,26,male,True,5070,5077,False,False,expiration,expiration
93,129.0,25,F,up,0.6576357001904398,1.3070222256880493,,psi_staircase,emotion,,111.92443512098295,111.92443512098295,26.63837513339152,509.69950009998877,525,26,male,True,5096,5103,False,False,inspiration,expiration
94,110.0,25,F,up,1.0443835000041872,1.1147517947756385,,psi_staircase,emotion,,109.82595406083686,109.82595406083686,24.80289652000145,511.83274550014175,525,26,male,True,5117,5127,False,False,inspiration,inspiration
95,87.0,25,M,down,0.8258249999489635,0.9503860208809359,,psi_staircase,emotion,,106.01547657100954,106.01547657100954,26.029654042511297,514.1993257000577,525,26,male,True,5141,5149,False,False,expiration,expiration
96,88.0,25,M,down,1.2240096000023186,0.9039306256156392,,psi_staircase,emotion,,107.7226191856999,107.7226191856999,24.411146076570986,516.2490801999811,525,26,male,True,5162,5174,False,False,expiration,inspiration
97,128.0,25,F,up,0.6886404000688344,1.892588393894015,,psi_staircase,emotion,,109.01353853983237,109.01353853983237,22.960520823389768,519.7324369000272,525,26,male,True,5196,5203,False,False,expiration,expiration
98,90.0,25,F,down,0.5567217001225799,0.4513390558523563,,psi_staircase,emotion,,107.80431076358057,107.80431076358057,21.453977717316736,521.2323996999767,525,26,male,True,5211,5217,False,False,expiration,expiration
99,126.0,25,M,up,0.8978033000603318,1.0892853029007974,,psi_staircase,emotion,,108.84142763154823,108.84142763154823,20.094529080323962,523.2323022999335,525,26,male,True,5231,5240,False,False,inspiration,expiration
100,93.0,25,M,down,1.1985650998540225,0.8408847024770569,,psi_staircase,emotion,,107.88904043986989,107.88904043986989,18.73961281434737,525.3155759000219,525,26,male,True,5252,5264,False,False,expiration,expiration
101,124.0,25,M,down,0.13343519996851685,1.9636410687221173,,psi_staircase,emotion,,108.79969996951698,108.79969996951698,17.5222596383064,528.8154303999618,525,26,male,True,5287,5288,False,False,inspiration,inspiration
102,133.0,25,M,up,0.7215130999684334,0.8793437008371168,,psi_staircase,emotion,,112.23709646840038,112.23709646840038,22.720310867836584,530.4486182001419,525,26,male,True,5304,5311,False,False,expiration,expiration
103,132.0,25,F,up,0.733485700096935,1.3671953281213618,,psi_staircase,emotion,,111.37794135718916,111.37794135718916,21.472508894135927,532.898638300132,525,26,male,True,5328,5335,False,False,trough,inspiration
104,92.0,25,F,down,0.5625078000593929,0.8073399263879348,,psi_staircase,emotion,,110.6928748999757,110.6928748999757,20.372352319395528,534.798572300002,525,26,male,True,5347,5353,False,False,peak,expiration
105,131.0,25,F,up,0.7792668000329286,0.5564716010363047,,psi_staircase,emotion,,111.40271465487051,111.40271465487051,19.318095139603557,536.2818327001296,525,26,male,True,5362,5370,False,False,expiration,expiration
106,95.0,25,M,down,1.0563467000611126,1.1091257851368923,,psi_staircase,emotion,,110.84886601632799,110.84886601632799,18.371493045456887,538.5317375999875,525,26,male,True,5384,5395,False,False,inspiration,expiration
107,96.0,25,M,down,0.7854321000631899,0.3544771625295342,,psi_staircase,emotion,,111.52340620930737,111.52340620930737,17.44379906460429,540.2816870999524,525,26,male,True,5402,5410,False,False,expiration,trough
108,128.0,25,F,up,0.7359970000106841,1.9206468671651944,,psi_staircase,emotion,,112.10697652928962,112.10697652928962,16.623800262977053,543.3480901999865,525,26,male,True,5433,5440,False,False,expiration,expiration
109,99.0,25,F,down,0.6719496001023799,1.7527813586325849,,psi_staircase,emotion,,111.58738225299864,111.58738225299864,15.835251249055831,546.1981433001347,525,26,male,True,5461,5468,False,False,expiration,expiration
110,101.0,25,M,up,0.8853915000800043,1.6507956561154171,,psi_staircase,emotion,,112.19280435983609,112.19280435983609,15.126206193242442,548.8647121000104,525,26,male,True,5488,5497,False,False,inspiration,expiration
111,127.0,25,M,down,0.6379267999436706,1.6498519053996472,,psi_staircase,emotion,,110.13714879738022,110.13714879738022,17.304556626726452,551.7482036000583,525,26,male,True,5517,5523,False,False,inspiration,inspiration
112,135.0,25,F,up,0.7459054000210017,1.383187437970563,,psi_staircase,emotion,,112.47729286364776,112.47729286364776,20.96717956015115,554.131187299965,525,26,male,True,5540,5547,False,False,expiration,expiration
113,134.0,25,M,up,0.7669951000716537,1.9579120415454572,,psi_staircase,emotion,,112.03213493605772,112.03213493605772,20.14707072533617,557.1810604999773,525,26,male,True,5571,5579,False,False,expiration,expiration
114,91.0,25,F,down,0.7957337000407279,0.7935641603201482,,psi_staircase,emotion,,111.64765986971148,111.64765986971148,19.41551176698157,559.1143253000919,525,26,male,True,5590,5598,False,False,inspiration,expiration
115,132.0,25,M,down,1.027813300024718,1.193889454128255,,psi_staircase,emotion,,112.03532547991068,112.03532547991068,18.727877121325047,561.464245500043,525,26,male,True,5614,5624,False,False,expiration,expiration
116,139.0,25,F,up,0.8596324999816716,1.3859431005250635,,psi_staircase,emotion,,114.1363111963649,114.1363111963649,22.418351497492534,564.2474889999721,525,26,male,True,5642,5651,False,False,peak,expiration
117,90.0,25,M,down,0.6207726998254657,1.918127622982976,,psi_staircase,emotion,,113.7564320727833,113.7564320727833,21.680490428768,567.364304699935,525,26,male,True,5673,5679,False,False,inspiration,inspiration
118,137.0,25,F,down,1.3221529999282209,0.8661834547763798,,psi_staircase,emotion,,114.10664851229821,114.10664851229821,21.00664917964617,569.2139711999334,525,26,male,True,5691,5704,False,False,expiration,expiration
119,144.0,25,M,up,0.7286352999508381,1.8479458868102685,,psi_staircase,emotion,,116.24343044125328,116.24343044125328,24.967031471975915,572.7304877000861,525,26,male,True,5726,5733,False,False,inspiration,expiration
120,143.0,25,M,up,0.6966526000760496,0.9309119786869424,,psi_staircase,emotion,,115.850703067527,115.850703067527,24.229281956560012,574.7304203000385,525,26,male,True,5746,5753,False,False,inspiration,inspiration
121,90.0,25,F,down,0.843448500148952,1.906698097093584,,psi_staircase,emotion,,115.50089816051859,115.50089816051859,23.547316123075195,577.6636451999658,525,26,male,True,5776,5784,False,False,inspiration,inspiration
122,142.0,25,F,down,1.0108339001890272,0.8237321065193892,,psi_staircase,emotion,,115.84520945493381,115.84520945493381,22.90117720191649,579.6802644000853,525,26,male,True,5796,5806,False,False,trough,inspiration
123,148.0,25,F,up,1.17560279997997,0.5768429023235515,,psi_staircase,emotion,,117.89927432386078,117.89927432386078,26.885863302267648,581.6134933999274,525,26,male,True,5815,5827,False,False,inspiration,peak
124,147.0,25,M,up,0.9188616999890656,0.6536908280019614,,psi_staircase,emotion,,117.53334294932232,117.53334294932232,26.210331415287772,583.8134352001363,525,26,male,True,5837,5846,False,False,expiration,expiration
125,89.0,25,M,down,0.8041230000089854,1.005263395029627,,psi_staircase,emotion,,117.20112926057286,117.20112926057286,25.575292215811743,586.0800004999619,525,26,male,True,5860,5868,False,False,inspiration,expiration
126,146.0,25,F,down,0.9931280000600964,0.6436645498458142,,psi_staircase,emotion,,117.52811663340309,117.52811663340309,24.965490149143644,587.8799787000752,525,26,male,True,5878,5888,False,False,expiration,expiration
127,151.0,25,F,up,0.7405858000274748,0.9768223003284668,,psi_staircase,emotion,,119.49950803502877,119.49950803502877,28.745948931558317,590.1965229001363,525,26,male,True,5901,5908,False,False,inspiration,expiration
128,151.0,25,F,up,0.5053187999874353,1.3429245658779927,,psi_staircase,emotion,,119.14281078873256,119.14281078873256,28.120706790755005,592.6297577000223,525,26,male,True,5925,5930,False,False,expiration,inspiration
129,88.0,25,M,down,0.7374195999000221,0.7792928622021381,,psi_staircase,emotion,,118.82738168659135,118.82738168659135,27.53509781306541,594.2796935001388,525,26,male,True,5942,5949,False,False,expiration,expiration
130,150.0,25,M,down,0.90688639995642,1.4833768951655988,,psi_staircase,emotion,,119.13980535988114,119.13980535988114,26.965288384816,596.8461983001325,525,26,male,True,5968,5977,False,False,inspiration,expiration
131,155.0,25,M,down,0.8286480000242591,1.5465622533795595,,psi_staircase,emotion,,121.04409585958128,121.04409585958128,30.539083194652648,599.6464245000387,525,26,male,True,5996,6004,False,False,expiration,inspiration
132,0.29,25,up,up,0.8994829999282956,0.3094334055589627,,psi_staircase,cRDM,,0.25,0.25693124029946324,0.10500000000000002,606.1126018001232,525,26,male,True,6060,6069,False,False,expiration,expiration
133,0.25,25,up,up,0.7172747999429703,1.3205564037069155,,psi_staircase,cRDM,,0.21910266653183127,0.2260132002683493,0.10468632033873933,608.5958335001487,525,26,male,True,6085,6092,False,False,inspiration,expiration
134,0.21,25,down,down,0.5334972001146525,1.0712366925831658,,psi_staircase,cRDM,,0.1900540959403307,0.19684979615540016,0.10294672984249993,610.6456492000725,525,26,male,True,6106,6111,False,False,expiration,expiration
135,0.18,25,down,up,0.6901197000406682,1.9865204239844996,,psi_staircase,cRDM,,0.1635257589279754,0.1701521334256793,0.100381647756865,613.4289698000066,525,26,male,True,6133,6140,False,False,expiration,expiration
136,0.28,25,up,up,0.5912145001348108,0.4530795174600886,,psi_staircase,cRDM,,0.2462894156509761,0.25367687443104303,0.11191116429293203,614.8458802001551,525,26,male,True,6148,6154,False,False,inspiration,inspiration
137,0.26,25,down,down,0.432538699824363,1.7000559644751319,,psi_staircase,cRDM,,0.2240209245171441,0.23127202108978026,0.10984543995477343,617.3955073000398,525,26,male,True,6173,6177,False,False,expiration,expiration
138,0.23,25,up,up,0.8046349000651389,1.608629269951941,,psi_staircase,cRDM,,0.2047781477371872,0.21182460465655809,0.10674539397966608,619.6954374001361,525,26,male,True,6196,6204,False,False,inspiration,inspiration
139,0.23,25,down,down,1.0104177999310195,1.1077685138671354,,psi_staircase,cRDM,,0.1874201716315257,0.19431844658589745,0.10450061445209473,621.8786784000695,525,26,male,True,6218,6228,False,False,expiration,inspiration
140,0.21,25,down,down,1.9838709000032395,1.4451209224699009,,psi_staircase,cRDM,,0.17345971586379055,0.18012712878884973,0.10100333084475896,624.5952334001195,525,26,male,True,6245,6265,False,False,expiration,inspiration
141,0.17,25,up,up,0.5917072999291122,0.9875001409529508,,psi_staircase,cRDM,,0.16045966703622236,0.16702796679355406,0.09950188490409588,627.828462400008,525,26,male,True,6277,6283,False,False,expiration,expiration
142,0.17,25,down,down,0.8095291999634355,0.3673665681498664,,psi_staircase,cRDM,,0.14444951683624788,0.15146531287032866,0.10628091824136077,629.0615526000038,525,26,male,True,6290,6298,False,False,inspiration,inspiration
143,0.16,25,down,up,1.000194700201973,1.9131180067510372,,psi_staircase,cRDM,,0.129450188150751,0.13674374107005438,0.11048860282425356,632.0449584000744,525,26,male,True,6320,6330,False,False,expiration,inspiration
144,0.22,25,down,down,0.5962123000063002,0.4486504728759284,,psi_staircase,cRDM,,0.17396020279295998,0.1807572427427678,0.10296702522131353,633.7448911999818,525,26,male,True,6336,6342,False,False,peak,expiration
145,0.19,25,up,up,0.5862843000795692,0.5824132996082,,psi_staircase,cRDM,,0.16555630165178742,0.1720733007365464,0.09872474107594877,635.1948741001543,525,26,male,True,6351,6357,False,False,expiration,expiration
146,0.16,25,up,up,0.6653316000010818,1.4517400984204245,,psi_staircase,cRDM,,0.15513670656628065,0.1618351803618357,0.10147386588050387,637.4947927000468,525,26,male,True,6374,6381,False,False,expiration,expiration
147,0.16,25,down,down,0.7360503000672907,0.9167392786118552,,psi_staircase,cRDM,,0.1425517484317743,0.14989590773059094,0.11125522894300256,639.3280338000039,525,26,male,True,6392,6399,False,False,inspiration,expiration
148,0.16,25,down,down,0.7780987999867648,1.81196080335275,,psi_staircase,cRDM,,0.1303570331121087,0.1382026582542642,0.1188518366604777,642.1279635000974,525,26,male,True,6420,6428,False,False,inspiration,inspiration
149,0.15,25,up,up,0.4632186000235379,1.600904267908637,,psi_staircase,cRDM,,0.11917860313680605,0.1273700739589132,0.12409098504171825,644.7778442001437,525,26,male,True,6447,6452,False,False,expiration,expiration
150,0.15,25,up,up,0.663292600074783,0.3399159698241064,,psi_staircase,cRDM,,0.10884368961374256,0.11728965230320315,0.12794623243145026,645.8278030999936,525,26,male,True,6457,6464,False,False,trough,inspiration
151,0.14,25,up,up,0.5827500000596046,1.5020809634301528,,psi_staircase,cRDM,,0.09986048759003198,0.10842875073332653,0.12979893802204426,648.2443548999728,525,26,male,True,6481,6487,False,False,expiration,expiration
152,0.13,25,up,up,0.6374174999073148,0.7017593857535079,,psi_staircase,cRDM,,0.09182561569895502,0.10043740454979096,0.13045830042969309,649.7776506000664,525,26,male,True,6497,6503,False,False,inspiration,inspiration
153,0.13,25,down,down,0.7235274000559002,1.4528222839398899,,psi_staircase,cRDM,,0.08465345536935606,0.09323961519970826,0.13007005142453287,652.1275494999718,525,26,male,True,6520,6527,False,False,expiration,expiration
154,0.1,25,down,down,0.4902551001869142,1.6972626116858018,,psi_staircase,cRDM,,0.07849030339490717,0.08697619130246087,0.12855105173054487,654.8108012999874,525,26,male,True,6547,6552,False,False,expiration,expiration
155,0.1,25,down,down,0.6603210000321269,0.7007708754595083,,psi_staircase,cRDM,,0.07231788097873786,0.08072190516843697,0.12731091432318964,656.260782300029,525,26,male,True,6562,6569,False,False,expiration,inspiration
156,0.08,25,up,up,0.6174006001092494,1.0265820475377248,,psi_staircase,cRDM,,0.06685676508660478,0.07510811075137529,0.12499801729107482,658.2106801001355,525,26,male,True,6581,6587,False,False,expiration,expiration
157,0.08,25,up,up,0.5851640999317169,1.6160773489397091,,psi_staircase,cRDM,,0.06151452647209945,0.06962527681085094,0.12286816626958592,660.6939000999555,525,26,male,True,6606,6612,False,False,inspiration,expiration
158,0.08,25,down,up,0.7745805000886321,1.325714503815993,,psi_staircase,cRDM,,0.05670829902150454,0.06460529950226768,0.11963011158974535,662.8604969999287,525,26,male,True,6628,6636,False,False,expiration,inspiration
159,0.12,25,down,down,0.5936618999112397,1.67680310921122,,psi_staircase,cRDM,,0.07321510520529136,0.08218019430419145,0.13581037660134276,665.5604417999275,525,26,male,True,6655,6661,False,False,expiration,expiration
160,0.12,25,up,up,0.7571099000051618,0.8619113692445539,,psi_staircase,cRDM,,0.06911955525842456,0.07795427319844782,0.13383540948281333,667.2769995001145,525,26,male,True,6672,6680,False,False,inspiration,expiration
161,0.12,25,up,up,0.6641701001208276,1.0138636376673622,,psi_staircase,cRDM,,0.0655538240941799,0.0742269695022045,0.13138777888181205,669.3269307999873,525,26,male,True,6692,6699,False,False,expiration,expiration
162,0.12,25,down,down,0.4942256999202073,1.5239542479192232,,psi_staircase,cRDM,,0.06245856264830475,0.07094344518546188,0.12853582157157184,671.7768437000923,525,26,male,True,6717,6722,False,False,inspiration,inspiration
163,0.06,25,up,up,1.5670518998522311,1.08848226689353,,psi_staircase,cRDM,,0.059785818990990884,0.06805918637677387,0.12533162002397805,673.6100844000466,525,26,male,True,6735,6751,False,False,inspiration,expiration
164,0.06,25,down,down,0.7014136998914182,0.945543752155271,,psi_staircase,cRDM,,0.05550142044355614,0.06394146631037484,0.12785659964560586,676.3766807999928,525,26,male,True,6763,6770,False,False,expiration,trough
165,0.06,25,up,up,0.9521129999775441,0.6279883717230631,,psi_staircase,cRDM,,0.0515368453675003,0.06005302174057624,0.12900988575482195,677.959990600124,525,26,male,True,6779,6789,False,False,peak,expiration
166,0.06,25,down,up,1.6325451999437064,0.5527246498837837,,psi_staircase,cRDM,,0.04789585731303976,0.056408376248823125,0.12895447995454282,679.7265318999998,525,26,male,True,6796,6812,False,False,inspiration,expiration
167,0.12,25,up,up,0.9486291999928652,0.6954872872020055,,psi_staircase,cRDM,,0.05846150077145041,0.06720890304880425,0.1325126816326475,682.3264379000758,525,26,male,True,6822,6831,False,False,expiration,inspiration
168,0.12,25,down,up,0.8026916000526398,1.2260981120273364,,psi_staircase,cRDM,,0.05626944809380005,0.0648364421575534,0.12977971298495594,684.7763618000317,525,26,male,True,6847,6855,False,False,expiration,inspiration
169,0.15,25,up,up,0.8924785999115556,1.7078908443615348,,psi_staircase,cRDM,,0.06613755300356575,0.07572085581200548,0.14517557484828386,687.5596253001131,525,26,male,True,6875,6884,False,False,expiration,inspiration
170,0.15,25,up,up,0.8185159999411553,0.5506555807321047,,psi_staircase,cRDM,,0.06364208638843306,0.07312104576820808,0.14359489671039813,689.259557600133,525,26,male,True,6892,6900,False,False,expiration,expiration
171,0.14,25,down,down,0.8770165999885648,0.40272931283921815,,psi_staircase,cRDM,,0.06137397665465065,0.0707427416126364,0.14192558302511607,690.743092100136,525,26,male,True,6907,6916,False,False,expiration,inspiration
172,0.14,25,down,down,0.705959300044924,0.3940569461394762,,psi_staircase,cRDM,,0.05917313659734901,0.0684316461191562,0.14025534504481607,692.2760928999633,525,26,male,True,6922,6929,False,False,expiration,expiration
173,0.14,25,down,down,0.6094094000291079,0.6500058728969909,,psi_staircase,cRDM,,0.05716803969470065,0.06631017601261092,0.13849243020111615,693.8926868999843,525,26,male,True,6938,6944,False,False,inspiration,expiration
174,0.1,25,up,down,0.618105499772355,0.9726408734188092,,psi_staircase,cRDM,,0.055342889992422255,0.064362986896145,0.13664367904893307,695.725958999945,525,26,male,True,6956,6962,False,False,expiration,expiration
175,0.09,25,up,down,0.6948090000078082,1.728560177612798,,psi_staircase,cRDM,,0.06519471275985958,0.07442199609297212,0.13978230563609872,698.3423697000835,525,26,male,True,6983,6990,False,False,peak,expiration
176,0.09,25,down,down,0.9253092999570072,1.5823066849522138,,psi_staircase,cRDM,,0.0759200335562464,0.08490656664297863,0.1361352273675973,700.8757954000031,525,26,male,True,7008,7017,False,False,inspiration,inspiration
177,0.09,25,down,down,0.9483626999426632,0.3108265108126892,,psi_staircase,cRDM,,0.0720625058995829,0.08122769197574296,0.1388416064685174,702.3756905000191,525,26,male,True,7023,7032,False,False,expiration,expiration
178,0.15,25,down,up,0.7358434000052512,0.6457374760094212,,psi_staircase,cRDM,,0.06851120739038029,0.0778014209897197,0.14073562389781485,704.2422110999469,525,26,male,True,7042,7049,False,False,expiration,inspiration
179,0.2,25,up,up,0.6895117999520153,1.0194870108816347,,psi_staircase,cRDM,,0.07863012862535515,0.08855218143707026,0.15030723221510034,706.2755669001489,525,26,male,True,7062,7069,False,False,expiration,expiration
180,0.2,25,up,up,0.5645805997774005,1.7956256866916078,,psi_staircase,cRDM,,0.07683389115206228,0.08665880181377206,0.1488356448353712,709.025463799946,525,26,male,True,7089,7095,False,False,expiration,inspiration
181,0.19,25,up,down,0.8496914999559522,1.8108480319278848,,psi_staircase,cRDM,,0.07517656809057459,0.08490450423970594,0.14736659696214666,711.6585425001103,525,26,male,True,7116,7124,False,False,expiration,expiration
182,136.0,25,F,up,0.8707655000034721,0.9757760651875892,,experiment,emotion,0.0,,,,730.6913312999533,525,26,male,True,7306,7315,False,False,inspiration,expiration
183,109.0,25,M,up,0.5769192001316696,1.47898118846623,,experiment,emotion,0.0,,,,733.3411411000417,525,26,male,True,7333,7339,False,False,expiration,expiration
184,127.0,25,F,up,0.6546080999542028,1.5161522542704748,,experiment,emotion,0.0,,,,735.7244752999396,525,26,male,True,7356,7363,False,False,expiration,expiration
185,136.0,25,M,up,0.4806902999989688,1.4276040480986818,,experiment,emotion,0.0,,,,738.074392199982,525,26,male,True,7380,7385,False,False,inspiration,inspiration
186,127.0,25,F,up,0.4167553000152111,0.7425000382020237,,experiment,emotion,0.0,,,,739.5743782001082,525,26,male,True,7395,7399,False,False,expiration,expiration
187,118.0,25,F,up,0.4258095000404865,0.452940756945781,,experiment,emotion,0.0,,,,740.724281599978,525,26,male,True,7406,7410,False,False,expiration,inspiration
188,109.0,25,M,down,0.7988598998636007,1.600985701186254,,experiment,emotion,0.0,,,,743.0242029000074,525,26,male,True,7429,7437,False,False,expiration,expiration
189,118.0,25,F,down,0.7702366998419166,0.3069033342867159,,experiment,emotion,0.0,,,,744.3908327999526,525,26,male,True,7443,7451,False,False,inspiration,inspiration
190,136.0,25,M,up,0.8552538000512868,0.8634957980716307,,experiment,emotion,0.0,,,,746.2907702999655,525,26,male,True,7462,7471,False,False,expiration,expiration
191,118.0,25,M,up,0.4574344002176076,1.5781246106538156,,experiment,emotion,0.0,,,,748.9906540999655,525,26,male,True,7489,7494,False,False,expiration,expiration
192,127.0,25,F,up,0.4471517999190837,0.4602867308235621,,experiment,emotion,0.0,,,,750.1739646000788,525,26,male,True,7501,7505,False,False,expiration,expiration
193,136.0,25,M,down,0.7262728998903185,1.9136415249633425,,experiment,emotion,0.0,,,,752.8238240000792,525,26,male,True,7527,7534,False,False,expiration,expiration
194,127.0,25,M,up,0.7879319000057876,0.5332191360631591,,experiment,emotion,0.0,,,,754.3571530999617,525,26,male,True,7543,7551,False,False,inspiration,inspiration
195,109.0,25,M,down,0.7090156001504511,0.6367810380288427,,experiment,emotion,0.0,,,,756.057068400085,525,26,male,True,7560,7567,False,False,expiration,expiration
196,118.0,25,F,up,0.8552995999343693,0.3070167854230611,,experiment,emotion,0.0,,,,757.3407256000211,525,26,male,True,7573,7582,False,False,inspiration,expiration
197,109.0,25,F,up,0.8468121001496911,1.226515145850142,,experiment,emotion,0.0,,,,759.6902515001129,525,26,male,True,7596,7604,False,False,expiration,expiration
198,136.0,25,M,up,0.8152433999348432,0.4004458340849507,,experiment,emotion,0.0,,,,761.2068795999513,525,26,male,True,7611,7619,False,False,inspiration,expiration
199,109.0,25,M,down,0.6316702999174595,0.8819038131736163,,experiment,emotion,0.0,,,,763.1734515000135,525,26,male,True,7631,7637,False,False,expiration,trough
200,127.0,25,F,up,0.9013356999494136,1.9174985966448632,,experiment,emotion,0.0,,,,766.0067287001292,525,26,male,True,7659,7668,False,False,expiration,expiration
201,127.0,25,F,up,1.431206899927929,1.4539801753898034,,experiment,emotion,0.0,,,,768.6398134001065,525,26,male,True,7686,7700,False,False,inspiration,expiration
202,118.0,25,M,down,0.6755770000163466,1.891391255745124,,experiment,emotion,0.0,,,,772.2564835001248,525,26,male,True,7722,7729,False,False,inspiration,expiration
203,118.0,25,F,up,0.863991100108251,0.5289465430500782,,experiment,emotion,0.0,,,,773.7230561000762,525,26,male,True,7736,7745,False,False,inspiration,expiration
204,109.0,25,M,up,0.8096902999095619,0.8835770813183703,,experiment,emotion,0.0,,,,775.7563464001288,525,26,male,True,7757,7765,False,False,inspiration,expiration
205,136.0,25,F,up,0.7241633001249284,0.9035860234046872,,experiment,emotion,0.0,,,,777.7729194001296,525,26,male,True,7777,7784,False,False,expiration,expiration
206,127.0,25,F,down,0.8300151999574155,0.4479523321009629,,experiment,emotion,0.0,,,,779.2560467000584,525,26,male,True,7792,7800,False,False,inspiration,inspiration
207,109.0,25,M,up,0.6522688001859933,1.3264315708317989,,experiment,emotion,0.0,,,,781.6727901000995,525,26,male,True,7816,7823,False,False,expiration,expiration
208,136.0,25,M,up,0.9170078998431564,1.0610930965901602,,experiment,emotion,0.0,,,,783.6560519000051,525,26,male,True,7836,7845,False,False,inspiration,expiration
209,136.0,25,F,up,0.8677493999712169,0.9865292156022664,,experiment,emotion,0.0,,,,785.8393105999568,525,26,male,True,7858,7867,False,False,expiration,inspiration
210,118.0,25,M,up,1.5391647999640554,0.6432448186038723,,experiment,emotion,0.0,,,,787.6559194999281,525,26,male,True,7876,7891,False,False,inspiration,expiration
211,109.0,25,F,down,0.8109919000416994,1.717450460875939,,experiment,emotion,0.0,,,,791.1891022999771,525,26,male,True,7911,7919,False,False,inspiration,expiration
212,118.0,25,M,up,0.6770363999530673,0.7669348315158067,,experiment,emotion,0.0,,,,793.0390546000563,525,26,male,True,7930,7937,False,False,expiration,inspiration
213,127.0,25,F,up,0.8654973998200148,1.1171030652743852,,experiment,emotion,0.0,,,,795.1056073000655,525,26,male,True,7950,7959,False,False,expiration,expiration
214,109.0,25,M,up,1.1788035000208763,1.4273919253134404,,experiment,emotion,0.0,,,,797.672202500049,525,26,male,True,7976,7988,False,False,inspiration,expiration
215,136.0,25,F,up,1.2145805999170989,1.0426459913238473,,experiment,emotion,0.0,,,,800.1554799999576,525,26,male,True,8001,8013,False,False,inspiration,expiration
216,127.0,25,M,up,0.7590260999277234,0.6389287013213805,,experiment,emotion,0.0,,,,802.2720572999679,525,26,male,True,8022,8030,False,False,expiration,inspiration
217,136.0,25,F,up,0.7830421000253409,0.4203993946279975,,experiment,emotion,0.0,,,,803.7219787000212,525,26,male,True,8037,8045,False,False,inspiration,expiration
218,109.0,25,M,up,2.331097400048748,1.2395394327500122,,experiment,emotion,0.0,,,,806.0219405000098,525,26,male,True,8060,8083,False,False,expiration,expiration
219,127.0,25,F,down,0.7013203999958932,1.2588884620357788,,experiment,emotion,0.0,,,,809.871734000044,525,26,male,True,8098,8105,False,False,inspiration,inspiration
220,118.0,25,M,down,0.6933754000347108,1.4944578171029523,,experiment,emotion,0.0,,,,812.3716818999965,525,26,male,True,8123,8130,False,False,expiration,inspiration
221,118.0,25,F,down,0.8169300998561084,1.3083138967568722,,experiment,emotion,0.0,,,,814.6381087999325,525,26,male,True,8146,8154,False,False,expiration,expiration
222,127.0,25,F,down,1.03420599992387,0.9227689627255328,,experiment,emotion,0.0,,,,816.654848900158,525,26,male,True,8166,8176,False,False,expiration,inspiration
223,136.0,25,M,down,0.9760402999818324,1.7040105113550117,,experiment,emotion,0.0,,,,819.6880393000321,525,26,male,True,8196,8206,False,False,expiration,expiration
224,118.0,25,F,up,0.6102291999850422,1.7095782455638835,,experiment,emotion,0.0,,,,822.6377980001271,525,26,male,True,8226,8232,False,False,inspiration,expiration
225,109.0,25,M,up,0.6244942001067102,1.131825997805128,,experiment,emotion,0.0,,,,824.6545327000786,525,26,male,True,8246,8252,False,False,expiration,expiration
226,109.0,25,M,down,0.6835977998562157,1.6118106726248431,,experiment,emotion,0.0,,,,827.1544518000445,525,26,male,True,8271,8278,False,False,expiration,expiration
227,118.0,25,F,down,0.920781600056216,1.7962311361634749,,experiment,emotion,0.0,,,,829.9043638999574,525,26,male,True,8298,8307,False,False,inspiration,expiration
228,136.0,25,F,up,0.6894598000217229,1.0949255527292374,,experiment,emotion,0.0,,,,832.1875897999852,525,26,male,True,8321,8328,False,False,expiration,expiration
229,127.0,25,M,up,0.9588983999565244,1.5439261522692633,,experiment,emotion,0.0,,,,834.7041573999451,525,26,male,True,8346,8356,False,False,expiration,expiration
230,109.0,25,F,up,0.7892844001762569,0.8350852563451037,,experiment,emotion,0.0,,,,836.770760799991,525,26,male,True,8367,8375,False,False,inspiration,inspiration
231,136.0,25,M,up,1.1133747999556365,0.4003484643368683,,experiment,emotion,0.0,,,,838.2206803001462,525,26,male,True,8381,8392,False,False,inspiration,trough
232,127.0,25,M,up,0.6873550999443978,0.7686932906143216,,experiment,emotion,0.0,,,,840.3706396000924,525,26,male,True,8403,8410,False,False,inspiration,expiration
233,127.0,25,M,up,0.6629778998903929,1.9062500099504889,,experiment,emotion,0.0,,,,843.2370658,525,26,male,True,8432,8439,False,False,inspiration,expiration
234,109.0,25,M,up,0.9403007999062538,1.7432420597411535,,experiment,emotion,0.0,,,,845.9037459001412,525,26,male,True,8458,8467,False,False,expiration,inspiration
235,118.0,25,M,up,0.6427489998750389,1.5668683007951665,,experiment,emotion,0.0,,,,848.6703065000473,525,26,male,True,8486,8492,False,False,expiration,expiration
236,136.0,25,F,up,0.9744603999424726,0.8431641145789164,,experiment,emotion,0.0,,,,850.4535863001365,525,26,male,True,8504,8514,False,False,inspiration,expiration
237,118.0,25,F,down,0.8192704000975937,0.993270279569488,,experiment,emotion,0.0,,,,852.6868215999567,525,26,male,True,8526,8534,False,False,expiration,inspiration
238,118.0,25,F,up,0.9086108000483364,0.9208991200125244,,experiment,emotion,0.0,,,,854.7034368000459,525,26,male,True,8546,8555,False,False,expiration,expiration
239,118.0,25,M,up,0.7684299999382347,1.3236252464632243,,experiment,emotion,0.0,,,,857.1866574999876,525,26,male,True,8571,8579,False,False,inspiration,expiration
240,136.0,25,F,down,1.0026493000332266,0.9200449835079494,,experiment,emotion,0.0,,,,859.1364013000857,525,26,male,True,8591,8601,False,False,expiration,expiration
241,127.0,25,F,down,0.6856279999483377,0.8216985580705859,,experiment,emotion,0.0,,,,861.2364018999506,525,26,male,True,8612,8619,False,False,inspiration,expiration
242,109.0,25,F,up,0.8642323999665678,0.5265231579829464,,experiment,emotion,0.0,,,,862.7197909001262,525,26,male,True,8626,8635,False,False,expiration,expiration
243,109.0,25,M,down,1.0083331000059843,1.2636631597536885,,experiment,emotion,0.0,,,,865.1196956001222,525,26,male,True,8650,8660,False,False,inspiration,expiration
244,127.0,25,F,down,1.0928256998304278,0.7442489179211257,,experiment,emotion,0.0,,,,867.1361803000328,525,26,male,True,8671,8682,False,False,expiration,inspiration
245,136.0,25,M,up,0.6381987000349909,1.6744959971095137,,experiment,emotion,0.0,,,,870.2028449000792,525,26,male,True,8701,8707,False,False,expiration,expiration
246,136.0,25,M,up,0.7386064999736845,1.651966692465623,,experiment,emotion,0.0,,,,872.7694441999774,525,26,male,True,8727,8734,True,True,peak,expiration
247,109.0,25,F,up,0.881392499897629,1.4435385061265862,,experiment,emotion,0.0,,,,875.202646800084,525,26,male,True,8751,8760,True,True,expiration,inspiration
248,136.0,25,M,up,0.6869294000789523,0.6669878649670093,,experiment,emotion,0.0,,,,877.0191186999436,525,26,male,True,8770,8777,True,True,expiration,expiration
249,118.0,25,F,up,0.8842017001006752,1.179173558187983,,experiment,emotion,0.0,,,,879.1858391999267,525,26,male,True,8791,8800,False,False,inspiration,expiration
250,127.0,25,M,up,0.7279416001401842,0.6141863883458539,,experiment,emotion,0.0,,,,880.9690835999791,525,26,male,True,8809,8816,False,False,expiration,expiration
251,118.0,25,F,down,0.770055599976331,1.8045964616036103,,experiment,emotion,0.0,,,,883.769004400121,525,26,male,True,8837,8845,False,False,expiration,expiration
252,109.0,25,M,down,0.6099389998707919,1.6891014679651668,,experiment,emotion,0.0,,,,886.5191025000531,525,26,male,True,8865,8871,False,False,inspiration,inspiration
253,127.0,25,F,up,0.6604118999093771,1.1215620936151034,,experiment,emotion,0.0,,,,888.5186280000488,525,26,male,True,8885,8892,False,False,expiration,inspiration
254,118.0,25,F,down,0.793898900039494,0.5020346840504167,,experiment,emotion,0.0,,,,889.9521484000142,525,26,male,True,8899,8907,False,False,inspiration,expiration
255,127.0,25,F,up,0.8763681000564247,1.7568920750025805,,experiment,emotion,0.0,,,,892.7686719000341,525,26,male,True,8927,8936,False,False,inspiration,inspiration
256,109.0,25,F,up,1.1110337001737207,0.4434542275984473,,experiment,emotion,0.0,,,,894.3520011999644,525,26,male,True,8943,8954,False,False,expiration,expiration
257,136.0,25,F,up,0.6430711001157761,0.7993904366617097,,experiment,emotion,0.0,,,,896.5349989000242,525,26,male,True,8965,8971,False,False,expiration,inspiration
258,127.0,25,M,up,0.7342403000220656,0.615585720983856,,experiment,emotion,0.0,,,,898.0518251999748,525,26,male,True,8980,8987,False,False,peak,expiration
259,136.0,25,M,down,0.9061133000068368,1.679505535095882,,experiment,emotion,0.0,,,,900.7349289001432,525,26,male,True,9007,9016,False,False,inspiration,expiration
260,109.0,25,M,down,0.9622235000133514,0.8349051695709584,,experiment,emotion,0.0,,,,902.7348192001227,525,26,male,True,9027,9037,False,False,expiration,trough
261,118.0,25,M,down,0.993466799845919,1.2117760401823994,,experiment,emotion,0.0,,,,905.2015549000353,525,26,male,True,9051,9061,False,False,expiration,expiration
262,0.08667327728818197,25,up,up,1.0181615999899805,0.36041621094437704,,experiment,cRDM,0.0,,,,914.1679001001177,525,26,male,True,9141,9151,False,False,inspiration,expiration
263,0.08667327728818197,25,up,up,0.7432476999238133,1.6658006414610973,,experiment,cRDM,0.0,,,,917.1177910999396,525,26,male,True,9170,9177,False,False,expiration,inspiration
264,0.08667327728818197,25,down,up,0.6093462998978794,1.7397149473398368,,experiment,cRDM,0.0,,,,919.8676937001293,525,26,male,True,9198,9204,False,False,expiration,expiration
265,0.08667327728818197,25,down,down,0.5455126999877393,0.8307917896564423,,experiment,cRDM,0.0,,,,921.5676059999968,525,26,male,True,9215,9220,False,False,inspiration,expiration
266,0.08667327728818197,25,up,up,0.7560904999263585,0.374561872466718,,experiment,cRDM,0.0,,,,922.75095230015,525,26,male,True,9227,9235,False,False,expiration,expiration
267,0.08667327728818197,25,down,down,0.7228965999092907,1.6187958744071902,,experiment,cRDM,0.0,,,,925.384142300114,525,26,male,True,9253,9260,False,False,expiration,expiration
268,0.08667327728818197,25,up,down,0.7712447999510914,0.678929976471423,,experiment,cRDM,0.0,,,,927.0507758001332,525,26,male,True,9270,9278,False,False,expiration,inspiration
269,0.08667327728818197,25,up,down,0.6804076998960227,1.2231869416855643,,experiment,cRDM,0.0,,,,929.3006581999363,525,26,male,True,9292,9299,False,False,expiration,expiration
270,0.08667327728818197,25,down,up,0.6629789001308382,0.3126522826468109,,experiment,cRDM,0.0,,,,930.5672959000805,525,26,male,True,9305,9312,False,False,expiration,inspiration
271,0.08667327728818197,25,down,up,0.7968691000714898,1.5691821869301197,,experiment,cRDM,0.0,,,,933.0671932001133,525,26,male,True,9330,9338,False,False,expiration,expiration
272,0.08667327728818197,25,down,up,0.6669477000832558,1.6459631948703608,,experiment,cRDM,0.0,,,,935.7670917999933,525,26,male,True,9357,9364,False,False,expiration,expiration
273,0.08667327728818197,25,down,up,0.9004504999611527,0.9357059532639648,,experiment,cRDM,0.0,,,,937.6335621001199,525,26,male,True,9376,9385,False,False,expiration,inspiration
274,0.08667327728818197,25,down,up,1.0377662999089807,1.24814274259928,,experiment,cRDM,0.0,,,,940.0502943000757,525,26,male,True,9400,9410,False,False,expiration,expiration
275,0.08667327728818197,25,down,down,0.6349402000196278,1.9936811533849723,,experiment,cRDM,0.0,,,,943.350100000156,525,26,male,True,9433,9439,False,False,inspiration,peak
276,0.08667327728818197,25,up,down,0.6879291001241654,0.4380883694344981,,experiment,cRDM,0.0,,,,944.7000941999722,525,26,male,True,9446,9453,False,False,expiration,expiration
277,0.08667327728818197,25,up,down,0.7903703998308629,0.4628159296374544,,experiment,cRDM,0.0,,,,946.1166871001477,525,26,male,True,9460,9468,False,False,expiration,trough
278,0.08667327728818197,25,up,up,1.1187337001319977,0.4165853858967965,,experiment,cRDM,0.0,,,,947.583332600072,525,26,male,True,9475,9486,False,False,inspiration,expiration
279,0.08667327728818197,25,up,up,0.5471461999695748,0.7930117429305994,,experiment,cRDM,0.0,,,,949.749916800065,525,26,male,True,9497,9502,False,False,expiration,expiration
280,0.08667327728818197,25,down,up,0.7418638002127409,0.9322559286965032,,experiment,cRDM,0.0,,,,951.4831916999536,525,26,male,True,9514,9521,False,False,inspiration,expiration
281,0.08667327728818197,25,up,up,0.476532300002873,0.7295196292921715,,experiment,cRDM,0.0,,,,953.2164328999353,525,26,male,True,9531,9536,False,False,expiration,expiration
282,0.08667327728818197,25,up,up,0.8766446998342872,0.7063838129208337,,experiment,cRDM,0.0,,,,954.6663923999297,525,26,male,True,9546,9555,False,False,inspiration,expiration
283,0.08667327728818197,25,down,up,0.6043990000616759,1.2853999397015456,,experiment,cRDM,0.0,,,,957.0996322999707,525,26,male,True,9570,9576,False,False,expiration,expiration
284,0.08667327728818197,25,up,up,0.549566000001505,0.7218199730962337,,experiment,cRDM,0.0,,,,958.6995671000333,525,26,male,True,9586,9591,False,False,inspiration,expiration
285,0.08667327728818197,25,down,up,0.7071641001384705,1.0221240253209416,,experiment,cRDM,0.0,,,,960.5328723001294,525,26,male,True,9605,9612,False,False,expiration,expiration
286,0.08667327728818197,25,down,up,0.5393019998446107,1.7279549230401632,,experiment,cRDM,0.0,,,,963.2327598999254,525,26,male,True,9632,9637,False,False,peak,expiration
287,0.08667327728818197,25,up,up,0.7186968000605702,0.7584499532976103,,experiment,cRDM,0.0,,,,964.7993393000216,525,26,male,True,9647,9654,False,False,expiration,inspiration
288,0.08667327728818197,25,up,down,0.540387500077486,0.3915273866027439,,experiment,cRDM,0.0,,,,966.1826431001537,525,26,male,True,9661,9666,False,False,inspiration,expiration
289,0.08667327728818197,25,down,down,0.7726592998951674,1.1371646113248597,,experiment,cRDM,0.0,,,,968.1323752000462,525,26,male,True,9681,9689,False,False,expiration,inspiration
290,0.08667327728818197,25,up,up,0.6185139999724925,0.9258903678320723,,experiment,cRDM,0.0,,,,970.0825145000126,525,26,male,True,9700,9706,False,False,expiration,expiration
291,0.08667327728818197,25,down,up,0.6539692000951618,0.9692599732581356,,experiment,cRDM,0.0,,,,971.949063200038,525,26,male,True,9719,9726,False,False,inspiration,inspiration
292,0.08667327728818197,25,down,down,0.9216634000185876,0.7298796935656644,,experiment,cRDM,0.0,,,,973.5823661999311,525,26,male,True,9735,9744,False,False,expiration,expiration
293,0.08667327728818197,25,down,down,0.7960502000059932,0.42953281526211184,,experiment,cRDM,0.0,,,,975.1989711001517,525,26,male,True,9751,9759,False,False,expiration,inspiration
294,0.08667327728818197,25,up,down,0.6616436999756843,0.9524974717535492,,experiment,cRDM,0.0,,,,977.2153948999477,525,26,male,True,9772,9779,False,False,expiration,expiration
295,0.08667327728818197,25,up,up,0.6228577001020312,1.7854581181730533,,experiment,cRDM,0.0,,,,979.9321584000717,525,26,male,True,9799,9805,False,False,inspiration,expiration
296,0.08667327728818197,25,up,up,0.6321851999964565,1.3324662366951605,,experiment,cRDM,0.0,,,,982.131931200158,525,26,male,True,9821,9827,False,False,trough,inspiration
297,0.08667327728818197,25,down,up,0.638087400002405,1.966853343030873,,experiment,cRDM,0.0,,,,984.9819392000792,525,26,male,True,9849,9855,False,False,expiration,expiration
298,0.08667327728818197,25,down,up,0.8354793998878449,0.8202155977752346,,experiment,cRDM,0.0,,,,986.6985484999603,525,26,male,True,9866,9874,False,False,inspiration,expiration
299,0.08667327728818197,25,up,up,1.1462437999434771,1.3755146969265173,,experiment,cRDM,0.0,,,,989.1817882000466,525,26,male,True,9891,9902,False,False,expiration,inspiration
300,0.08667327728818197,25,down,up,0.899330599932,0.6513325164955459,,experiment,cRDM,0.0,,,,991.2316938999576,525,26,male,True,9912,9921,False,False,expiration,expiration
301,0.08667327728818197,25,up,up,0.5825507000554353,0.6312465899088884,,experiment,cRDM,0.0,,,,993.031475600088,525,26,male,True,9930,9936,False,False,expiration,expiration
302,0.08667327728818197,25,up,down,0.6278038001619279,1.3261163163405774,,experiment,cRDM,0.0,,,,995.1982450000943,525,26,male,True,9951,9957,False,False,expiration,expiration
303,0.08667327728818197,25,up,up,0.6686487998813391,1.4391366765874898,,experiment,cRDM,0.0,,,,997.5313796999401,525,26,male,True,9975,9982,False,False,inspiration,inspiration
304,0.08667327728818197,25,down,down,0.6266864000353962,1.2118095216082592,,experiment,cRDM,0.0,,,,999.6814129000996,525,26,male,True,9996,10002,False,False,expiration,expiration
305,0.08667327728818197,25,down,up,0.6850429000332952,1.7149923111171734,,experiment,cRDM,0.0,,,,1002.2979640001432,525,26,male,True,10022,10029,False,False,expiration,expiration
306,0.08667327728818197,25,up,up,0.8668409001547843,0.6930964192020307,,experiment,cRDM,0.0,,,,1003.9312132999768,525,26,male,True,10039,10048,False,False,expiration,expiration
307,0.08667327728818197,25,down,down,0.4750910999719054,1.9744885963501841,,experiment,cRDM,0.0,,,,1007.0310061001221,525,26,male,True,10070,10075,False,False,expiration,expiration
308,0.08667327728818197,25,down,down,0.7696396000683308,1.245551405804524,,experiment,cRDM,0.0,,,,1009.0143770000432,525,26,male,True,10089,10097,False,False,inspiration,peak
309,0.08667327728818197,25,up,up,0.5206416000146419,1.7562609426494742,,experiment,cRDM,0.0,,,,1011.7976079999936,525,26,male,True,10117,10122,False,False,trough,inspiration
310,0.08667327728818197,25,up,up,0.5234360999893397,0.6651288410347316,,experiment,cRDM,0.0,,,,1013.2475803000852,525,26,male,True,10132,10137,False,False,expiration,expiration
311,0.08667327728818197,25,down,up,0.4167086000088602,1.0924337901941656,,experiment,cRDM,0.0,,,,1015.1141514999325,525,26,male,True,10150,10154,False,False,inspiration,inspiration
312,0.08667327728818197,25,up,up,0.6333681999240071,0.5245523672803956,,experiment,cRDM,0.0,,,,1016.3306792001241,525,26,male,True,10163,10169,False,False,inspiration,expiration
313,0.08667327728818197,25,down,up,0.4665997000411153,0.8102907339398451,,experiment,cRDM,0.0,,,,1018.0474275001325,525,26,male,True,10180,10185,False,False,expiration,inspiration
314,0.08667327728818197,25,down,up,0.4745028999168426,1.5580602805815067,,experiment,cRDM,0.0,,,,1020.3305216999723,525,26,male,True,10203,10208,False,False,expiration,inspiration
315,0.08667327728818197,25,down,down,0.4528163999784738,1.6317730509251418,,experiment,cRDM,0.0,,,,1022.6972116001416,525,26,male,True,10226,10231,False,False,expiration,expiration
316,0.08667327728818197,25,up,down,0.4968771000858396,1.3814339117387593,,experiment,cRDM,0.0,,,,1024.7971441999543,525,26,male,True,10247,10252,False,False,expiration,expiration
317,0.08667327728818197,25,up,up,0.8828676000703126,1.9763945998668544,,experiment,cRDM,0.0,,,,1027.530255000107,525,26,male,True,10275,10284,False,False,expiration,expiration
318,0.08667327728818197,25,down,down,0.7037251999136059,0.9515408411352552,,experiment,cRDM,0.0,,,,1029.6302573001012,525,26,male,True,10296,10303,False,False,inspiration,expiration
319,0.08667327728818197,25,down,up,0.7101153000257909,0.34790432257250936,,experiment,cRDM,0.0,,,,1030.9469409999438,525,26,male,True,10309,10316,False,False,expiration,expiration
320,0.08667327728818197,25,up,down,0.8719760000240058,1.019807009107487,,experiment,cRDM,0.0,,,,1032.9300488999581,525,26,male,True,10329,10338,False,False,inspiration,expiration
321,0.08667327728818197,25,up,down,0.941059100208804,1.4142980185981089,,experiment,cRDM,0.0,,,,1035.4800732000729,525,26,male,True,10354,10363,False,False,inspiration,inspiration
322,0.08667327728818197,25,up,up,0.7530676000751555,0.7968832028368622,,experiment,cRDM,0.0,,,,1037.4800084000453,525,26,male,True,10374,10382,False,False,expiration,expiration
323,0.08667327728818197,25,up,up,1.0822654999792576,1.028224529257936,,experiment,cRDM,0.0,,,,1039.529754600022,525,26,male,True,10395,10406,False,False,expiration,inspiration
324,0.08667327728818197,25,up,down,0.8428678000345826,1.1344156042333524,,experiment,cRDM,0.0,,,,1042.013152900152,525,26,male,True,10419,10427,False,False,expiration,inspiration
325,0.08667327728818197,25,down,down,2.330036300001666,1.9843513279312208,,experiment,cRDM,0.0,,,,1045.1130457001273,525,26,male,True,10450,10473,False,False,expiration,inspiration
326,0.08667327728818197,25,down,down,0.8898138999938965,1.3824449836929331,,experiment,cRDM,0.0,,,,1049.0962261001114,525,26,male,True,10490,10499,False,False,expiration,expiration
327,0.08667327728818197,25,up,up,0.6664881000760943,1.177919561634225,,experiment,cRDM,0.0,,,,1051.4295103000477,525,26,male,True,10514,10521,False,False,inspiration,peak
328,0.08667327728818197,25,down,up,0.5943130000960082,1.609194558227475,,experiment,cRDM,0.0,,,,1053.9627287001351,525,26,male,True,10539,10545,False,False,expiration,inspiration
329,0.08667327728818197,25,down,up,0.6870448000263423,1.0340418575809376,,experiment,cRDM,0.0,,,,1055.8459898999429,525,26,male,True,10558,10565,False,False,expiration,expiration
330,0.08667327728818197,25,down,up,0.8723959999624641,0.5667648071317092,,experiment,cRDM,0.0,,,,1057.3625986999832,525,26,male,True,10573,10582,False,False,expiration,trough
331,0.08667327728818197,25,up,down,0.9429574001114815,1.8252293527812615,,experiment,cRDM,0.0,,,,1060.3290675000753,525,26,male,True,10603,10612,False,False,expiration,expiration
332,0.08667327728818197,25,down,up,0.7383677999023348,1.8798708118299103,,experiment,cRDM,0.0,,,,1063.3957088000607,525,26,male,True,10633,10640,False,False,inspiration,peak
333,0.08667327728818197,25,down,down,0.7599067999981344,1.8163312217474408,,experiment,cRDM,0.0,,,,1066.2121063000523,525,26,male,True,10662,10670,False,False,expiration,expiration
334,0.08667327728818197,25,down,down,0.4169874000363052,0.8833880713831899,,experiment,cRDM,0.0,,,,1068.112112800125,525,26,male,True,10681,10685,False,False,inspiration,expiration
335,0.08667327728818197,25,up,up,0.8501693999860436,0.9267993150736628,,experiment,cRDM,0.0,,,,1069.7288450000342,525,26,male,True,10697,10706,False,False,expiration,expiration
336,0.08667327728818197,25,up,down,0.8390808999538422,1.886954345404776,,experiment,cRDM,0.0,,,,1072.7119428999722,525,26,male,True,10727,10735,False,False,expiration,expiration
337,0.08667327728818197,25,down,up,0.8767208000645041,0.8800916946279667,,experiment,cRDM,0.0,,,,1074.695281600114,525,26,male,True,10746,10755,False,False,inspiration,expiration
338,0.08667327728818197,25,up,down,0.6711436999030411,1.9328274611430816,,experiment,cRDM,0.0,,,,1077.7618515000213,525,26,male,True,10777,10784,False,False,inspiration,inspiration
339,0.08667327728818197,25,down,down,0.4876343000214547,1.643713672668097,,experiment,cRDM,0.0,,,,1080.3284001001157,525,26,male,True,10803,10808,False,False,expiration,inspiration
340,0.08667327728818197,25,up,up,0.7104005001019686,1.7376981427378402,,experiment,cRDM,0.0,,,,1082.8115670999978,525,26,male,True,10828,10835,False,False,expiration,expiration
341,0.08667327728818197,25,up,up,0.740389599930495,0.8373535724080443,,experiment,cRDM,0.0,,,,1084.6116253000218,525,26,male,True,10846,10853,False,False,inspiration,inspiration
342,136.0,25,M,up,0.8438989999704063,1.4591964885881006,,experiment,emotion,1.0,,,,1105.5941564000675,525,26,male,True,11055,11063,False,False,inspiration,expiration
343,109.0,25,M,up,0.7818843999411911,0.610363913241047,,experiment,emotion,1.0,,,,1107.3441226000432,525,26,male,True,11073,11081,False,False,expiration,expiration
344,127.0,25,F,down,1.0063400999642909,1.552935311743343,,experiment,emotion,1.0,,,,1109.9606568999588,525,26,male,True,11099,11109,False,False,inspiration,expiration
345,136.0,25,F,up,0.7350815001409501,0.4626046176688429,,experiment,emotion,1.0,,,,1111.6939312999602,525,26,male,True,11116,11123,False,False,expiration,expiration
346,127.0,25,M,up,0.845970599912107,1.0296778965181743,,experiment,emotion,1.0,,,,1113.7271096000914,525,26,male,True,11137,11145,False,False,inspiration,expiration
347,118.0,25,F,up,0.7750246000941843,0.5577846705977434,,experiment,emotion,1.0,,,,1115.4269829001278,525,26,male,True,11154,11162,False,False,expiration,expiration
348,109.0,25,M,down,0.5399511998984963,1.0057914790770641,,experiment,emotion,1.0,,,,1117.477052600123,525,26,male,True,11174,11179,False,False,inspiration,expiration
349,118.0,25,M,down,0.6014109998941422,1.1009805305139135,,experiment,emotion,1.0,,,,1119.3936640999746,525,26,male,True,11193,11199,False,False,inspiration,inspiration
350,136.0,25,F,down,0.8101050001569092,1.4999514193519958,,experiment,emotion,1.0,,,,1121.7769029000774,525,26,male,True,11217,11225,False,False,expiration,inspiration
351,118.0,25,F,down,0.7148754000663757,1.6997798420375794,,experiment,emotion,1.0,,,,1124.5601123999804,525,26,male,True,11245,11252,False,False,expiration,expiration
352,127.0,25,F,up,0.9207021999172866,1.4879152265629974,,experiment,emotion,1.0,,,,1127.043394899927,525,26,male,True,11270,11279,False,False,inspiration,expiration
353,136.0,25,F,up,0.6371603000443429,1.4731228701894123,,experiment,emotion,1.0,,,,1129.7099240999667,525,26,male,True,11296,11302,False,False,expiration,inspiration
354,127.0,25,F,up,0.8074922999367118,0.3553410971950561,,experiment,emotion,1.0,,,,1130.9765546000565,525,26,male,True,11309,11317,False,False,inspiration,expiration
355,109.0,25,F,down,0.799865199951455,1.1700975778408302,,experiment,emotion,1.0,,,,1133.2431386001406,525,26,male,True,11332,11340,False,False,inspiration,expiration
356,118.0,25,M,up,0.9907388000283391,0.3222576061331328,,experiment,emotion,1.0,,,,1134.6262835001107,525,26,male,True,11346,11356,False,False,inspiration,expiration
357,109.0,25,M,down,1.1546676999423653,1.2792560460409206,,experiment,emotion,1.0,,,,1137.1762995000465,525,26,male,True,11371,11383,False,False,inspiration,expiration
358,136.0,25,M,up,0.8497351000551134,0.6961978710032397,,experiment,emotion,1.0,,,,1139.2762679001316,525,26,male,True,11392,11400,False,False,expiration,inspiration
359,109.0,25,M,up,0.7961578001268208,0.8417122121892315,,experiment,emotion,1.0,,,,1141.2428483001422,525,26,male,True,11412,11420,False,False,expiration,expiration
360,127.0,25,F,up,0.7722381001804024,1.1734581165222993,,experiment,emotion,1.0,,,,1143.4927654000928,525,26,male,True,11434,11442,False,True,expiration,inspiration
361,127.0,25,M,down,0.5823164000175893,0.8052858162737411,,experiment,emotion,1.0,,,,1145.3426847001538,525,26,male,True,11453,11459,True,True,expiration,expiration
362,118.0,25,M,down,0.5463440997991711,1.4478311869930605,,experiment,emotion,1.0,,,,1147.642634100048,525,26,male,True,11476,11481,True,True,inspiration,expiration
363,118.0,25,F,down,0.7691347999498248,1.431043668124943,,experiment,emotion,1.0,,,,1149.8758618000431,525,26,male,True,11498,11506,True,True,inspiration,inspiration
364,109.0,25,M,up,0.8718656999990344,0.8288945299605706,,experiment,emotion,1.0,,,,1151.7591359000653,525,26,male,True,11517,11526,True,True,expiration,expiration
365,136.0,25,F,up,0.6660194001160562,1.2909544788020142,,experiment,emotion,1.0,,,,1154.2090034000576,525,26,male,True,11541,11548,False,False,inspiration,expiration
366,127.0,25,F,up,0.8014440000988543,0.3878520711393225,,experiment,emotion,1.0,,,,1155.5255630000026,525,26,male,True,11555,11563,False,False,expiration,expiration
367,109.0,25,M,down,0.6125996999908239,1.81615600466458,,experiment,emotion,1.0,,,,1158.4254042000975,525,26,male,True,11584,11590,False,False,expiration,expiration
368,136.0,25,M,down,0.7782012000679971,1.3104276125104206,,experiment,emotion,1.0,,,,1160.608790700091,525,26,male,True,11605,11613,False,False,trough,inspiration
369,136.0,25,F,up,0.8163136998191476,1.452895934847714,,experiment,emotion,1.0,,,,1163.1086910001468,525,26,male,True,11630,11638,False,False,expiration,expiration
370,118.0,25,M,down,0.7903910998720676,1.5142830542121142,,experiment,emotion,1.0,,,,1165.7086114999838,525,26,male,True,11656,11664,False,False,inspiration,expiration
371,109.0,25,F,down,0.8101378001738341,0.8844489174236091,,experiment,emotion,1.0,,,,1167.6418636001179,525,26,male,True,11676,11684,False,False,expiration,expiration
372,118.0,25,F,down,0.6670370998326689,1.005182855019523,,experiment,emotion,1.0,,,,1169.7249618000349,525,26,male,True,11697,11704,False,False,peak,expiration
373,127.0,25,F,down,0.9291214998811484,1.0383081941191652,,experiment,emotion,1.0,,,,1171.724873600062,525,26,male,True,11717,11726,False,False,inspiration,inspiration
374,109.0,25,M,down,0.7087703999131918,1.0844762332876516,,experiment,emotion,1.0,,,,1174.008293400053,525,26,male,True,11739,11746,False,False,expiration,expiration
375,136.0,25,M,up,0.6901184001471847,1.0825895467647273,,experiment,emotion,1.0,,,,1176.0748805999754,525,26,male,True,11760,11767,False,False,inspiration,expiration
376,127.0,25,M,down,0.9658446998801082,1.4312443937148016,,experiment,emotion,1.0,,,,1178.4581506000834,525,26,male,True,11784,11794,False,False,trough,inspiration
377,136.0,25,F,up,0.5805956998374313,0.5049000320711647,,experiment,emotion,1.0,,,,1180.1914020001425,525,26,male,True,11801,11807,False,False,expiration,expiration
378,109.0,25,F,down,0.7773296001832932,1.5222812892369308,,experiment,emotion,1.0,,,,1182.5746504999695,525,26,male,True,11825,11833,False,False,inspiration,inspiration
379,127.0,25,M,up,0.8987577999942005,1.007356650508129,,experiment,emotion,1.0,,,,1184.6412375001235,525,26,male,True,11846,11855,False,False,expiration,peak
380,118.0,25,F,down,0.8418701000045985,1.2957537615384314,,experiment,emotion,1.0,,,,1187.1411616001278,525,26,male,True,11871,11879,False,False,inspiration,expiration
381,118.0,25,M,down,0.746950900182128,1.0338933097301106,,experiment,emotion,1.0,,,,1189.291044499958,525,26,male,True,11892,11899,False,False,expiration,expiration
382,127.0,25,M,down,0.7556622000411153,1.4064431028356459,,experiment,emotion,1.0,,,,1191.7243264999706,525,26,male,True,11917,11925,False,False,inspiration,expiration
383,136.0,25,M,up,0.7648922000080347,1.6590980723463686,,experiment,emotion,1.0,,,,1194.4242056000512,525,26,male,True,11944,11952,False,False,expiration,expiration
384,118.0,25,F,up,0.6739890999160707,1.6698470675001609,,experiment,emotion,1.0,,,,1197.12400540011,525,26,male,True,11971,11978,False,False,expiration,expiration
385,109.0,25,F,down,0.6589816000778228,1.4486992212431569,,experiment,emotion,1.0,,,,1199.5240140000826,525,26,male,True,11995,12002,False,False,expiration,expiration
386,109.0,25,M,down,0.5868255000095814,0.8538503221474136,,experiment,emotion,1.0,,,,1201.3072021000553,525,26,male,True,12013,12019,False,False,inspiration,inspiration
387,118.0,25,F,down,0.7657687999308109,0.9868677959573926,,experiment,emotion,1.0,,,,1203.1572096000893,525,26,male,True,12031,12039,False,False,expiration,trough
388,136.0,25,F,down,0.7918561999686062,0.5643992962907567,,experiment,emotion,1.0,,,,1204.7571686999872,525,26,male,True,12047,12055,False,False,inspiration,expiration
389,127.0,25,M,up,0.6805722999852151,0.617823512819761,,experiment,emotion,1.0,,,,1206.5404277001508,525,26,male,True,12065,12072,False,False,expiration,inspiration
390,109.0,25,M,down,0.6493836999870837,1.0281556026744612,,experiment,emotion,1.0,,,,1208.5235890999902,525,26,male,True,12085,12091,False,False,expiration,expiration
391,136.0,25,F,up,0.6343870998825878,0.7152084444418941,,experiment,emotion,1.0,,,,1210.1736064001452,525,26,male,True,12101,12107,False,False,inspiration,expiration
392,127.0,25,M,up,1.5347731998190284,1.2622103515480387,,experiment,emotion,1.0,,,,1212.34022750007,525,26,male,True,12123,12138,False,False,inspiration,expiration
393,127.0,25,F,up,0.8548906999640167,1.5856098440426194,,experiment,emotion,1.0,,,,1215.7400998000521,525,26,male,True,12157,12166,False,False,inspiration,expiration
394,109.0,25,F,up,1.1909745000302792,1.5194143395344042,,experiment,emotion,1.0,,,,1218.3899993000086,525,26,male,True,12183,12195,False,False,inspiration,expiration
395,118.0,25,F,down,0.6027661999687552,1.8036456371331508,,experiment,emotion,1.0,,,,1221.6732332999818,525,26,male,True,12216,12222,False,False,expiration,trough
396,136.0,25,M,down,0.6798849001061171,1.6278304980354807,,experiment,emotion,1.0,,,,1224.1731118001046,525,26,male,True,12241,12248,False,False,expiration,expiration
397,118.0,25,M,down,0.7059791998472065,1.4118194360232017,,experiment,emotion,1.0,,,,1226.5230111000128,525,26,male,True,12265,12272,False,False,expiration,inspiration
398,118.0,25,F,up,0.6933749001473188,1.438677290128748,,experiment,emotion,1.0,,,,1228.9396073999815,525,26,male,True,12289,12296,False,False,expiration,expiration
399,118.0,25,F,up,0.9507663000840694,1.063009480997619,,experiment,emotion,1.0,,,,1230.9561930999625,525,26,male,True,12309,12319,False,False,inspiration,expiration
400,136.0,25,M,up,0.7698347000405192,0.5636309459974853,,experiment,emotion,1.0,,,,1232.7561451001093,525,26,male,True,12327,12335,False,False,expiration,expiration
401,127.0,25,M,up,0.6598209999501705,0.5286836134648851,,experiment,emotion,1.0,,,,1234.3394067001066,525,26,male,True,12343,12350,False,False,inspiration,inspiration
402,109.0,25,M,up,1.0233529000543058,1.3375323877392822,,experiment,emotion,1.0,,,,1236.6226669999305,525,26,male,True,12366,12376,False,False,expiration,expiration
403,109.0,25,M,down,0.7054566000588238,1.5057816219370357,,experiment,emotion,1.0,,,,1239.4225348001344,525,26,male,True,12394,12401,False,False,expiration,trough
404,127.0,25,M,down,0.7707773000001907,0.3323437427627868,,experiment,emotion,1.0,,,,1240.739173799986,525,26,male,True,12407,12415,False,False,inspiration,inspiration
405,136.0,25,F,down,0.6986722000874579,0.33198088139975945,,experiment,emotion,1.0,,,,1242.1224196001422,525,26,male,True,12421,12428,False,False,inspiration,expiration
406,136.0,25,F,down,0.6109248001594096,1.301369980209655,,experiment,emotion,1.0,,,,1244.3890480999835,525,26,male,True,12443,12449,False,False,trough,inspiration
407,109.0,25,M,down,1.2045405998360366,1.227794884267998,,experiment,emotion,1.0,,,,1246.5054311000274,525,26,male,True,12465,12477,False,False,expiration,expiration
408,136.0,25,F,up,0.6051804998423904,1.9257271886481149,,experiment,emotion,1.0,,,,1249.8888230000155,525,26,male,True,12498,12504,False,False,inspiration,inspiration
409,118.0,25,F,up,0.5892748001497239,0.9097959002922624,,experiment,emotion,1.0,,,,1251.688738900004,525,26,male,True,12516,12522,False,False,expiration,expiration
410,127.0,25,F,up,0.8438964998349547,0.3718628672629351,,experiment,emotion,1.0,,,,1252.922089900123,525,26,male,True,12529,12537,False,False,inspiration,peak
411,118.0,25,M,down,0.7963409000076354,0.6489735234400962,,experiment,emotion,1.0,,,,1254.6886311001144,525,26,male,True,12546,12554,False,False,expiration,expiration
412,109.0,25,F,down,0.6991181999910623,0.817823308523248,,experiment,emotion,1.0,,,,1256.5719280000776,525,26,male,True,12565,12572,False,False,expiration,inspiration
413,127.0,25,F,up,1.450825900072232,1.7997636145518183,,experiment,emotion,1.0,,,,1259.3551634000614,525,26,male,True,12593,12608,False,False,inspiration,expiration
414,118.0,25,F,down,0.6782733998261392,1.4360560324095872,,experiment,emotion,1.0,,,,1262.5217122000176,525,26,male,True,12625,12632,False,False,expiration,expiration
415,127.0,25,M,down,0.6867241999134421,1.346818849911105,,experiment,emotion,1.0,,,,1264.8382653000301,525,26,male,True,12648,12655,False,False,expiration,expiration
416,109.0,25,M,down,0.33349400013685226,1.7503118548853993,,experiment,emotion,1.0,,,,1267.538194600027,525,26,male,True,12675,12678,False,False,expiration,expiration
417,136.0,25,F,up,0.54551100009121,1.4535062664672056,,experiment,emotion,1.0,,,,1269.704507400049,525,26,male,True,12697,12702,False,False,expiration,expiration
418,127.0,25,M,up,0.3001443999819457,0.9561924117375548,,experiment,emotion,1.0,,,,1271.4713894000745,525,26,male,True,12714,12717,False,False,expiration,expiration
419,136.0,25,F,up,0.6154588998761028,1.0989107744500306,,experiment,emotion,1.0,,,,1273.2546054001432,525,26,male,True,12732,12738,False,False,inspiration,expiration
420,109.0,25,M,down,0.6537695000879467,1.4421440274844217,,experiment,emotion,1.0,,,,1275.5712155001238,525,26,male,True,12755,12762,False,False,inspiration,peak
421,118.0,25,M,up,0.8972084999550134,1.7290540099128786,,experiment,emotion,1.0,,,,1278.237774200039,525,26,male,True,12782,12791,True,True,inspiration,expiration
422,0.08667327728818197,25,up,up,0.7319109002128243,1.363792590918715,,experiment,cRDM,1.0,,,,1286.8541260000784,525,26,male,True,12868,12875,False,False,inspiration,inspiration
423,0.08667327728818197,25,up,up,0.546224000165239,0.3361533336517304,,experiment,cRDM,1.0,,,,1288.1707715000955,525,26,male,True,12881,12886,False,False,expiration,expiration
424,0.08667327728818197,25,down,up,0.6796095999889076,1.409136607917905,,experiment,cRDM,1.0,,,,1290.3873487999665,525,26,male,True,12903,12910,False,False,inspiration,expiration
425,0.08667327728818197,25,down,down,0.4776303002145141,1.7873090416594868,,experiment,cRDM,1.0,,,,1293.1203624000773,525,26,male,True,12931,12936,False,False,inspiration,inspiration
426,0.08667327728818197,25,up,down,0.675783600192517,0.31234773952480954,,experiment,cRDM,1.0,,,,1294.187191199977,525,26,male,True,12941,12948,False,False,expiration,expiration
427,0.08667327728818197,25,down,down,0.5428472000639886,0.502897940515941,,experiment,cRDM,1.0,,,,1295.6371542999989,525,26,male,True,12956,12961,False,False,expiration,inspiration
428,0.08667327728818197,25,up,up,0.6699377999175339,1.3888644158549193,,experiment,cRDM,1.0,,,,1297.8371157001238,525,26,male,True,12978,12985,False,False,expiration,expiration
429,0.08667327728818197,25,up,up,0.6260074998717755,1.5266911088879331,,experiment,cRDM,1.0,,,,1300.2869440999348,525,26,male,True,13002,13008,False,False,inspiration,expiration
430,0.08667327728818197,25,down,up,0.987587299896404,1.8377744271950172,,experiment,cRDM,1.0,,,,1303.0034167000556,525,26,male,True,13030,13040,False,False,expiration,inspiration
431,0.08667327728818197,25,down,down,0.6842061998322606,1.3318310191099885,,experiment,cRDM,1.0,,,,1305.5867667000275,525,26,male,True,13055,13062,False,False,expiration,expiration
432,0.08667327728818197,25,down,down,0.6472832998260856,1.3119310148276957,,experiment,cRDM,1.0,,,,1307.8366922000425,525,26,male,True,13078,13084,False,False,inspiration,expiration
433,0.08667327728818197,25,down,down,0.6253496999852359,1.4841126408641665,,experiment,cRDM,1.0,,,,1310.2366335000845,525,26,male,True,13102,13108,False,False,expiration,inspiration
434,0.08667327728818197,25,down,up,0.6641655999701469,1.1436467385160782,,experiment,cRDM,1.0,,,,1312.2698508000467,525,26,male,True,13122,13129,False,False,expiration,expiration
435,0.08667327728818197,25,down,up,0.8195208001416177,1.9518695163432969,,experiment,cRDM,1.0,,,,1315.1364653001076,525,26,male,True,13151,13159,False,False,inspiration,peak
436,0.08667327728818197,25,up,up,0.6510302000679076,1.189701909861924,,experiment,cRDM,1.0,,,,1317.4029940001199,525,26,male,True,13174,13181,False,False,expiration,inspiration
437,0.08667327728818197,25,up,up,0.9997511999681592,1.654865001711941,,experiment,cRDM,1.0,,,,1319.9862303000411,525,26,male,True,13199,13209,False,False,expiration,expiration
438,0.08667327728818197,25,up,up,0.7314762000460178,0.6093117455900326,,experiment,cRDM,1.0,,,,1321.869513300015,525,26,male,True,13218,13225,False,False,expiration,expiration
439,0.08667327728818197,25,up,up,0.6882368999067694,1.8851018634586736,,experiment,cRDM,1.0,,,,1324.7527369000018,525,26,male,True,13247,13254,False,False,expiration,expiration
440,0.08667327728818197,25,down,up,0.6499375000130385,1.02786846390431,,experiment,cRDM,1.0,,,,1326.7360280000141,525,26,male,True,13267,13273,False,False,inspiration,inspiration
441,0.08667327728818197,25,up,up,1.0687076000031084,0.3299291897567776,,experiment,cRDM,1.0,,,,1327.9692581000272,525,26,male,True,13279,13290,False,False,peak,expiration
442,0.08667327728818197,25,up,up,0.8735225999262184,1.9065187292980572,,experiment,cRDM,1.0,,,,1331.2024708001406,525,26,male,True,13312,13321,False,False,inspiration,expiration
443,0.08667327728818197,25,down,down,0.4771318000275642,1.496753866768146,,experiment,cRDM,1.0,,,,1333.8357778999487,525,26,male,True,13338,13343,False,False,inspiration,expiration
444,0.08667327728818197,25,up,up,0.7356831999495625,1.6203084444639957,,experiment,cRDM,1.0,,,,1336.2023064999375,525,26,male,True,13362,13369,False,False,inspiration,inspiration
445,0.08667327728818197,25,down,up,0.7583608999848366,0.4399010490124663,,experiment,cRDM,1.0,,,,1337.6356166000478,525,26,male,True,13376,13384,False,False,inspiration,expiration
446,0.08667327728818197,25,down,up,0.7118117001373321,0.7429214213448292,,experiment,cRDM,1.0,,,,1339.402161899954,525,26,male,True,13393,13400,False,False,expiration,inspiration
447,0.08667327728818197,25,up,down,0.764401099877432,1.7473566213499234,,experiment,cRDM,1.0,,,,1342.1185777999926,525,26,male,True,13421,13429,False,False,expiration,inspiration
448,0.08667327728818197,25,up,down,0.7106550999451429,1.440534873961301,,experiment,cRDM,1.0,,,,1344.585328400135,525,26,male,True,13445,13452,False,False,expiration,expiration
449,0.08667327728818197,25,down,down,0.5416941998992115,0.5359567903212725,,experiment,cRDM,1.0,,,,1346.0852862999307,525,26,male,True,13460,13465,False,False,inspiration,inspiration
450,0.08667327728818197,25,up,up,0.5647492001298815,1.295021349854883,,experiment,cRDM,1.0,,,,1348.1852041000964,525,26,male,True,13481,13487,False,False,expiration,expiration
451,0.08667327728818197,25,down,down,0.5987494001165032,1.1869720116732798,,experiment,cRDM,1.0,,,,1350.218290900113,525,26,male,True,13502,13508,False,False,inspiration,expiration
452,0.08667327728818197,25,down,up,0.6332183999475092,0.4139318232561937,,experiment,cRDM,1.0,,,,1351.501751499949,525,26,male,True,13514,13520,False,False,expiration,expiration
453,0.08667327728818197,25,down,up,0.6898584000300616,1.8268647096166883,,experiment,cRDM,1.0,,,,1354.21811230015,525,26,male,True,13542,13549,False,False,expiration,expiration
454,0.08667327728818197,25,up,up,0.6403590000700206,0.587192063716939,,experiment,cRDM,1.0,,,,1355.751596200047,525,26,male,True,13557,13563,False,False,trough,inspiration
455,0.08667327728818197,25,up,up,0.5965792997740209,1.4497523848995837,,experiment,cRDM,1.0,,,,1358.1014791000634,525,26,male,True,13580,13586,False,False,expiration,expiration
456,0.08667327728818197,25,up,up,0.9169102001469582,1.0747758534482108,,experiment,cRDM,1.0,,,,1360.0180901000274,525,26,male,True,13600,13609,False,False,expiration,inspiration
457,0.08667327728818197,25,down,down,0.6082236000802368,1.5084618732835713,,experiment,cRDM,1.0,,,,1362.7177532000933,525,26,male,True,13627,13633,False,False,expiration,expiration
458,0.08667327728818197,25,down,down,0.6390503000002354,1.5724874576250818,,experiment,cRDM,1.0,,,,1365.1679225000553,525,26,male,True,13651,13657,False,False,inspiration,inspiration
459,0.08667327728818197,25,up,down,0.6291308000218123,0.5967144632501569,,experiment,cRDM,1.0,,,,1366.6678425001444,525,26,male,True,13666,13672,False,False,expiration,expiration
460,0.08667327728818197,25,down,down,0.6538869000505656,0.92749590088449,,experiment,cRDM,1.0,,,,1368.5010971999727,525,26,male,True,13684,13691,False,False,inspiration,expiration
461,0.08667327728818197,25,up,down,0.565015200059861,1.9361747661975397,,experiment,cRDM,1.0,,,,1371.3510052999484,525,26,male,True,13713,13719,False,False,expiration,inspiration
462,0.08667327728818197,25,up,down,0.5230582999065518,1.9220928574610008,,experiment,cRDM,1.0,,,,1374.1008930001408,525,26,male,True,13740,13745,False,False,expiration,expiration
463,0.08667327728818197,25,up,down,0.6761449000332505,1.352484319215144,,experiment,cRDM,1.0,,,,1376.2507913999725,525,26,male,True,13762,13769,False,False,expiration,expiration
464,0.08667327728818197,25,down,up,0.6472571000922471,1.8588140262509487,,experiment,cRDM,1.0,,,,1379.0507380000781,525,26,male,True,13790,13796,False,False,inspiration,peak
465,0.08667327728818197,25,down,up,0.9505529999732972,0.3451836614671491,,experiment,cRDM,1.0,,,,1380.3173871000765,525,26,male,True,13803,13813,False,False,expiration,expiration
466,0.08667327728818197,25,up,up,1.2220300000626594,1.3529926353124615,,experiment,cRDM,1.0,,,,1382.8839056999427,525,26,male,True,13828,13840,False,False,inspiration,expiration
467,0.08667327728818197,25,down,down,0.6674536000937223,0.39420622274075856,,experiment,cRDM,1.0,,,,1384.7505155000836,525,26,male,True,13847,13854,False,False,expiration,expiration
468,0.08667327728818197,25,down,down,0.6315301998984069,0.9706226458171859,,experiment,cRDM,1.0,,,,1386.6504395999946,525,26,male,True,13866,13872,False,False,inspiration,expiration
469,0.08667327728818197,25,up,up,0.6836183001287282,1.1494027020258608,,experiment,cRDM,1.0,,,,1388.7003766000269,525,26,male,True,13886,13893,False,False,expiration,trough
470,0.08667327728818197,25,up,down,0.8610932999290526,0.451775771152556,,experiment,cRDM,1.0,,,,1390.116876299959,525,26,male,True,13901,13910,False,False,inspiration,expiration
471,0.08667327728818197,25,down,down,0.6570989000611007,1.0293609800911752,,experiment,cRDM,1.0,,,,1392.2668975000267,525,26,male,True,13922,13929,False,False,expiration,inspiration
472,0.08667327728818197,25,up,down,0.7737908000126481,0.5661065374027894,,experiment,cRDM,1.0,,,,1393.7501791000834,525,26,male,True,13937,13945,False,False,inspiration,expiration
473,0.08667327728818197,25,down,down,0.5715061000082642,0.7072524623214494,,experiment,cRDM,1.0,,,,1395.483455199981,525,26,male,True,13954,13960,False,False,expiration,expiration
474,0.08667327728818197,25,down,down,0.7008983998093754,0.5418076856536254,,experiment,cRDM,1.0,,,,1396.8500687000342,525,26,male,True,13968,13975,False,False,inspiration,inspiration
475,0.08667327728818197,25,down,down,1.0656446998473257,0.6664378319597994,,experiment,cRDM,1.0,,,,1398.4833196999969,525,26,male,True,13984,13995,False,False,expiration,expiration
476,0.08667327728818197,25,up,down,0.6472689001820982,0.4047582013050205,,experiment,cRDM,1.0,,,,1400.2166399999987,525,26,male,True,14002,14008,False,False,expiration,inspiration
477,0.08667327728818197,25,up,up,0.5428336998447776,1.617103655627884,,experiment,cRDM,1.0,,,,1402.7331886000463,525,26,male,True,14027,14032,False,False,expiration,expiration
478,0.08667327728818197,25,down,up,0.5825266998726875,1.7215489974432567,,experiment,cRDM,1.0,,,,1405.266433800105,525,26,male,True,14052,14058,False,False,inspiration,expiration
479,0.08667327728818197,25,down,up,0.3505802999716252,0.4713801323787454,,experiment,cRDM,1.0,,,,1406.5996050999966,525,26,male,True,14066,14070,False,False,expiration,expiration
480,0.08667327728818197,25,up,up,0.6476314999163151,0.4869109278107605,,experiment,cRDM,1.0,,,,1407.766324199969,525,26,male,True,14077,14083,False,False,expiration,expiration
481,0.08667327728818197,25,up,down,0.5647448999807239,1.489394368836089,,experiment,cRDM,1.0,,,,1410.1662413999438,525,26,male,True,14101,14107,False,False,expiration,expiration
482,0.08667327728818197,25,up,up,0.7346099000424147,0.6133927951698,,experiment,cRDM,1.0,,,,1411.5993530000562,525,26,male,True,14116,14123,False,False,expiration,inspiration
483,0.08667327728818197,25,up,down,0.5897725999820977,0.924617792334463,,experiment,cRDM,1.0,,,,1413.5161918001252,525,26,male,True,14135,14141,False,False,peak,expiration
484,0.08667327728818197,25,up,down,0.9239330999553204,1.096457672080156,,experiment,cRDM,1.0,,,,1415.4660501000474,525,26,male,True,14154,14163,False,False,expiration,expiration
485,0.08667327728818197,25,down,down,0.6853818998206407,1.8806776118998731,,experiment,cRDM,1.0,,,,1418.5326177000534,525,26,male,True,14185,14192,False,False,inspiration,expiration
486,0.08667327728818197,25,down,down,0.6134449997916818,0.7114977828961473,,experiment,cRDM,1.0,,,,1420.1825222999325,525,26,male,True,14201,14207,False,False,expiration,expiration
487,0.08667327728818197,25,up,down,0.6714516000356525,1.3692580457512886,,experiment,cRDM,1.0,,,,1422.4324575001376,525,26,male,True,14224,14231,True,True,peak,expiration
488,0.08667327728818197,25,down,down,0.6009796999860555,1.7812457913245727,,experiment,cRDM,1.0,,,,1425.1490162999835,525,26,male,True,14251,14257,True,True,inspiration,inspiration
489,0.08667327728818197,25,down,down,0.5843595999758691,1.3590886155329454,,experiment,cRDM,1.0,,,,1427.3655960999897,525,26,male,True,14273,14279,True,True,inspiration,inspiration
490,0.08667327728818197,25,down,down,0.5941601002123207,1.1862174934182217,,experiment,cRDM,1.0,,,,1429.398798899958,525,26,male,True,14294,14300,True,True,expiration,expiration
491,0.08667327728818197,25,up,up,0.8654557999689132,0.6550254255163348,,experiment,cRDM,1.0,,,,1430.9155049000399,525,26,male,True,14309,14318,False,False,inspiration,inspiration
492,0.08667327728818197,25,down,up,0.7869037000928074,1.0409591939419875,,experiment,cRDM,1.0,,,,1433.0820492000785,525,26,male,True,14330,14338,False,False,expiration,expiration
493,0.08667327728818197,25,down,up,0.5569774999748915,0.4140240807130495,,experiment,cRDM,1.0,,,,1434.531996200094,525,26,male,True,14345,14351,False,False,trough,inspiration
494,0.08667327728818197,25,down,down,0.6153988000005484,0.7559041217852611,,experiment,cRDM,1.0,,,,1436.098530499963,525,26,male,True,14361,14367,False,False,expiration,expiration
495,0.08667327728818197,25,up,down,0.4896844001486898,1.1283554089303058,,experiment,cRDM,1.0,,,,1438.1152437001,525,26,male,True,14381,14386,True,True,expiration,expiration
496,0.08667327728818197,25,up,up,0.6224773998837918,0.7916720173020959,,experiment,cRDM,1.0,,,,1439.6484829999972,525,26,male,True,14396,14402,True,True,expiration,expiration
497,0.08667327728818197,25,down,up,0.6584693000186235,0.8203752838985963,,experiment,cRDM,1.0,,,,1441.3484475000296,525,26,male,True,14413,14420,False,False,inspiration,expiration
498,0.08667327728818197,25,up,up,0.6887566999066621,1.5318771787374823,,experiment,cRDM,1.0,,,,1443.7981781000271,525,26,male,True,14438,14445,False,False,trough,inspiration
499,0.08667327728818197,25,down,down,0.709351500030607,0.989608270576062,,experiment,cRDM,1.0,,,,1445.7316058999859,525,26,male,True,14457,14464,False,False,expiration,expiration
500,0.08667327728818197,25,up,up,0.8460500000510365,0.5693671254281405,,experiment,cRDM,1.0,,,,1447.2648612000048,525,26,male,True,14472,14480,False,False,expiration,inspiration
501,0.08667327728818197,25,up,up,1.3454940000083295,0.7551587108447533,,experiment,cRDM,1.0,,,,1449.1314703000244,525,26,male,True,14491,14504,False,False,expiration,expiration
502,136.0,25,M,up,0.5239377999678254,1.2018516007837712,,experiment,emotion,2.0,,,,1475.1970182999505,525,26,male,True,14752,14757,False,False,inspiration,inspiration
503,109.0,25,M,down,0.5527480000164361,0.6875717788057141,,experiment,emotion,2.0,,,,1476.6971477000045,525,26,male,True,14767,14773,False,False,expiration,expiration
504,127.0,25,F,up,1.047517899889499,0.4065403719857396,,experiment,emotion,2.0,,,,1477.9304605999496,525,26,male,True,14779,14789,False,False,expiration,expiration
505,136.0,25,F,down,0.7050896999426186,1.1665003509038778,,experiment,emotion,2.0,,,,1480.396830599988,525,26,male,True,14804,14811,False,False,inspiration,expiration
506,127.0,25,M,up,0.8780332999303937,1.9718806090532843,,experiment,emotion,2.0,,,,1483.3469058000485,525,26,male,True,14833,14842,False,False,inspiration,expiration
507,118.0,25,F,down,0.6218514998909086,0.35636502912166995,,experiment,emotion,2.0,,,,1484.880125100026,525,26,male,True,14848,14854,False,False,expiration,inspiration
508,109.0,25,M,up,1.166251800023019,1.467154659502243,,experiment,emotion,2.0,,,,1487.2467237000822,525,26,male,True,14872,14884,False,False,inspiration,expiration
509,118.0,25,M,up,0.5876511000096798,0.38259295577372704,,experiment,emotion,2.0,,,,1489.0632833000273,525,26,male,True,14890,14896,False,False,inspiration,inspiration
510,136.0,25,F,up,0.7617003000341356,1.3877806496248977,,experiment,emotion,2.0,,,,1491.3132534001486,525,26,male,True,14913,14921,False,False,expiration,expiration
511,118.0,25,F,up,0.8631411001551896,0.8428132216358502,,experiment,emotion,2.0,,,,1493.1798133000266,525,26,male,True,14931,14940,False,False,expiration,expiration
512,127.0,25,F,up,0.7218215998727828,0.5433473194140597,,experiment,emotion,2.0,,,,1494.8631305000745,525,26,male,True,14948,14955,False,False,inspiration,inspiration
513,136.0,25,F,up,0.6199167999438941,1.6497660909892888,,experiment,emotion,2.0,,,,1497.5130378999747,525,26,male,True,14975,14981,False,False,expiration,expiration
514,127.0,25,F,up,0.7747969999909401,1.4873224421809856,,experiment,emotion,2.0,,,,1499.8961551999673,525,26,male,True,14999,15007,False,False,expiration,expiration
515,109.0,25,F,down,0.8970822000410408,1.8278588684632284,,experiment,emotion,2.0,,,,1502.7959024999288,525,26,male,True,15028,15037,False,False,inspiration,expiration
516,118.0,25,M,up,0.9149885999504476,0.32441430019728,,experiment,emotion,2.0,,,,1504.295979199931,525,26,male,True,15043,15052,False,False,expiration,expiration
517,109.0,25,M,down,0.9281463001389056,0.8198906694015888,,experiment,emotion,2.0,,,,1506.295840800041,525,26,male,True,15063,15072,False,False,inspiration,expiration
518,136.0,25,M,up,0.956131499959156,1.0108191371803188,,experiment,emotion,2.0,,,,1508.495832500048,525,26,male,True,15085,15095,False,False,expiration,inspiration
519,109.0,25,M,down,0.7527266000397503,0.9534841576534172,,experiment,emotion,2.0,,,,1510.6792000001294,525,26,male,True,15106,15114,False,False,peak,expiration
520,127.0,25,F,up,0.7574787000194192,0.6118000010864872,,experiment,emotion,2.0,,,,1512.3124913999343,525,26,male,True,15123,15131,False,False,inspiration,inspiration
521,127.0,25,M,down,0.746442899806425,1.8569269647983164,,experiment,emotion,2.0,,,,1515.1955041999465,525,26,male,True,15152,15159,False,False,expiration,expiration
522,118.0,25,M,down,1.2383057998958975,0.7307817471397697,,experiment,emotion,2.0,,,,1516.945649500005,525,26,male,True,15169,15181,False,False,trough,expiration
523,118.0,25,F,down,0.8304921998642385,1.7795628191685675,,experiment,emotion,2.0,,,,1520.2455045001113,525,26,male,True,15202,15210,False,False,inspiration,inspiration
524,109.0,25,M,down,0.8425972999539226,0.74778853175751,,experiment,emotion,2.0,,,,1522.0953453001566,525,26,male,True,15221,15229,False,False,expiration,expiration
525,136.0,25,F,up,0.8506233999505639,1.0205104040882824,,experiment,emotion,2.0,,,,1524.2453710001428,525,26,male,True,15242,15251,False,False,inspiration,expiration
526,127.0,25,F,down,0.7403643999714404,1.3665967654401032,,experiment,emotion,2.0,,,,1526.7286034999413,525,26,male,True,15267,15274,False,False,inspiration,inspiration
527,109.0,25,M,down,0.6679122000932693,1.748005702195549,,experiment,emotion,2.0,,,,1529.4950660001487,525,26,male,True,15295,15302,False,False,expiration,trough
528,136.0,25,M,up,0.9958614998031408,1.1089547100295372,,experiment,emotion,2.0,,,,1531.5451094000598,525,26,male,True,15315,15325,False,False,inspiration,expiration
529,136.0,25,F,up,0.9006177000701427,0.5662653416805311,,experiment,emotion,2.0,,,,1533.378330100095,525,26,male,True,15333,15342,False,False,expiration,expiration
530,118.0,25,M,up,1.0900042001158001,1.2685392261408928,,experiment,emotion,2.0,,,,1535.8449419001113,525,26,male,True,15358,15369,False,False,peak,expiration
531,109.0,25,F,down,0.9007827001623808,0.4177023001297825,,experiment,emotion,2.0,,,,1537.6281934001017,525,26,male,True,15376,15385,False,False,trough,inspiration
532,118.0,25,F,down,0.7488665001001209,0.9776838964803334,,experiment,emotion,2.0,,,,1539.7781126000918,525,26,male,True,15397,15404,False,False,expiration,expiration
533,127.0,25,F,up,0.5075974001083523,1.9404698982436392,,experiment,emotion,2.0,,,,1542.7613446000034,525,26,male,True,15427,15432,False,False,expiration,expiration
534,109.0,25,M,down,0.5746344998478891,0.6538905190915979,,experiment,emotion,2.0,,,,1544.2113079000264,525,26,male,True,15442,15448,False,False,inspiration,expiration
535,136.0,25,M,up,0.730710499919951,0.7855725799046998,,experiment,emotion,2.0,,,,1545.8612365999725,525,26,male,True,15458,15465,False,False,inspiration,peak
536,127.0,25,M,up,0.7637287001125515,0.5927729376480461,,experiment,emotion,2.0,,,,1547.4611983001232,525,26,male,True,15474,15482,True,True,trough,inspiration
537,136.0,25,F,up,0.6891805999912322,0.6244396827342442,,experiment,emotion,2.0,,,,1549.1277781000827,525,26,male,True,15491,15498,True,True,expiration,expiration
538,109.0,25,F,down,0.6642479998990893,0.3998225754969189,,experiment,emotion,2.0,,,,1550.4776813001374,525,26,male,True,15504,15511,True,True,expiration,expiration
539,127.0,25,M,up,0.6279770000837743,1.9523232690149652,,experiment,emotion,2.0,,,,1553.3609450999645,525,26,male,True,15533,15539,True,True,expiration,inspiration
540,118.0,25,F,down,0.7854534999933094,1.603919948894771,,experiment,emotion,2.0,,,,1555.8775125001557,525,26,male,True,15558,15566,True,True,inspiration,peak
541,118.0,25,M,up,0.9172247000969946,1.3253909733141709,,experiment,emotion,2.0,,,,1558.2607686000408,525,26,male,True,15582,15591,False,False,inspiration,expiration
542,127.0,25,M,up,0.5705585000105202,0.8781352958926034,,experiment,emotion,2.0,,,,1560.3273837999438,525,26,male,True,15603,15609,False,False,expiration,expiration
