,stimLvl,stimTime,rand,response,rt,precedingITI,trialNumber,trialType,stimuli,block,estIntens,estThres,estSlope,trialStart,subject,age,gender,headRest,onset,responsI,manBadOnset,manBadRespons,onset_phase,respons_phase
0,150.0,100,F,,,0.4646009683988579,,introTrial,emotion,,,,,238.88779449999996,1001,26,female,True,2388,0,False,False,expiration,0
1,0.9,100,down,,,0.3655893769154504,,introTrial,cRDM,,,,,243.18777619999992,1001,26,female,True,2431,0,False,False,expiration,0
2,200.0,25,M,up,0.7757258999999976,1.255837977873253,,tutorial,emotion,,,,,288.9359628,1001,26,female,True,2888,2896,False,False,inspiration,expiration
3,200.0,25,F,up,1.004485599999953,0.9336842431707896,,tutorial,emotion,,,,,290.9192246,1001,26,female,True,2908,2918,False,False,expiration,inspiration
4,200.0,25,M,up,0.55430709999996,1.5449680063768163,,tutorial,emotion,,,,,293.7693803999998,1001,26,female,True,2937,2943,False,False,expiration,trough
5,0.0,25,M,down,0.5386667000000216,1.9236410329776001,,tutorial,emotion,,,,,296.5690373,1001,26,female,True,2964,2969,False,False,expiration,expiration
6,0.0,25,M,down,0.7759054000000559,1.8579214578574208,,tutorial,emotion,,,,,299.2527966,1001,26,female,True,2992,3000,False,False,expiration,expiration
7,200.0,25,F,up,0.9974960000001828,1.007281411998235,,tutorial,emotion,,,,,301.3021621000001,1001,26,female,True,3012,3022,False,False,inspiration,expiration
8,0.0,25,M,down,0.8503080000000409,1.8886705135121409,,tutorial,emotion,,,,,304.4853767,1001,26,female,True,3044,3053,False,False,inspiration,expiration
9,200.0,25,F,up,1.0417866000000229,1.4251917498912219,,tutorial,emotion,,,,,307.0519293,1001,26,female,True,3070,3080,False,False,expiration,inspiration
10,0.0,25,F,down,0.8311542000001282,0.659930481696211,,tutorial,emotion,,,,,309.0185325999998,1001,26,female,True,3089,3097,False,False,expiration,expiration
11,0.0,25,F,down,0.6212262000001374,1.2794274380647082,,tutorial,emotion,,,,,311.4184605999999,1001,26,female,True,3113,3119,False,False,expiration,expiration
12,0.9,25,up,up,0.5832648000000518,1.2190362218235442,,tutorial,cRDM,,,,,321.4014396999998,1001,26,female,True,3213,3219,False,False,expiration,expiration
13,0.9,25,up,up,0.4820337000001018,0.4587017661191062,,tutorial,cRDM,,,,,322.7347167999999,1001,26,female,True,3226,3231,False,False,expiration,inspiration
14,0.9,25,down,down,0.6107128000001012,0.8642669062603345,,tutorial,cRDM,,,,,324.3679938999999,1001,26,female,True,3243,3249,False,False,expiration,expiration
15,0.9,25,down,down,0.6751881000000141,1.904493406317448,,tutorial,cRDM,,,,,327.13454159999986,1001,26,female,True,3270,3277,False,False,expiration,expiration
16,0.9,25,up,up,0.4995559999999841,0.6218081229781566,,tutorial,cRDM,,,,,328.7011548999999,1001,26,female,True,3286,3291,False,False,trough,inspiration
17,0.9,25,down,down,0.6072240999999394,0.3876932144864385,,tutorial,cRDM,,,,,329.88446919999996,1001,26,female,True,3298,3304,False,False,expiration,expiration
18,0.9,25,up,up,0.4263192999999319,1.2273465985645988,,tutorial,cRDM,,,,,331.9843704,1001,26,female,True,3319,3323,False,False,inspiration,inspiration
19,0.9,25,up,up,0.5670215000000098,0.6469105629314513,,tutorial,cRDM,,,,,333.31764479999987,1001,26,female,True,3332,3338,False,False,expiration,expiration
20,0.9,25,down,down,0.6717839000000367,1.4383810844865972,,tutorial,cRDM,,,,,335.60090919999993,1001,26,female,True,3355,3362,False,False,inspiration,expiration
21,0.9,25,down,down,0.5562457000000904,1.8331565628781448,,tutorial,cRDM,,,,,338.36743849999993,1001,26,female,True,3383,3389,False,False,inspiration,peak
22,100.0,25,M,up,0.5098499999999149,1.1730604230961643,,psi_staircase_training,emotion,,100.0,100.0,25.00050000000001,356.0668128,1001,26,female,True,3560,3565,False,False,inspiration,expiration
23,55.0,25,M,down,0.7106551999997919,1.1036797263419915,,psi_staircase_training,emotion,,54.742809467541896,54.742809467541896,25.00050000000011,358.05005099999994,1001,26,female,True,3580,3587,False,False,expiration,inspiration
24,79.0,25,F,down,0.9257382999999209,1.762923616382699,,psi_staircase_training,emotion,,79.636070985635,79.636070985635,25.71326925488641,360.89996349999996,1001,26,female,True,3608,3617,False,False,inspiration,expiration
25,103.0,25,F,up,0.5208211000001484,0.9626313230689624,,psi_staircase_training,emotion,,97.61123893914808,97.61123893914808,26.1463337262867,363.1498651,1001,26,female,True,3630,3635,False,False,expiration,expiration
26,87.0,25,M,up,0.4795739000001049,1.7211037102808897,,psi_staircase_training,emotion,,85.98876744579668,85.98876744579668,23.003056417783494,365.7331167,1001,26,female,True,3656,3661,False,False,expiration,expiration
27,73.0,25,F,down,0.7376885999999558,1.7597609938636694,,psi_staircase_training,emotion,,76.84494728761523,76.84494728761523,23.862671666125227,368.33301939999996,1001,26,female,True,3682,3689,False,False,expiration,expiration
28,83.0,25,M,down,1.0064249000001837,0.7755037404255679,,psi_staircase_training,emotion,,83.27335240078494,83.27335240078494,20.612160618333935,370.2162784999999,1001,26,female,True,3701,3711,False,False,expiration,inspiration
29,93.0,25,F,down,0.6647864999999911,0.6793334713796324,,psi_staircase_training,emotion,,88.5822762920035,88.5822762920035,20.399967861098503,372.2829116,1001,26,female,True,3722,3729,False,False,expiration,inspiration
30,109.0,25,F,up,0.9538763000000472,1.5095122458748342,,psi_staircase_training,emotion,,95.67556894901224,95.67556894901224,26.326288765400914,374.8327941,1001,26,female,True,3747,3757,False,False,expiration,expiration
31,107.0,25,M,up,0.7555958000000373,0.5073170344367279,,psi_staircase_training,emotion,,92.07487684260836,92.07487684260836,23.700331269420914,376.6660712,1001,26,female,True,3766,3774,False,False,inspiration,expiration
32,76.0,25,F,down,0.4887573000000884,0.82986041861065,,psi_staircase_training,emotion,,89.77203586456595,89.77203586456595,21.458927628149052,378.61597179999984,1001,26,female,True,3785,3790,False,False,expiration,inspiration
33,105.0,25,F,down,0.6937883999999029,0.7407824522574895,,psi_staircase_training,emotion,,91.59603450552756,91.59603450552756,19.382101432010092,380.21590499999996,1001,26,female,True,3801,3808,False,False,expiration,expiration
34,117.0,25,F,up,0.7935182999999597,0.811957012889422,,psi_staircase_training,emotion,,97.1904290465256,97.1904290465256,26.903858895043005,382.09917249999984,1001,26,female,True,3820,3828,False,False,inspiration,peak
35,115.0,25,M,up,0.9595312999999804,0.5467301131376869,,psi_staircase_training,emotion,,95.27916607494251,95.27916607494251,25.079443154805126,383.7991322999998,1001,26,female,True,3837,3847,False,False,expiration,expiration
36,75.0,25,M,down,0.4993541000001187,1.9014817811256408,,psi_staircase_training,emotion,,93.84257347228615,93.84257347228615,23.439016854116964,387.0323435999998,1001,26,female,True,3869,3874,False,False,inspiration,expiration
37,114.0,25,F,up,0.6497736999999688,0.8587597276666343,,psi_staircase_training,emotion,,95.09121506865401,95.09121506865401,21.86777315131683,388.74892839999984,1001,26,female,True,3886,3892,False,False,expiration,expiration
38,77.0,25,F,down,0.5431737000001249,1.443944768991681,,psi_staircase_training,emotion,,94.0364297299192,94.0364297299192,20.35501180926307,391.2155063,1001,26,female,True,3911,3916,False,False,expiration,expiration
39,112.0,25,M,up,0.5322564999999031,1.6166735014730889,,psi_staircase_training,emotion,,95.01803218918131,95.01803218918131,18.924989128148997,393.71542860000005,1001,26,female,True,3936,3941,False,False,inspiration,expiration
40,79.0,25,M,down,0.6430608999999095,1.1734735718312903,,psi_staircase_training,emotion,,94.1933845378453,94.1933845378453,17.602839335268637,395.7656041999999,1001,26,female,True,3957,3963,False,False,expiration,inspiration
41,110.0,25,M,up,0.7204578999999285,1.4414863651043686,,psi_staircase_training,emotion,,94.99016447695408,94.99016447695408,16.377328591318115,398.2152389,1001,26,female,True,3981,3988,False,False,expiration,expiration
42,82.0,25,M,down,0.7937904999998864,1.1132337978791715,,psi_staircase_training,emotion,,94.31762092373287,94.31762092373287,15.279677990153694,400.4318606,1001,26,female,True,4003,4011,False,False,inspiration,expiration
43,87.0,25,F,up,0.5430066999999781,1.6510601626554506,,psi_staircase_training,emotion,,95.04826821798049,95.04826821798049,14.267245032377927,403.2317168,1001,26,female,True,4031,4036,False,False,expiration,inspiration
44,107.0,25,F,up,0.5886508000000958,1.2321460045694808,,psi_staircase_training,emotion,,92.70841818800878,92.70841818800878,16.318036405827826,405.36500529999984,1001,26,female,True,4053,4059,False,False,expiration,expiration
45,77.0,25,F,down,0.8530872999999701,0.6840481005912558,,psi_staircase_training,emotion,,92.1037539367522,92.1037539367522,15.327648837907667,406.98161099999993,1001,26,female,True,4069,4078,False,False,expiration,inspiration
46,103.0,25,M,up,0.5774996999998621,0.9260514802475872,,psi_staircase_training,emotion,,92.58792618739508,92.58792618739508,14.412127317177362,409.09817669999984,1001,26,female,True,4090,4096,False,False,expiration,expiration
47,99.0,25,M,down,0.6189469999999346,1.928742844946212,,psi_staircase_training,emotion,,91.9280508896183,91.9280508896183,13.586354501535133,411.9647493999999,1001,26,female,True,4119,4125,False,False,expiration,expiration
48,78.0,25,F,down,0.7106597000001784,0.7344950287945043,,psi_staircase_training,emotion,,93.81992370401657,93.81992370401657,15.28117041513658,413.6980179,1001,26,female,True,4136,4143,False,False,inspiration,inspiration
49,109.0,25,F,down,0.8140636999999058,0.9160219055013524,,psi_staircase_training,emotion,,94.22030106626462,94.22030106626462,14.509691734235512,415.6646231999998,1001,26,female,True,4156,4164,False,False,expiration,expiration
50,116.0,25,M,up,0.5338490999999976,0.8968465651674573,,psi_staircase_training,emotion,,96.31536304096814,96.31536304096814,18.33330718430089,417.7478346999998,1001,26,female,True,4177,4182,False,False,peak,expiration
51,77.0,25,M,down,0.6105878999999277,1.9032282633051765,,psi_staircase_training,emotion,,95.90978755886877,95.90978755886877,17.457034417500036,420.53109349999994,1001,26,female,True,4204,4210,False,False,inspiration,inspiration
52,0.29,25,up,up,0.4882580999999391,1.996948458009,,psi_staircase_training,cRDM,,0.25,0.25693124029946324,0.10500000000000002,428.94740989999985,1001,26,female,True,4288,4293,False,False,inspiration,inspiration
53,0.25,25,up,up,0.5109069000000089,0.665503034427264,,psi_staircase_training,cRDM,,0.21910266653183127,0.2260132002683493,0.10468632033873933,430.38080010000004,1001,26,female,True,4303,4308,False,False,expiration,expiration
54,0.21,25,down,down,0.5766736999999011,0.4635209862199894,,psi_staircase_training,cRDM,,0.1900540959403307,0.19684979615540016,0.10294672984249993,431.6140039,1001,26,female,True,4315,4321,False,False,inspiration,inspiration
55,0.18,25,down,down,0.7413977000001069,1.3343240567345018,,psi_staircase_training,cRDM,,0.1635257589279754,0.1701521334256793,0.100381647756865,433.7972813999999,1001,26,female,True,4337,4344,False,False,expiration,expiration
56,0.15,25,up,up,0.7122208000000683,1.6775284372295542,,psi_staircase_training,cRDM,,0.14018955742449365,0.14660133511875031,0.0971307628663642,436.480491,1001,26,female,True,4364,4371,False,False,expiration,expiration
57,0.13,25,down,up,0.6329414000001634,0.9566214812348792,,psi_staircase_training,cRDM,,0.11987606021454796,0.12605547676183335,0.09361076941961036,438.4137590999998,1001,26,female,True,4383,4389,False,False,inspiration,inspiration
58,0.21,25,up,down,0.8192546000000219,0.7509144237018923,,psi_staircase_training,cRDM,,0.1822197442013377,0.18935685454542567,0.10811868493251764,440.0804381,1001,26,female,True,4400,4408,False,False,expiration,expiration
59,0.31,25,down,down,0.7280344000000696,0.5948992603426237,,psi_staircase_training,cRDM,,0.25783255957764545,0.2659708713261456,0.1232856886607567,441.76365589999995,1001,26,female,True,4417,4424,False,False,trough,inspiration
60,0.28,25,down,down,0.743138799999997,1.2564053133936068,,psi_staircase_training,cRDM,,0.2374850205332603,0.2455811113209632,0.12264609160565824,444.0135427,1001,26,female,True,4439,4446,False,False,expiration,inspiration
61,0.26,25,up,up,0.5068536000001131,1.3690781820427345,,psi_staircase_training,cRDM,,0.21915507305212525,0.2271473713400003,0.1210737593806786,446.39678439999983,1001,26,female,True,4463,4468,False,False,expiration,expiration
62,0.25,25,down,down,0.4205802999999833,0.7585025848429643,,psi_staircase_training,cRDM,,0.2029799814349386,0.21085027604346676,0.11922554956858845,447.93005339999985,1001,26,female,True,4478,4482,False,False,expiration,trough
63,0.2,25,down,down,0.4376819000001433,1.758442439340936,,psi_staircase_training,cRDM,,0.18911935985814451,0.1968473813665315,0.11707028227595345,450.38000939999984,1001,26,female,True,4503,4507,False,False,expiration,expiration
64,0.2,25,down,down,0.427746500000012,0.6494348487089856,,psi_staircase_training,cRDM,,0.17338942110057706,0.181408777596316,0.12148365886518055,451.72993019999984,1001,26,female,True,4516,4520,False,False,expiration,inspiration
65,0.19,25,up,up,0.4985615000000507,0.5418985170349974,,psi_staircase_training,cRDM,,0.1592036439708341,0.1673687313745874,0.12369130781117008,452.96322979999985,1001,26,female,True,4529,4534,False,False,inspiration,inspiration
66,0.19,25,up,up,0.7769244999999501,1.6956380162649494,,psi_staircase_training,cRDM,,0.14652331448404127,0.1547461393688575,0.12456596158880327,455.4297695,1001,26,female,True,4553,4561,False,False,expiration,expiration
67,0.18,25,down,down,0.4353380000000016,1.4032069173651505,,psi_staircase_training,cRDM,,0.13584921352018886,0.1440166261121874,0.12372653163190085,457.8963449,1001,26,female,True,4578,4582,False,False,inspiration,expiration
68,0.18,25,down,down,0.4771089000000757,1.9254028879676368,,psi_staircase_training,cRDM,,0.12665418031786044,0.1347116840925183,0.12206154451239999,460.52958709999984,1001,26,female,True,4604,4609,False,False,inspiration,inspiration
69,0.17,25,up,up,0.5138086000001749,1.7861457020636469,,psi_staircase_training,cRDM,,0.11917705059016012,0.12705540054623454,0.11934757844882032,463.0628626,1001,26,female,True,4630,4635,False,False,trough,inspiration
70,0.12,25,up,down,0.3671451999998681,1.9634766026452648,,psi_staircase_training,cRDM,,0.11260475560782107,0.12030068412594692,0.11658411186029577,465.8293993,1001,26,female,True,4657,4661,False,False,trough,inspiration
71,0.18,25,up,up,0.4169036000000688,1.5051356594609417,,psi_staircase_training,cRDM,,0.1366150686515542,0.14338601523368333,0.10257174191156107,468.0293001999999,1001,26,female,True,4679,4683,False,False,expiration,expiration
72,0.18,25,up,up,0.5041116999998394,0.6691179389242303,,psi_staircase_training,cRDM,,0.1316049861348459,0.1380384821706203,0.09745976976279784,469.4125898,1001,26,female,True,4693,4698,False,False,inspiration,expiration
73,0.16,25,down,down,0.4169555999999375,1.4154128664187642,,psi_staircase_training,cRDM,,0.127899867939206,0.1339733502854495,0.09200599298295126,471.61250149999995,1001,26,female,True,4715,4719,False,False,expiration,expiration
74,0.16,25,down,down,0.47815089999994603,0.4491566550070533,,psi_staircase_training,cRDM,,0.12361627007477485,0.12949890853649432,0.0891149364029954,472.76247229999984,1001,26,female,True,4727,4732,False,False,inspiration,inspiration
75,0.12,25,down,up,0.8106359000000793,1.7220710666375627,,psi_staircase_training,cRDM,,0.12028287901426585,0.12593197747640686,0.08557708474928176,475.2290533,1001,26,female,True,4751,4759,False,False,expiration,expiration
76,0.16,25,up,up,0.7110095999998975,0.9763165989359834,,psi_staircase_training,cRDM,,0.13593183100120482,0.14011261773069947,0.06333391826437343,477.29564469999985,1001,26,female,True,4772,4779,False,False,inspiration,inspiration
77,0.16,25,up,up,0.7558208000000377,1.109576746871328,,psi_staircase_training,cRDM,,0.13347767675965838,0.1373764228426355,0.059061339821719426,479.3788831,1001,26,female,True,4793,4801,False,False,expiration,expiration
78,0.15,25,down,down,0.4291630000000168,0.9439343059591015,,psi_staircase_training,cRDM,,0.13171935207845895,0.13533374053399866,0.0547536618894971,481.34551149999993,1001,26,female,True,4813,4817,False,False,trough,inspiration
79,0.15,25,down,down,0.4899026000000504,0.7945028910752924,,psi_staircase_training,cRDM,,0.12929436529686736,0.1327962158575306,0.053048847389999335,482.82876739999983,1001,26,female,True,4827,4832,False,False,expiration,expiration
80,0.15,25,up,up,0.4535705999999209,1.8613799656648635,,psi_staircase_training,cRDM,,0.12738513040789232,0.13074751606858664,0.050936120971053885,485.4620808999999,1001,26,female,True,4854,4859,False,False,expiration,inspiration
81,0.14,25,up,up,0.6500575000000026,0.64846643683654,,psi_staircase_training,cRDM,,0.12593233770153947,0.12913824273824556,0.04856562668592039,486.8286225,1001,26,female,True,4867,4874,False,False,inspiration,expiration
82,100.0,25,M,up,0.619791700000178,0.8288001969543104,,psi_staircase,emotion,,100.0,100.0,25.00050000000001,514.3609388,1001,26,female,True,5143,5149,False,False,expiration,expiration
83,55.0,25,M,down,0.5004519999999957,0.7541443039744703,,psi_staircase,emotion,,54.742809467541896,54.742809467541896,25.00050000000011,516.0942178999999,1001,26,female,True,5160,5165,False,False,expiration,inspiration
84,79.0,25,F,down,0.623848100000032,1.2753136606425954,,psi_staircase,emotion,,79.636070985635,79.636070985635,25.71326925488641,518.2107933,1001,26,female,True,5181,5187,False,False,expiration,expiration
85,103.0,25,F,down,0.5156486000000768,1.6707996536818641,,psi_staircase,emotion,,97.61123893914808,97.61123893914808,26.1463337262867,520.8609666999998,1001,26,female,True,5208,5213,False,False,expiration,inspiration
86,127.0,25,M,up,0.8723368000000846,0.5861378280885442,,psi_staircase,emotion,,117.15641007867752,117.15641007867752,31.432291447829705,522.3273042999998,1001,26,female,True,5222,5231,False,False,inspiration,inspiration
87,116.0,25,F,up,0.4471340000000055,1.4748013089571912,,psi_staircase,emotion,,105.03864224082596,105.03864224082596,29.69406400548579,525.0105397999998,1001,26,female,True,5249,5253,False,False,expiration,expiration
88,88.0,25,M,up,1.0399222999999438,1.2399956948021822,,psi_staircase,emotion,,98.16151255584974,98.16151255584974,27.87588470540113,527.0607372,1001,26,female,True,5270,5280,False,False,inspiration,expiration
89,74.0,25,F,down,0.4699677999999494,1.105116603949351,,psi_staircase,emotion,,88.18732141252634,88.18732141252634,31.080646395593387,529.5937159,1001,26,female,True,5295,5300,False,False,expiration,expiration
90,76.0,25,F,up,0.5589889999998832,0.8957410993117967,,psi_staircase,emotion,,92.88252185135836,92.88252185135836,29.457244424775986,531.2936551,1001,26,female,True,5312,5318,False,False,inspiration,expiration
91,65.0,25,M,down,0.6190905999999359,0.6358993252446428,,psi_staircase,emotion,,84.51084486048862,84.51084486048862,33.104231703733696,532.8435814,1001,26,female,True,5327,5333,False,False,expiration,expiration
92,106.0,25,F,up,0.5548518999999033,1.507624354610321,,psi_staircase,emotion,,87.7781736624017,87.7781736624017,31.880829427274104,535.3268185,1001,26,female,True,5352,5358,False,False,peak,expiration
93,64.0,25,F,down,0.4792772000000696,1.7886761120314223,,psi_staircase,emotion,,84.90636884562544,84.90636884562544,30.696428813971647,538.0433965,1001,26,female,True,5379,5384,False,False,inspiration,inspiration
94,107.0,25,F,up,0.5956550999999308,1.2835886324278527,,psi_staircase,emotion,,87.23871846198497,87.23871846198497,29.358935388628932,540.1599974999998,1001,26,female,True,5401,5407,False,False,expiration,inspiration
95,64.0,25,M,down,0.5130977000001167,1.1952670746059462,,psi_staircase,emotion,,85.15302648438887,85.15302648438887,28.050273835805807,542.2765761999998,1001,26,female,True,5422,5427,False,False,expiration,expiration
96,105.0,25,M,up,0.6595618000001195,1.9251679381923463,,psi_staircase,emotion,,86.88252861696476,86.88252861696476,26.663625617831453,545.0600732999999,1001,26,female,True,5450,5457,False,False,inspiration,inspiration
97,65.0,25,F,down,0.5539668999999776,1.6566827936547874,,psi_staircase,emotion,,85.17241641577941,85.17241641577941,25.30253310286181,547.7097018999999,1001,26,female,True,5476,5482,False,False,expiration,expiration
98,102.0,25,F,up,0.5297453999999107,1.5315586472159377,,psi_staircase,emotion,,86.50552554629385,86.50552554629385,23.925703853954435,550.1429437999999,1001,26,female,True,5501,5506,False,False,inspiration,expiration
99,66.0,25,M,down,0.5164235999998255,0.6252909975978824,,psi_staircase,emotion,,85.00724759387073,85.00724759387073,22.572194063922147,551.6761973999999,1001,26,female,True,5516,5521,False,False,expiration,expiration
100,95.0,25,M,down,0.6958517999999003,1.8877599528659923,,psi_staircase,emotion,,86.03632521990221,86.03632521990221,21.2650918995697,554.4580126999998,1001,26,female,True,5544,5551,False,False,expiration,expiration
101,111.0,25,M,down,0.7019586000001254,0.3509199844733633,,psi_staircase,emotion,,89.54614814193957,89.54614814193957,23.888688880306553,555.8746549999998,1001,26,female,True,5558,5565,False,False,expiration,expiration
102,120.0,25,M,up,0.7310734999998658,1.2195542325891884,,psi_staircase,emotion,,93.68483447749466,93.68483447749466,29.124364928004173,558.1415221,1001,26,female,True,5581,5588,False,False,peak,expiration
103,119.0,25,F,up,0.4710794999998598,1.5560230125835053,,psi_staircase,emotion,,92.65070429036548,92.65070429036548,28.04236414254268,560.7925938999998,1001,26,female,True,5607,5612,False,False,inspiration,peak
104,67.0,25,F,down,0.7798961000000872,1.7905190356496177,,psi_staircase,emotion,,91.78134052341132,91.78134052341132,27.03500875922326,563.4257886,1001,26,female,True,5633,5641,False,False,expiration,inspiration
105,118.0,25,F,up,0.5882971999999427,0.8857266590233037,,psi_staircase,emotion,,92.62531522203743,92.62531522203743,26.03958443931829,565.4423754,1001,26,female,True,5653,5659,False,False,expiration,expiration
106,68.0,25,M,down,0.6060374000001048,1.2360486979257157,,psi_staircase,emotion,,91.8902110238108,91.8902110238108,25.080785998506716,567.6256246,1001,26,female,True,5675,5681,False,False,trough,inspiration
107,117.0,25,M,up,0.4897443999998359,1.925820359992016,,psi_staircase,emotion,,92.6141124420014,92.6141124420014,24.144171186704373,570.5088879,1001,26,female,True,5704,5709,False,False,expiration,expiration
108,70.0,25,F,down,0.4814802999999301,1.5895291144406818,,psi_staircase,emotion,,91.98807750228886,91.98807750228886,23.261119878985518,572.9421688999997,1001,26,female,True,5729,5734,False,False,expiration,expiration
109,115.0,25,F,up,0.6532952000000023,1.3009447845618534,,psi_staircase,emotion,,92.646445472056,92.646445472056,22.394755923311514,575.0753763999999,1001,26,female,True,5750,5757,False,False,expiration,expiration
110,72.0,25,M,down,0.4950687000000471,1.4828818507482848,,psi_staircase,emotion,,92.07873277797384,92.07873277797384,21.590677435784023,577.5586295999999,1001,26,female,True,5775,5780,False,False,inspiration,expiration
111,73.0,25,M,down,0.9615112999999836,1.0563350285256752,,psi_staircase,emotion,,92.68937314388671,92.68937314388671,20.806435508417554,579.4752040999998,1001,26,female,True,5794,5804,False,False,expiration,inspiration
112,113.0,25,F,up,0.4634926999999607,0.3299670398576828,,psi_staircase,emotion,,93.23424066233149,93.23424066233149,20.09628418432056,581.125145,1001,26,female,True,5810,5815,False,False,expiration,expiration
113,75.0,25,M,up,0.5418766999998752,0.9863276417340516,,psi_staircase,emotion,,92.709619646543,92.709619646543,19.39589500877707,582.9417286999999,1001,26,female,True,5828,5833,False,False,inspiration,inspiration
114,113.0,25,F,up,0.5466352000000825,0.5033447858456433,,psi_staircase,emotion,,90.34431855963707,90.34431855963707,22.224541678096507,584.3250208,1001,26,female,True,5842,5847,False,False,expiration,expiration
115,67.0,25,M,down,0.610445000000027,1.785971362840835,,psi_staircase,emotion,,89.87716820155939,89.87716820155939,21.542188746634594,587.0082502999999,1001,26,female,True,5869,5875,False,False,inspiration,expiration
116,111.0,25,F,up,0.5432186000000456,1.0881977289106253,,psi_staircase,emotion,,90.30859126675597,90.30859126675597,20.897206533104185,589.0584446,1001,26,female,True,5890,5895,False,False,inspiration,inspiration
117,69.0,25,M,down,0.7695599999999558,1.2438563835933163,,psi_staircase,emotion,,89.85787195465502,89.85787195465502,20.285506288055373,591.2080923999998,1001,26,female,True,5911,5919,False,False,inspiration,expiration
118,110.0,25,F,up,0.6633085999999366,1.7657962074302735,,psi_staircase,emotion,,90.27295872488578,90.27295872488578,19.711030525900046,594.0913416999998,1001,26,female,True,5940,5947,False,False,expiration,expiration
119,70.0,25,M,down,0.582088499999827,1.3690682238091116,,psi_staircase,emotion,,89.85540889146006,89.85540889146006,19.171920119786577,596.4745634999998,1001,26,female,True,5964,5970,False,False,inspiration,expiration
120,108.0,25,M,up,0.4341415000001234,0.8153344043278039,,psi_staircase,emotion,,90.2382784125962,90.2382784125962,18.66969288444035,598.2245192999999,1001,26,female,True,5981,5985,False,False,expiration,expiration
121,72.0,25,F,down,0.5312083999999686,1.0559485726305755,,psi_staircase,emotion,,89.81884289049309,89.81884289049309,18.188860694778977,600.0744941999999,1001,26,female,True,6000,6005,False,False,inspiration,inspiration
122,106.0,25,F,down,0.8579506999999467,1.0356280696145042,,psi_staircase,emotion,,90.20344855612171,90.20344855612171,17.743681240422713,601.9910344999997,1001,26,female,True,6019,6028,False,False,expiration,expiration
123,72.0,25,F,down,0.5057014999999865,0.6068273233776296,,psi_staircase,emotion,,92.02571457479908,92.02571457479908,19.572366264767922,603.7909886,1001,26,female,True,6037,6042,False,False,expiration,expiration
124,112.0,25,M,down,0.5650554999999713,0.9552592246958812,,psi_staircase,emotion,,92.3675928131371,92.3675928131371,19.116058638863315,605.6075586000001,1001,26,female,True,6055,6061,False,False,expiration,expiration
125,118.0,25,M,down,0.6184791000000587,1.138032426197847,,psi_staircase,emotion,,94.1826549723876,94.1826549723876,21.479206140272517,607.6741617999999,1001,26,female,True,6076,6082,False,False,expiration,expiration
126,124.0,25,F,down,0.6015669999999318,1.0259831835468562,,psi_staircase,emotion,,96.11114705724243,96.11114705724243,24.574428336045003,609.6740981,1001,26,female,True,6096,6102,False,False,expiration,expiration
127,129.0,25,F,up,0.7289871000000403,1.9633046023076604,,psi_staircase,emotion,,98.23951490999828,98.23951490999828,28.28575407031066,612.5906424999997,1001,26,female,True,6125,6132,False,False,expiration,expiration
128,129.0,25,F,up,0.5427551000000221,1.4647886293949268,,psi_staircase,emotion,,97.84891915572331,97.84891915572331,27.647949359696177,615.1238833,1001,26,female,True,6150,6155,False,False,expiration,expiration
129,128.0,25,M,up,0.4711801000000833,1.3106872448371931,,psi_staircase,emotion,,97.5043468467922,97.5043468467922,27.05505705654399,617.3404452000001,1001,26,female,True,6172,6177,False,False,expiration,expiration
130,127.0,25,M,up,0.5695713000000069,1.8371683288449567,,psi_staircase,emotion,,97.1858966926153,97.1858966926153,26.494452926094237,620.0070337999998,1001,26,female,True,6199,6205,False,False,expiration,expiration
131,68.0,25,M,down,1.3766537000001335,1.8284619972856464,,psi_staircase,emotion,,96.88972808917951,96.88972808917951,25.96491878455073,622.7569916999997,1001,26,female,True,6227,6241,False,False,expiration,expiration
132,0.29,25,up,up,0.4220262999999704,0.5039197266378258,,psi_staircase,cRDM,,0.25,0.25693124029946324,0.10500000000000002,630.6066274,1001,26,female,True,6305,6309,False,False,expiration,expiration
133,0.25,25,up,up,0.499048299999913,1.5616573327130783,,psi_staircase,cRDM,,0.21910266653183127,0.2260132002683493,0.10468632033873933,632.8565896000001,1001,26,female,True,6328,6333,False,False,inspiration,inspiration
134,0.21,25,down,down,0.4168862999999874,1.6672641536456752,,psi_staircase,cRDM,,0.1900540959403307,0.19684979615540016,0.10294672984249993,635.2897851,1001,26,female,True,6352,6356,False,False,expiration,inspiration
135,0.18,25,down,up,0.7769419000001108,1.6774437842629897,,psi_staircase,cRDM,,0.1635257589279754,0.1701521334256793,0.100381647756865,637.6397121,1001,26,female,True,6376,6384,False,False,expiration,expiration
136,0.28,25,up,up,0.957675399999971,0.9427894259166096,,psi_staircase,cRDM,,0.2462894156509761,0.25367687443104303,0.11191116429293203,639.6229856000001,1001,26,female,True,6395,6405,False,False,expiration,inspiration
137,0.26,25,down,down,0.4551128999999037,1.8519769373986008,,psi_staircase,cRDM,,0.2240209245171441,0.23127202108978026,0.10984543995477343,642.6895192000001,1001,26,female,True,6426,6431,False,False,expiration,expiration
138,0.23,25,up,up,0.4328706999999668,0.6186974352369706,,psi_staircase,cRDM,,0.2047781477371872,0.21182460465655809,0.10674539397966608,644.022786,1001,26,female,True,6439,6443,False,False,expiration,expiration
139,0.23,25,down,down,0.4868701999998848,0.360669671615647,,psi_staircase,cRDM,,0.1874201716315257,0.19431844658589745,0.10450061445209473,645.0727657999997,1001,26,female,True,6450,6455,False,False,inspiration,inspiration
140,0.21,25,down,up,1.0197134000000003,1.111791984513859,,psi_staircase,cRDM,,0.17345971586379055,0.18012712878884973,0.10100333084475896,646.9398913,1001,26,female,True,6469,6479,False,False,expiration,inspiration
141,0.26,25,up,up,0.5976892000001044,1.5709835914609358,,psi_staircase,cRDM,,0.2258097884912943,0.2328763215733389,0.1070495238308419,649.8059423,1001,26,female,True,6497,6503,False,False,inspiration,expiration
142,0.25,25,down,down,0.4281006000001071,0.7044596169200008,,psi_staircase,cRDM,,0.21245083561372907,0.21918585513658664,0.10202748993636902,651.3725181,1001,26,female,True,6513,6517,False,False,expiration,expiration
143,0.25,25,down,down,0.9835359000001064,1.7677963545278377,,psi_staircase,cRDM,,0.20179399377515586,0.2081851447054985,0.09681829206497787,653.8390857999999,1001,26,female,True,6538,6548,False,False,expiration,expiration
144,0.23,25,down,down,0.5279195999999047,0.3576005866167074,,psi_staircase,cRDM,,0.1938748209560492,0.1999007112534839,0.0912850303688999,655.4557302999998,1001,26,female,True,6554,6559,False,False,expiration,inspiration
145,0.2,25,up,up,0.5553685000002133,1.827194567779484,,psi_staircase,cRDM,,0.18598634501740344,0.1918446053558967,0.08874563699507391,658.0722753999999,1001,26,female,True,6580,6586,False,False,expiration,expiration
146,0.19,25,up,up,0.5854451999998673,1.9725393488674232,,psi_staircase,cRDM,,0.17355813593635314,0.18001878386925732,0.09787108852761432,660.8721862999997,1001,26,female,True,6608,6614,False,False,expiration,expiration
147,0.19,25,down,down,0.6258978999999272,1.3140270385553159,,psi_staircase,cRDM,,0.1601739738030281,0.16729058465241847,0.10780814210753192,663.0397456999998,1001,26,female,True,6630,6636,False,False,inspiration,expiration
148,0.18,25,down,down,0.6789507000000867,1.317032343809751,,psi_staircase,cRDM,,0.14736834202220764,0.15498962800213134,0.1154533666873386,665.2386598999999,1001,26,female,True,6652,6659,False,False,expiration,inspiration
149,0.17,25,up,up,0.6383160000000316,1.6733026098520327,,psi_staircase,cRDM,,0.1349669468861356,0.14302127503707335,0.1220134376114408,667.8552797,1001,26,female,True,6678,6684,False,False,expiration,expiration
150,0.17,25,up,up,0.5861204000000271,1.3701407916641553,,psi_staircase,cRDM,,0.12343077988634525,0.13180990461228442,0.1269337172297641,670.1385163,1001,26,female,True,6701,6707,False,False,inspiration,peak
151,0.16,25,up,up,0.8798555000000761,1.3458274341075005,,psi_staircase,cRDM,,0.11339787645950287,0.121952962690644,0.12959932356397744,672.3217817000001,1001,26,female,True,6722,6731,False,False,expiration,expiration
152,0.15,25,up,down,0.6599621000000297,1.3649814244699323,,psi_staircase,cRDM,,0.10442362781373246,0.11306128567253795,0.13085018495821168,674.8216666999998,1001,26,female,True,6747,6754,False,False,peak,expiration
153,0.19,25,down,down,0.8004261000000952,1.3976028621918244,,psi_staircase,cRDM,,0.13514772184110588,0.14378514357676192,0.13084660797492678,677.1382206999998,1001,26,female,True,6770,6778,False,False,expiration,inspiration
154,0.16,25,down,down,0.6050967999999557,1.008453056503819,,psi_staircase,cRDM,,0.12725555465148142,0.13600682391288976,0.13257126181572906,679.2215174999999,1001,26,female,True,6791,6797,False,False,expiration,expiration
155,0.15,25,down,up,0.5998286999999891,1.5727813382302285,,psi_staircase,cRDM,,0.11868887736530885,0.127680665149673,0.13621482975151594,681.6547682999999,1001,26,female,True,6816,6822,False,False,inspiration,inspiration
156,0.19,25,up,up,0.5399577000000589,0.3012151131247876,,psi_staircase,cRDM,,0.1443903132565781,0.15275218926430878,0.1266724197802969,682.8046932,1001,26,female,True,6827,6832,False,False,expiration,expiration
157,0.19,25,up,up,0.6217144000002008,1.932241567829512,,psi_staircase,cRDM,,0.13765375707586028,0.14606295532740216,0.12738929517135225,685.5379062000001,1001,26,female,True,6854,6860,False,False,inspiration,inspiration
158,0.14,25,down,down,0.6444688999999926,1.8863333623008107,,psi_staircase,cRDM,,0.1320197666839435,0.140396134303392,0.1268919503642372,688.3211604999998,1001,26,female,True,6882,6888,False,False,expiration,expiration
159,0.14,25,down,down,0.5541496999999254,1.2232984768292516,,psi_staircase,cRDM,,0.12381211234388798,0.13264182210549494,0.13375954157014713,690.4544463,1001,26,female,True,6904,6910,False,False,expiration,expiration
160,0.14,25,up,up,0.6013712000001306,1.4398543882135515,,psi_staircase,cRDM,,0.11618099030618945,0.1253526700207729,0.1389399773235156,692.7043082,1001,26,female,True,6926,6932,False,False,inspiration,peak
161,0.14,25,up,up,0.5617136999999275,1.9018080935728081,,psi_staircase,cRDM,,0.10921376823754,0.11863139816885933,0.14266582892315874,695.4708925999997,1001,26,female,True,6954,6960,False,False,inspiration,inspiration
162,0.14,25,down,up,0.8923792000000503,0.7510930148800863,,psi_staircase,cRDM,,0.10291259242452076,0.11249828400594647,0.14521176190178273,697.0544599,1001,26,female,True,6970,6979,False,False,expiration,expiration
163,0.14,25,up,up,0.4932272000000921,0.8359203112281222,,psi_staircase,cRDM,,0.12246480813387516,0.13168143049903844,0.13962080472337474,699.0374127999999,1001,26,female,True,6989,6994,False,False,inspiration,inspiration
164,0.14,25,down,down,0.6895948999999746,1.3183985868565973,,psi_staircase,cRDM,,0.11588520253542466,0.12535754678126762,0.14349468534376608,701.1040292,1001,26,female,True,7010,7017,False,False,expiration,inspiration
165,0.14,25,up,up,0.7050091999999495,1.8072388462619957,,psi_staircase,cRDM,,0.10985028216202224,0.1195082925584427,0.14630730544758022,703.8706133999998,1001,26,female,True,7038,7045,False,False,expiration,inspiration
166,0.14,25,down,up,1.3180753999999981,0.6393980259655994,,psi_staircase,cRDM,,0.10433454916523503,0.11412349376831267,0.14829080206651396,705.4705463999999,1001,26,female,True,7054,7067,False,False,expiration,expiration
167,0.14,25,up,down,1.0295611999999892,1.6411568988848877,,psi_staircase,cRDM,,0.1216106555361098,0.13109425611360742,0.14366520530450516,708.6870721999999,1001,26,female,True,7086,7096,False,False,expiration,expiration
168,0.2,25,down,down,0.5509461999999985,1.5783430404311372,,psi_staircase,cRDM,,0.13865680762450072,0.14758206128936804,0.13520691742337082,711.5536611,1001,26,female,True,7115,7121,False,False,expiration,expiration
169,0.2,25,up,up,0.5087316999999985,1.7650592136637966,,psi_staircase,cRDM,,0.13496691239410386,0.1437637376175465,0.1332613801505342,714.1368811999997,1001,26,female,True,7141,7146,False,False,inspiration,expiration
170,0.14,25,up,up,0.5757662999999411,0.834910542040513,,psi_staircase,cRDM,,0.13182874472583786,0.14047115445146266,0.13092217005676124,715.7368283999998,1001,26,female,True,7157,7163,False,False,expiration,expiration
171,0.14,25,down,down,0.7245505999999295,1.8879635920263296,,psi_staircase,cRDM,,0.1258313154017534,0.13483858290939854,0.13644932904374632,718.470067,1001,26,female,True,7184,7191,False,False,inspiration,expiration
172,0.14,25,down,down,0.5129998999998406,0.3829942368033814,,psi_staircase,cRDM,,0.1202159999827433,0.12950356933494084,0.14069556671643013,719.8366424999998,1001,26,female,True,7197,7202,False,False,expiration,expiration
173,0.13,25,down,down,0.9333447999999862,1.198143013038956,,psi_staircase,cRDM,,0.11500234791315805,0.1245012403343378,0.1438968584455378,721.803246,1001,26,female,True,7217,7226,False,False,expiration,expiration
174,0.13,25,up,up,0.5214508999999907,1.286293710667251,,psi_staircase,cRDM,,0.10997703643876593,0.1196617944400436,0.1467124996680466,724.3031669,1001,26,female,True,7242,7247,False,False,inspiration,peak
175,0.13,25,up,up,0.5822135999999318,1.9390411519765267,,psi_staircase,cRDM,,0.10529576040436296,0.11512153417895132,0.14884871996310262,727.0363906999999,1001,26,female,True,7269,7275,False,False,expiration,inspiration
176,0.13,25,down,up,0.7189095999999608,0.3484847871510289,,psi_staircase,cRDM,,0.10093240073052534,0.1108649809715074,0.1504667101765143,728.2196928999998,1001,26,female,True,7281,7288,False,False,inspiration,expiration
177,0.13,25,down,up,1.414083199999823,1.933650234398241,,psi_staircase,cRDM,,0.11432599820902956,0.12399273283154826,0.14643946703782024,731.1365498,1001,26,female,True,7311,7325,False,False,trough,expiration
178,0.13,25,down,down,0.5941483999999946,0.7049038290639621,,psi_staircase,cRDM,,0.12764699271694085,0.13690291090395354,0.14021608942220565,733.5194695,1001,26,female,True,7334,7340,False,False,expiration,inspiration
179,0.13,25,up,up,0.6929056999999829,1.5242726856565862,,psi_staircase,cRDM,,0.12284572615653955,0.1323190870754005,0.14351008672393395,735.9027182999997,1001,26,female,True,7358,7365,False,False,expiration,expiration
180,0.13,25,up,up,0.5844074999999975,1.5611596491422124,,psi_staircase,cRDM,,0.11828559328311206,0.12792983471397765,0.1460987220886432,738.436228,1001,26,female,True,7384,7390,False,False,inspiration,expiration
181,0.13,25,up,up,0.6287525000000187,1.8994537750791445,,psi_staircase,cRDM,,0.11396344425415245,0.1237423882070444,0.14813930417809446,741.1858694,1001,26,female,True,7411,7417,False,False,inspiration,expiration
182,107.0,25,F,up,1.0397382000001016,1.8761673841852675,,experiment,emotion,0.0,,,,749.3188946999999,1001,26,female,True,7492,7502,False,False,expiration,inspiration
183,87.0,25,M,up,1.039809500000047,0.623125543654375,,experiment,emotion,0.0,,,,751.2688060999999,1001,26,female,True,7512,7522,False,False,expiration,trough
184,100.0,25,F,up,0.5445427999998174,0.8904630300066547,,experiment,emotion,0.0,,,,753.5020612999998,1001,26,female,True,7534,7539,False,False,expiration,expiration
185,107.0,25,M,up,0.6010008000000653,1.5935438195075904,,experiment,emotion,0.0,,,,755.9186431999998,1001,26,female,True,7558,7564,False,False,inspiration,inspiration
186,100.0,25,F,up,0.5090540000001056,0.5497681414406399,,experiment,emotion,0.0,,,,757.3355386999998,1001,26,female,True,7573,7578,False,False,expiration,expiration
187,93.0,25,F,up,0.5587318000000323,1.536695282573058,,experiment,emotion,0.0,,,,759.6518779999999,1001,26,female,True,7596,7602,False,False,expiration,expiration
188,87.0,25,M,up,0.6408419000001686,0.3714795178027618,,experiment,emotion,0.0,,,,760.8518277999998,1001,26,female,True,7608,7614,False,False,expiration,inspiration
189,93.0,25,F,up,0.6318638000000192,1.9369461920209177,,experiment,emotion,0.0,,,,763.7017168,1001,26,female,True,7636,7642,False,False,expiration,expiration
190,107.0,25,M,up,0.4429589000001215,1.6492010096335148,,experiment,emotion,0.0,,,,766.2516361,1001,26,female,True,7662,7666,False,False,expiration,expiration
191,93.0,25,M,up,0.4001710999998522,0.7971829662780386,,experiment,emotion,0.0,,,,767.7682245999998,1001,26,female,True,7677,7681,False,False,expiration,inspiration
192,100.0,25,F,up,0.6494502000000466,0.9014004445826864,,experiment,emotion,0.0,,,,769.3681637999997,1001,26,female,True,7693,7699,False,False,expiration,expiration
193,107.0,25,M,up,0.5531780000001163,1.075194306444584,,experiment,emotion,0.0,,,,771.3514375999997,1001,26,female,True,7713,7719,False,False,inspiration,inspiration
194,100.0,25,M,up,0.7336104999999407,1.3385185769529304,,experiment,emotion,0.0,,,,773.5179926999998,1001,26,female,True,7734,7741,False,False,expiration,inspiration
195,87.0,25,M,down,0.6403023000000303,0.7650824799741529,,experiment,emotion,0.0,,,,775.3012732000001,1001,26,female,True,7752,7758,False,False,expiration,expiration
196,93.0,25,F,down,1.0714308999999955,1.9417921200005683,,experiment,emotion,0.0,,,,778.1511836,1001,26,female,True,7781,7792,False,False,inspiration,expiration
197,87.0,25,F,up,0.6279293000000052,1.9375721988930417,,experiment,emotion,0.0,,,,781.4177013999998,1001,26,female,True,7813,7819,False,False,inspiration,expiration
198,107.0,25,M,up,0.4806083999999373,0.5198795683446067,,experiment,emotion,0.0,,,,782.8510243999998,1001,26,female,True,7828,7833,False,False,expiration,inspiration
199,87.0,25,M,up,0.720041700000138,1.5695495228523069,,experiment,emotion,0.0,,,,785.1675690000001,1001,26,female,True,7851,7858,False,False,expiration,expiration
200,100.0,25,F,up,0.4528046000000359,0.8131407404787969,,experiment,emotion,0.0,,,,787.0008516999999,1001,26,female,True,7869,7874,False,False,inspiration,expiration
201,100.0,25,F,up,0.43585589999997865,0.3368804405180965,,experiment,emotion,0.0,,,,788.05081,1001,26,female,True,7880,7884,False,False,expiration,expiration
202,93.0,25,M,up,0.8349623000001429,1.488015192231624,,experiment,emotion,0.0,,,,790.2346531999998,1001,26,female,True,7902,7910,False,False,peak,expiration
203,93.0,25,F,up,0.6146202999998422,0.9483298495379608,,experiment,emotion,0.0,,,,792.2839908999997,1001,26,female,True,7922,7928,False,False,inspiration,inspiration
204,87.0,25,M,up,0.4579942000000301,0.8829944414779474,,experiment,emotion,0.0,,,,794.0505995999998,1001,26,female,True,7940,7945,False,False,expiration,expiration
205,107.0,25,F,up,0.6271523000000343,1.4166428244728542,,experiment,emotion,0.0,,,,796.2005103999996,1001,26,female,True,7961,7967,False,False,expiration,expiration
206,100.0,25,F,up,0.4861863999999514,1.2481352219051118,,experiment,emotion,0.0,,,,798.3504417000001,1001,26,female,True,7983,7988,False,False,inspiration,peak
207,87.0,25,M,down,1.0479973999999856,1.9746051363225143,,experiment,emotion,0.0,,,,801.0836644999997,1001,26,female,True,8010,8020,False,False,inspiration,expiration
208,107.0,25,M,up,0.6407023000001573,1.6087556326691803,,experiment,emotion,0.0,,,,804.0168950999997,1001,26,female,True,8039,8045,False,False,inspiration,expiration
209,107.0,25,F,up,0.6308217999999215,0.4835155560276617,,experiment,emotion,0.0,,,,805.4168324,1001,26,female,True,8053,8059,False,False,expiration,expiration
210,93.0,25,M,up,0.7548937000001388,0.6907786706597823,,experiment,emotion,0.0,,,,807.0167755,1001,26,female,True,8069,8077,False,False,inspiration,expiration
211,87.0,25,F,up,0.8279121999999006,1.2291916604736208,,experiment,emotion,0.0,,,,809.2666966999997,1001,26,female,True,8092,8100,False,False,inspiration,inspiration
212,93.0,25,M,up,0.7186221000001751,1.4750315681398436,,experiment,emotion,0.0,,,,811.8499696000001,1001,26,female,True,8118,8125,False,False,expiration,inspiration
213,100.0,25,F,up,0.6981014999996661,0.5137376492664014,,experiment,emotion,0.0,,,,813.3665282999997,1001,26,female,True,8133,8140,False,False,expiration,expiration
214,87.0,25,M,up,0.6834209000003284,0.4111141909205812,,experiment,emotion,0.0,,,,814.7331496999997,1001,26,female,True,8147,8154,False,False,expiration,inspiration
215,107.0,25,F,up,0.4775239000000511,0.5385935988787885,,experiment,emotion,0.0,,,,816.2330768999997,1001,26,female,True,8162,8167,False,False,peak,expiration
216,100.0,25,M,up,0.5456403000002865,1.5563718276865102,,experiment,emotion,0.0,,,,818.5330017999997,1001,26,female,True,8184,8189,False,False,inspiration,inspiration
217,107.0,25,F,up,0.4969654000001356,0.5003807641236286,,experiment,emotion,0.0,,,,819.8496616,1001,26,female,True,8198,8203,False,False,expiration,expiration
218,87.0,25,M,up,1.8186903000000711,1.5177555097235962,,experiment,emotion,0.0,,,,822.1328587999999,1001,26,female,True,8220,8238,False,False,inspiration,expiration
219,100.0,25,F,down,1.6978141999998115,0.7427851124571436,,experiment,emotion,0.0,,,,824.9827693999997,1001,26,female,True,8249,8266,False,False,inspiration,expiration
220,93.0,25,M,down,0.7855730000001131,1.7571108062984933,,experiment,emotion,0.0,,,,828.7159705000001,1001,26,female,True,8286,8294,False,False,expiration,expiration
221,93.0,25,F,down,0.96607640000002,1.6246542276851312,,experiment,emotion,0.0,,,,831.3825312999999,1001,26,female,True,8313,8323,False,False,expiration,expiration
222,100.0,25,F,down,0.5737627000003158,0.3520579176599152,,experiment,emotion,0.0,,,,832.9658231000002,1001,26,female,True,8329,8335,False,False,expiration,inspiration
223,107.0,25,M,up,1.4018534000001637,1.4496688450222426,,experiment,emotion,0.0,,,,835.2657060999996,1001,26,female,True,8352,8366,False,False,expiration,inspiration
224,93.0,25,F,up,0.6286350999998831,1.655620654774301,,experiment,emotion,0.0,,,,838.5989306999996,1001,26,female,True,8385,8391,False,False,expiration,inspiration
225,87.0,25,M,up,1.9544473000000837,1.429763807204645,,experiment,emotion,0.0,,,,840.9321656999997,1001,26,female,True,8408,8428,False,False,expiration,inspiration
226,87.0,25,M,down,1.5758762999998908,0.9442872163337348,,experiment,emotion,0.0,,,,844.0987303999997,1001,26,female,True,8440,8456,False,False,expiration,expiration
227,93.0,25,F,up,0.7154410999996799,0.6757522084952017,,experiment,emotion,0.0,,,,846.6153002999997,1001,26,female,True,8465,8472,False,False,inspiration,expiration
228,107.0,25,F,up,0.6099586999998792,0.3286638330788585,,experiment,emotion,0.0,,,,847.9486227999997,1001,26,female,True,8479,8485,False,False,expiration,expiration
229,100.0,25,M,up,0.4733780000001389,0.4243757095169368,,experiment,emotion,0.0,,,,849.2652213999997,1001,26,female,True,8492,8497,False,False,trough,inspiration
230,87.0,25,F,down,0.8660460999999486,0.7356292010425027,,experiment,emotion,0.0,,,,850.7485323999997,1001,26,female,True,8507,8516,False,False,expiration,expiration
231,107.0,25,M,up,0.7005183000001125,1.3954758911437732,,experiment,emotion,0.0,,,,853.2650535,1001,26,female,True,8532,8539,False,False,inspiration,expiration
232,100.0,25,M,up,0.5789140000001679,0.6332984971077303,,experiment,emotion,0.0,,,,854.8816621999997,1001,26,female,True,8548,8554,False,False,expiration,inspiration
233,100.0,25,M,up,0.3835112000001573,0.8826435516856128,,experiment,emotion,0.0,,,,856.6149244000002,1001,26,female,True,8565,8569,False,False,expiration,expiration
234,87.0,25,M,up,0.42969159999984186,1.1708556555209555,,experiment,emotion,0.0,,,,858.4648774999997,1001,26,female,True,8584,8588,False,False,inspiration,inspiration
235,93.0,25,M,up,0.4717548000003262,0.3932635906314557,,experiment,emotion,0.0,,,,859.5648387999997,1001,26,female,True,8595,8600,False,False,expiration,expiration
236,107.0,25,F,up,0.5634838000000855,1.4477545694509777,,experiment,emotion,0.0,,,,861.7480748999999,1001,26,female,True,8617,8623,False,False,peak,expiration
237,93.0,25,F,up,0.7406246000000465,1.3266754460166206,,experiment,emotion,0.0,,,,863.8979827000002,1001,26,female,True,8638,8645,False,False,inspiration,inspiration
238,93.0,25,F,up,0.5069862000000285,0.6041843419776519,,experiment,emotion,0.0,,,,865.5145878999998,1001,26,female,True,8654,8659,False,False,expiration,expiration
239,93.0,25,M,up,0.8891054999999142,1.5241654479724032,,experiment,emotion,0.0,,,,867.8145041000001,1001,26,female,True,8677,8686,False,False,expiration,expiration
240,107.0,25,F,up,0.7701679000001604,1.6961910280077954,,experiment,emotion,0.0,,,,870.6644097000002,1001,26,female,True,8706,8714,False,False,expiration,expiration
241,100.0,25,F,up,0.997549600000184,1.404133184503129,,experiment,emotion,0.0,,,,873.1310390000001,1001,26,female,True,8730,8740,False,False,peak,expiration
242,87.0,25,F,up,0.4664950999999746,0.742903402019911,,experiment,emotion,0.0,,,,875.1642343000002,1001,26,female,True,8751,8756,False,False,trough,inspiration
243,87.0,25,M,up,0.6550968000001376,0.8606635807733429,,experiment,emotion,0.0,,,,876.7474790999997,1001,26,female,True,8767,8774,False,False,expiration,expiration
244,100.0,25,F,up,0.42880719999993744,1.2064465505242088,,experiment,emotion,0.0,,,,878.8807699000001,1001,26,female,True,8788,8792,False,False,inspiration,inspiration
245,107.0,25,M,up,0.5176107000002048,1.9767912964538583,,experiment,emotion,0.0,,,,881.5640157999999,1001,26,female,True,8815,8820,False,False,expiration,expiration
246,107.0,25,M,up,1.2842977000000246,0.9263151444257685,,experiment,emotion,0.0,,,,883.2972757000001,1001,26,female,True,8832,8845,False,False,inspiration,inspiration
247,87.0,25,F,up,1.4407218999999714,0.6620038248278957,,experiment,emotion,0.0,,,,885.5138423000002,1001,26,female,True,8854,8868,False,False,expiration,expiration
248,107.0,25,M,up,0.42611940000006143,1.097020286309384,,experiment,emotion,0.0,,,,888.3304532999997,1001,26,female,True,8883,8887,False,False,expiration,expiration
249,93.0,25,F,up,0.7179022000000259,0.5715319591325181,,experiment,emotion,0.0,,,,889.6136914000001,1001,26,female,True,8895,8902,False,False,trough,inspiration
250,100.0,25,M,up,0.4419523000001391,1.411349444289033,,experiment,emotion,0.0,,,,892.0136212000001,1001,26,female,True,8919,8923,False,False,expiration,expiration
251,93.0,25,F,up,0.8669806000002609,1.036847783439704,,experiment,emotion,0.0,,,,893.7635577999997,1001,26,female,True,8937,8946,False,False,inspiration,expiration
252,87.0,25,M,up,0.5540760000003502,0.9751260810161556,,experiment,emotion,0.0,,,,895.8634792999999,1001,26,female,True,8958,8964,False,False,expiration,expiration
253,100.0,25,F,up,0.4554622000000563,0.9881659688635502,,experiment,emotion,0.0,,,,897.6800796,1001,26,female,True,8976,8981,False,False,peak,expiration
254,93.0,25,F,down,1.1558391999997184,0.652887490091479,,experiment,emotion,0.0,,,,899.0467265000001,1001,26,female,True,8990,9002,False,False,expiration,inspiration
255,100.0,25,F,up,0.5376784999998563,1.517167510811284,,experiment,emotion,0.0,,,,901.9799286,1001,26,female,True,9019,9024,False,False,expiration,expiration
256,87.0,25,F,up,0.7964336000000003,1.9227617413480087,,experiment,emotion,0.0,,,,904.7131302000001,1001,26,female,True,9046,9054,False,False,expiration,expiration
257,107.0,25,F,up,0.42057040000008783,1.1753553482009629,,experiment,emotion,0.0,,,,906.9630587,1001,26,female,True,9069,9073,False,False,inspiration,inspiration
258,100.0,25,M,up,0.26684049999994386,1.4096855491536524,,experiment,emotion,0.0,,,,909.0629923,1001,26,female,True,9090,9093,False,False,expiration,inspiration
259,107.0,25,M,up,0.38351929999998907,0.7991017449201229,,experiment,emotion,0.0,,,,910.5462707,1001,26,female,True,9105,9109,False,False,expiration,expiration
260,87.0,25,M,up,0.6809997999998814,1.5014861279560818,,experiment,emotion,0.0,,,,912.7295432999997,1001,26,female,True,9127,9134,False,False,inspiration,expiration
261,93.0,25,M,up,0.4707895000001372,0.8728842541020563,,experiment,emotion,0.0,,,,914.5627705999997,1001,26,female,True,9145,9150,False,False,expiration,expiration
262,0.10986752824400793,25,up,up,0.7391452000001664,0.7790627864080744,,experiment,cRDM,0.0,,,,924.812408,1001,26,female,True,9247,9254,False,False,inspiration,expiration
263,0.10986752824400793,25,up,up,0.7169205000000147,1.193430991556388,,experiment,cRDM,0.0,,,,926.9956576999999,1001,26,female,True,9269,9276,False,False,inspiration,inspiration
264,0.10986752824400793,25,down,down,0.63365019999992,0.8150325624002948,,experiment,cRDM,0.0,,,,928.7789242,1001,26,female,True,9287,9293,False,False,expiration,inspiration
265,0.10986752824400793,25,down,up,0.4557033000000956,1.5658473681581386,,experiment,cRDM,0.0,,,,931.2288576,1001,26,female,True,9312,9317,False,False,expiration,inspiration
266,0.10986752824400793,25,up,up,0.4601529999999912,0.9619379628566588,,experiment,cRDM,0.0,,,,932.895455,1001,26,female,True,9328,9333,False,False,expiration,expiration
267,0.10986752824400793,25,down,down,0.6191790999996556,1.4248845293562915,,experiment,cRDM,0.0,,,,935.0453827999997,1001,26,female,True,9350,9356,False,False,expiration,expiration
268,0.10986752824400793,25,up,up,0.5269029999999475,1.3071786391223084,,experiment,cRDM,0.0,,,,937.2286574999999,1001,26,female,True,9372,9377,False,False,inspiration,inspiration
269,0.10986752824400793,25,up,up,0.4913233000002037,1.1415498533748991,,experiment,cRDM,0.0,,,,939.1452329,1001,26,female,True,9391,9396,False,False,expiration,expiration
270,0.10986752824400793,25,down,up,0.9000344000000949,0.5335440296857895,,experiment,cRDM,0.0,,,,940.4285211,1001,26,female,True,9404,9413,False,False,trough,inspiration
271,0.10986752824400793,25,down,up,0.6798701000002438,1.0770195529656221,,experiment,cRDM,0.0,,,,942.6617322999997,1001,26,female,True,9426,9433,False,False,expiration,inspiration
272,0.10986752824400793,25,down,down,0.5561940000002323,1.2787176800396465,,experiment,cRDM,0.0,,,,944.8783235999997,1001,26,female,True,9448,9454,False,False,expiration,expiration
273,0.10986752824400793,25,down,down,0.5263009999998758,0.8298001542028788,,experiment,cRDM,0.0,,,,946.5282885,1001,26,female,True,9465,9470,False,False,inspiration,inspiration
274,0.10986752824400793,25,down,down,0.43005900000025576,0.5941567151460542,,experiment,cRDM,0.0,,,,947.9115172999997,1001,26,female,True,9478,9482,False,False,expiration,expiration
275,0.10986752824400793,25,down,down,0.6061140000001615,1.955137466794212,,experiment,cRDM,0.0,,,,950.5614899,1001,26,female,True,9505,9511,False,False,expiration,expiration
276,0.10986752824400793,25,up,down,0.8708062999999129,0.309854847165123,,experiment,cRDM,0.0,,,,951.7447664,1001,26,female,True,9517,9526,False,False,expiration,inspiration
277,0.10986752824400793,25,up,up,0.7205298999997467,0.9485729098115931,,experiment,cRDM,0.0,,,,953.8280277,1001,26,female,True,9538,9545,False,False,expiration,expiration
278,0.10986752824400793,25,up,up,0.6449701999999888,1.52387578517962,,experiment,cRDM,0.0,,,,956.3445842999997,1001,26,female,True,9563,9569,False,False,inspiration,expiration
279,0.10986752824400793,25,up,up,0.7010726999997132,1.743906852306939,,experiment,cRDM,0.0,,,,958.9944572999999,1001,26,female,True,9589,9596,False,False,inspiration,inspiration
280,0.10986752824400793,25,down,up,0.8928212000000713,0.6273136567575375,,experiment,cRDM,0.0,,,,960.5777329,1001,26,female,True,9605,9614,False,False,expiration,expiration
281,0.10986752824400793,25,up,up,0.5469284000000698,0.34243417805450954,,experiment,cRDM,0.0,,,,962.0776737,1001,26,female,True,9620,9625,False,False,expiration,inspiration
282,0.10986752824400793,25,up,up,0.4469736999999441,1.7227087449927487,,experiment,cRDM,0.0,,,,964.6275964999996,1001,26,female,True,9646,9650,False,False,expiration,inspiration
283,0.10986752824400793,25,down,up,0.5577353999997285,1.3338645068352144,,experiment,cRDM,0.0,,,,966.6608169999997,1001,26,female,True,9666,9672,False,False,expiration,expiration
284,0.10986752824400793,25,up,up,0.7341154000000643,0.9902196915826502,,experiment,cRDM,0.0,,,,968.4774357,1001,26,female,True,9684,9691,False,False,inspiration,inspiration
285,0.10986752824400793,25,down,up,1.2762305999999626,1.4632597982772642,,experiment,cRDM,0.0,,,,970.9273973999999,1001,26,female,True,9709,9722,False,False,expiration,expiration
286,0.10986752824400793,25,down,up,0.6769890000000487,1.6387563236540141,,experiment,cRDM,0.0,,,,974.1105716999997,1001,26,female,True,9740,9747,False,False,expiration,expiration
287,0.10986752824400793,25,up,up,0.6264375000000655,1.6253425550156402,,experiment,cRDM,0.0,,,,976.6771321,1001,26,female,True,9766,9772,False,False,inspiration,expiration
288,0.10986752824400793,25,up,up,0.33388460000014675,1.7334472545072994,,experiment,cRDM,0.0,,,,979.3103482,1001,26,female,True,9792,9795,False,False,trough,inspiration
289,0.10986752824400793,25,down,up,0.4596082999996725,1.6462877566568568,,experiment,cRDM,0.0,,,,981.6269415999997,1001,26,female,True,9816,9821,False,False,expiration,expiration
290,0.10986752824400793,25,up,up,0.41699449999987337,0.8693692708931764,,experiment,cRDM,0.0,,,,983.2268897,1001,26,female,True,9832,9836,False,False,inspiration,peak
291,0.10986752824400793,25,down,up,0.6016703000000234,0.5306523613506314,,experiment,cRDM,0.0,,,,984.426886,1001,26,female,True,9844,9850,False,False,expiration,expiration
292,0.10986752824400793,25,down,down,1.1291214999996555,0.7083678598687286,,experiment,cRDM,0.0,,,,985.9934508999997,1001,26,female,True,9859,9870,False,False,inspiration,expiration
293,0.10986752824400793,25,down,down,0.5058318000001236,1.157476148981401,,experiment,cRDM,0.0,,,,988.5267157,1001,26,female,True,9885,9890,False,False,inspiration,inspiration
294,0.10986752824400793,25,up,down,0.5902054000002863,0.6544312155407135,,experiment,cRDM,0.0,,,,989.9433409,1001,26,female,True,9899,9905,False,False,expiration,expiration
295,0.10986752824400793,25,up,down,0.9210266000000048,1.5725588906944223,,experiment,cRDM,0.0,,,,992.3765489999997,1001,26,female,True,9923,9932,False,False,inspiration,expiration
296,0.10986752824400793,25,up,down,1.1160555999999815,0.3232651085520782,,experiment,cRDM,0.0,,,,993.8765032,1001,26,female,True,9938,9949,False,False,expiration,trough
297,0.10986752824400793,25,down,down,0.7031171000003269,1.155681022542042,,experiment,cRDM,0.0,,,,996.4264216,1001,26,female,True,9964,9971,False,False,expiration,expiration
298,0.10986752824400793,25,down,down,0.6815668999997797,1.50661761151813,,experiment,cRDM,0.0,,,,998.892978,1001,26,female,True,9988,9995,False,False,inspiration,expiration
299,0.10986752824400793,25,up,up,1.1863236999997753,1.3433617329566758,,experiment,cRDM,0.0,,,,1001.1762281,1001,26,female,True,10011,10023,False,False,inspiration,expiration
300,0.10986752824400793,25,down,down,0.803103899999769,0.4944213946920296,,experiment,cRDM,0.0,,,,1003.1094657,1001,26,female,True,10030,10038,False,False,expiration,inspiration
301,0.10986752824400793,25,up,up,0.5994467000000441,0.6642966724421696,,experiment,cRDM,0.0,,,,1004.8260988,1001,26,female,True,10048,10054,False,False,expiration,expiration
302,0.10986752824400793,25,up,up,0.9031577000000652,0.5783899459352935,,experiment,cRDM,0.0,,,,1006.2593881000001,1001,26,female,True,10062,10071,False,False,expiration,inspiration
303,0.10986752824400793,25,up,up,0.6212599000000409,0.4927291279956272,,experiment,cRDM,0.0,,,,1007.9092881999997,1001,26,female,True,10078,10084,False,False,expiration,expiration
304,0.10986752824400793,25,down,down,0.9060062999997172,1.7511339551918828,,experiment,cRDM,0.0,,,,1010.5425822999997,1001,26,female,True,10105,10114,False,False,expiration,expiration
305,0.10986752824400793,25,down,down,1.0187482000001182,1.122678323676254,,experiment,cRDM,0.0,,,,1012.8257965,1001,26,female,True,10128,10138,False,False,inspiration,expiration
306,0.10986752824400793,25,up,up,0.8125011000001905,0.7887159729843036,,experiment,cRDM,0.0,,,,1014.9090209999997,1001,26,female,True,10148,10156,False,False,expiration,inspiration
307,0.10986752824400793,25,down,up,0.6078465000000506,0.5370043222286445,,experiment,cRDM,0.0,,,,1016.5256985999997,1001,26,female,True,10165,10171,False,False,peak,expiration
308,0.10986752824400793,25,down,down,0.7682918000000427,0.8475816091387505,,experiment,cRDM,0.0,,,,1018.2422654,1001,26,female,True,10182,10190,False,False,expiration,inspiration
309,0.10986752824400793,25,up,down,0.638684000000012,0.8332641270849475,,experiment,cRDM,0.0,,,,1020.1088693,1001,26,female,True,10200,10206,False,False,expiration,expiration
310,0.10986752824400793,25,up,up,0.5627984999996443,1.6523488269411746,,experiment,cRDM,0.0,,,,1022.6587822999996,1001,26,female,True,10226,10232,False,False,inspiration,expiration
311,0.10986752824400793,25,down,up,0.6282105999998748,1.4442981901286345,,experiment,cRDM,0.0,,,,1024.9253401,1001,26,female,True,10249,10255,False,False,inspiration,inspiration
312,0.10986752824400793,25,up,up,1.1715566999996554,0.7443717829400545,,experiment,cRDM,0.0,,,,1026.5420094,1001,26,female,True,10265,10277,False,False,expiration,expiration
313,0.10986752824400793,25,down,up,0.6076386999998249,0.6077794036062922,,experiment,cRDM,0.0,,,,1028.5919076999999,1001,26,female,True,10285,10291,False,False,inspiration,expiration
314,0.10986752824400793,25,down,down,0.7433716999998978,0.8671083258804821,,experiment,cRDM,0.0,,,,1030.3251634,1001,26,female,True,10303,10310,False,False,inspiration,inspiration
315,0.10986752824400793,25,down,down,0.5187880999997105,1.222555070793672,,experiment,cRDM,0.0,,,,1032.5417532999998,1001,26,female,True,10325,10330,False,False,expiration,expiration
316,0.10986752824400793,25,up,down,0.5422621999996409,1.4797054211654252,,experiment,cRDM,0.0,,,,1034.8083184999996,1001,26,female,True,10347,10352,False,False,expiration,expiration
317,0.10986752824400793,25,up,up,1.3766212999998968,1.1649154371917625,,experiment,cRDM,0.0,,,,1036.7749228,1001,26,female,True,10367,10381,False,False,inspiration,expiration
318,0.10986752824400793,25,down,up,0.6647106000000349,1.2671130675479354,,experiment,cRDM,0.0,,,,1039.6748059000001,1001,26,female,True,10396,10403,False,False,expiration,inspiration
319,0.10986752824400793,25,down,up,0.6737927000003765,0.41131148206340573,,experiment,cRDM,0.0,,,,1041.0247461,1001,26,female,True,10410,10417,False,False,inspiration,inspiration
320,0.10986752824400793,25,up,up,0.6051624000001539,0.7736795122730965,,experiment,cRDM,0.0,,,,1042.7413814,1001,26,female,True,10427,10433,False,False,inspiration,inspiration
321,0.10986752824400793,25,up,up,0.5642630000002099,0.6244364106244799,,experiment,cRDM,0.0,,,,1044.2413101,1001,26,female,True,10442,10448,False,False,expiration,expiration
322,0.10986752824400793,25,up,up,0.5169895000003635,1.6054807245068954,,experiment,cRDM,0.0,,,,1046.6745430999997,1001,26,female,True,10466,10471,False,False,expiration,expiration
323,0.10986752824400793,25,up,up,0.5627277000003232,1.9218028791442792,,experiment,cRDM,0.0,,,,1049.3578080999996,1001,26,female,True,10493,10499,False,False,inspiration,expiration
324,0.10986752824400793,25,up,up,0.4708239999999933,0.7186987290758264,,experiment,cRDM,0.0,,,,1050.9077214,1001,26,female,True,10508,10513,False,False,expiration,expiration
325,0.10986752824400793,25,down,up,0.4002396999999291,0.7051796001527895,,experiment,cRDM,0.0,,,,1052.3410195999998,1001,26,female,True,10523,10527,False,False,inspiration,inspiration
326,0.10986752824400793,25,down,down,0.5096394999995937,0.9870683802973764,,experiment,cRDM,0.0,,,,1053.9909324999999,1001,26,female,True,10539,10544,False,False,expiration,expiration
327,0.10986752824400793,25,up,up,0.6694062999999915,1.9166707940149696,,experiment,cRDM,0.0,,,,1056.674173,1001,26,female,True,10566,10573,False,False,expiration,expiration
328,0.10986752824400793,25,down,up,0.4517401999996764,0.9860122491298386,,experiment,cRDM,0.0,,,,1058.5907803999999,1001,26,female,True,10585,10590,False,False,inspiration,inspiration
329,0.10986752824400793,25,down,down,0.4854921000001014,0.8802775164875625,,experiment,cRDM,0.0,,,,1060.1740450999996,1001,26,female,True,10601,10606,False,False,expiration,expiration
330,0.10986752824400793,25,down,down,0.7265965999999935,1.0566097735225628,,experiment,cRDM,0.0,,,,1061.9739705,1001,26,female,True,10619,10626,False,False,inspiration,expiration
331,0.10986752824400793,25,up,up,0.6238967000003868,0.5093104053740369,,experiment,cRDM,0.0,,,,1063.4906337999996,1001,26,female,True,10634,10640,False,False,expiration,expiration
332,0.10986752824400793,25,down,down,0.7316829999999754,0.8025975731692223,,experiment,cRDM,0.0,,,,1065.1738725999999,1001,26,female,True,10651,10658,False,False,inspiration,expiration
333,0.10986752824400793,25,down,down,0.6430694000000585,1.363613096156979,,experiment,cRDM,0.0,,,,1067.5404797999997,1001,26,female,True,10675,10681,False,False,inspiration,inspiration
334,0.10986752824400793,25,down,down,0.6028357999998661,1.3157122592315529,,experiment,cRDM,0.0,,,,1069.7736779,1001,26,female,True,10697,10703,False,False,expiration,expiration
335,0.10986752824400793,25,up,down,0.9541683000002196,0.391937116362202,,experiment,cRDM,0.0,,,,1071.0403513,1001,26,female,True,10710,10720,False,False,inspiration,expiration
336,0.10986752824400793,25,up,up,0.6083579999999529,1.71662620172383,,experiment,cRDM,0.0,,,,1073.9901923,1001,26,female,True,10739,10745,False,False,inspiration,peak
337,0.10986752824400793,25,down,up,1.2870928000002095,1.312153864393257,,experiment,cRDM,0.0,,,,1076.1734424999997,1001,26,female,True,10761,10774,False,False,expiration,inspiration
338,0.10986752824400793,25,up,up,0.6625487999999677,1.4627691593263863,,experiment,cRDM,0.0,,,,1079.1900067,1001,26,female,True,10791,10798,False,False,expiration,inspiration
339,0.10986752824400793,25,down,down,0.7022469999997156,0.662785232274973,,experiment,cRDM,0.0,,,,1080.773285,1001,26,female,True,10807,10814,False,False,expiration,expiration
340,0.10986752824400793,25,up,up,1.016609199999948,0.6050128352109603,,experiment,cRDM,0.0,,,,1082.3399230999999,1001,26,female,True,10823,10833,False,False,expiration,inspiration
341,0.10986752824400793,25,up,up,0.7097373999999945,0.9801325031194564,,experiment,cRDM,0.0,,,,1084.5897975,1001,26,female,True,10845,10852,False,False,expiration,expiration
342,107.0,25,M,up,0.9396275999997671,1.1840662317304484,,experiment,emotion,1.0,,,,1092.7728682,1001,26,female,True,10927,10936,False,False,inspiration,expiration
343,87.0,25,M,down,0.6746554999999717,0.7335053333987125,,experiment,emotion,1.0,,,,1094.7228451999997,1001,26,female,True,10947,10954,False,False,expiration,expiration
344,100.0,25,F,down,0.5064947000000757,0.4231634136573277,,experiment,emotion,1.0,,,,1096.1060646999997,1001,26,female,True,10960,10965,False,False,inspiration,inspiration
345,107.0,25,F,down,0.6999329000000216,0.8877382126572371,,experiment,emotion,1.0,,,,1097.7726584999998,1001,26,female,True,10977,10984,False,False,expiration,expiration
346,100.0,25,M,up,1.2005760000001828,1.6584078761979453,,experiment,emotion,1.0,,,,1100.4059154999998,1001,26,female,True,11003,11015,False,False,inspiration,expiration
347,93.0,25,F,down,0.4940458999999464,0.4921093777285082,,experiment,emotion,1.0,,,,1102.3724892999999,1001,26,female,True,11023,11028,False,False,expiration,inspiration
348,87.0,25,M,down,0.6647442000003139,1.6778778504812475,,experiment,emotion,1.0,,,,1104.8057640999998,1001,26,female,True,11047,11054,False,False,expiration,inspiration
349,93.0,25,M,down,0.7385266000001138,1.0016973725438831,,experiment,emotion,1.0,,,,1106.7390032,1001,26,female,True,11067,11074,False,False,expiration,expiration
350,107.0,25,F,down,0.6905940999999984,1.052537163457049,,experiment,emotion,1.0,,,,1108.7889398,1001,26,female,True,11087,11094,False,False,inspiration,inspiration
351,93.0,25,F,down,0.5754210000000057,1.8734201239214272,,experiment,emotion,1.0,,,,1111.6221428,1001,26,female,True,11116,11122,False,False,inspiration,inspiration
352,100.0,25,F,down,0.4561315999999351,1.1898491017916113,,experiment,emotion,1.0,,,,1113.6554204,1001,26,female,True,11136,11141,False,False,expiration,expiration
353,107.0,25,F,up,1.1508485999997902,1.5179334518130871,,experiment,emotion,1.0,,,,1115.8886713999998,1001,26,female,True,11158,11170,False,False,expiration,expiration
354,100.0,25,F,down,0.47766570000021596,0.6637772041393502,,experiment,emotion,1.0,,,,1117.9719217,1001,26,female,True,11179,11184,False,False,inspiration,inspiration
355,87.0,25,F,down,0.4723484999999528,0.67975336785566,,experiment,emotion,1.0,,,,1119.4051791,1001,26,female,True,11193,11198,False,False,expiration,expiration
356,93.0,25,M,down,0.542131000000154,1.977085053853337,,experiment,emotion,1.0,,,,1122.1384130000001,1001,26,female,True,11221,11226,False,False,expiration,expiration
357,87.0,25,M,down,0.3835518000000775,1.4732000140910415,,experiment,emotion,1.0,,,,1124.4216966,1001,26,female,True,11244,11248,False,False,inspiration,expiration
358,107.0,25,M,up,1.1199116999996477,1.1241958629270026,,experiment,emotion,1.0,,,,1126.2216382999998,1001,26,female,True,11262,11273,False,False,expiration,inspiration
359,87.0,25,M,up,0.5807056000003286,1.7846200930240528,,experiment,emotion,1.0,,,,1129.4048081999995,1001,26,female,True,11293,11299,False,False,expiration,expiration
360,100.0,25,F,down,0.8845228000000134,1.1015726565913129,,experiment,emotion,1.0,,,,1131.388075,1001,26,female,True,11313,11322,False,False,expiration,inspiration
361,100.0,25,M,up,0.6619104999999763,1.1198717993399958,,experiment,emotion,1.0,,,,1133.6546548000001,1001,26,female,True,11336,11343,False,False,expiration,expiration
362,93.0,25,M,down,0.7676303000002918,1.6756022542554738,,experiment,emotion,1.0,,,,1136.2879219999998,1001,26,female,True,11362,11370,False,False,inspiration,expiration
363,93.0,25,F,down,0.6466924999999719,1.0062063620913777,,experiment,emotion,1.0,,,,1138.3378615999998,1001,26,female,True,11383,11389,False,False,expiration,inspiration
364,87.0,25,M,down,0.5254737000000205,1.7561950852520114,,experiment,emotion,1.0,,,,1141.0210457,1001,26,female,True,11409,11414,False,False,expiration,expiration
365,107.0,25,F,up,2.1501564999998664,0.3741574266730765,,experiment,emotion,1.0,,,,1142.204353,1001,26,female,True,11421,11443,False,False,trough,expiration
366,100.0,25,F,down,0.4909615999999914,1.30773706411022,,experiment,emotion,1.0,,,,1145.9375429999998,1001,26,female,True,11459,11464,False,False,inspiration,expiration
367,87.0,25,M,down,0.5253875000003063,0.5590166141084542,,experiment,emotion,1.0,,,,1147.2541577999998,1001,26,female,True,11472,11477,False,False,expiration,expiration
368,107.0,25,M,down,0.4001930999997967,0.4590419853159939,,experiment,emotion,1.0,,,,1148.5040969999998,1001,26,female,True,11484,11488,False,False,inspiration,inspiration
369,107.0,25,F,down,0.5138855000000149,1.3346252337679263,,experiment,emotion,1.0,,,,1150.5206806,1001,26,female,True,11505,11510,False,False,expiration,inspiration
370,93.0,25,M,down,0.7649663000001965,1.7053464762958594,,experiment,emotion,1.0,,,,1153.0206061,1001,26,female,True,11530,11538,False,False,expiration,expiration
371,87.0,25,F,down,0.702950200000032,1.7716575924045108,,experiment,emotion,1.0,,,,1155.8205312999999,1001,26,female,True,11558,11565,False,False,expiration,expiration
372,93.0,25,F,down,0.5257683999998335,0.9641565074106246,,experiment,emotion,1.0,,,,1157.7537664999998,1001,26,female,True,11577,11582,False,False,inspiration,inspiration
373,100.0,25,F,down,0.7122205999999096,1.1118242568814354,,experiment,emotion,1.0,,,,1159.6703447999998,1001,26,female,True,11596,11603,False,False,expiration,trough
374,87.0,25,M,down,0.4962084000003415,0.8181965828977065,,experiment,emotion,1.0,,,,1161.4703149999998,1001,26,female,True,11614,11619,False,False,peak,expiration
375,107.0,25,M,down,0.688950499999919,0.9454763692981932,,experiment,emotion,1.0,,,,1163.2035647,1001,26,female,True,11631,11638,False,False,expiration,inspiration
376,100.0,25,M,down,1.1100636000001032,1.59491490260324,,experiment,emotion,1.0,,,,1165.7534652999998,1001,26,female,True,11657,11668,False,False,expiration,inspiration
377,107.0,25,F,down,0.7584676999999829,1.9520910270395744,,experiment,emotion,1.0,,,,1169.0700097,1001,26,female,True,11690,11698,False,False,expiration,inspiration
378,87.0,25,F,down,0.547871700000087,0.5854606425893978,,experiment,emotion,1.0,,,,1170.6866079999998,1001,26,female,True,11706,11711,False,False,peak,expiration
379,100.0,25,M,up,0.6310281000000941,1.5270532009649267,,experiment,emotion,1.0,,,,1173.0365186,1001,26,female,True,11730,11736,False,False,inspiration,expiration
380,93.0,25,F,up,0.7726966999998695,0.8201295102181974,,experiment,emotion,1.0,,,,1174.769806,1001,26,female,True,11747,11755,False,False,expiration,inspiration
381,93.0,25,M,down,0.7024883999997655,0.4841072029736633,,experiment,emotion,1.0,,,,1176.3030737,1001,26,female,True,11762,11769,False,False,inspiration,expiration
382,100.0,25,M,down,0.7261723000001439,1.169126462551835,,experiment,emotion,1.0,,,,1178.4363422000001,1001,26,female,True,11784,11791,False,False,trough,inspiration
383,107.0,25,M,up,1.2058530999997856,1.1853733686004793,,experiment,emotion,1.0,,,,1180.6196134000002,1001,26,female,True,11806,11818,False,False,expiration,expiration
384,93.0,25,F,up,0.7180002999998578,0.933037803728154,,experiment,emotion,1.0,,,,1183.0195308999996,1001,26,female,True,11830,11837,False,False,inspiration,inspiration
385,87.0,25,F,up,0.5307613999998466,0.33781288330718645,,experiment,emotion,1.0,,,,1184.352776,1001,26,female,True,11843,11848,False,False,expiration,expiration
386,87.0,25,M,up,0.5572171000003436,0.5722103203093106,,experiment,emotion,1.0,,,,1185.7192967999995,1001,26,female,True,11857,11863,False,False,expiration,inspiration
387,93.0,25,F,up,0.4562307000001056,0.6707917748469634,,experiment,emotion,1.0,,,,1187.2192860999999,1001,26,female,True,11872,11877,False,False,peak,expiration
388,107.0,25,F,up,0.4802488000000267,0.9808687145226664,,experiment,emotion,1.0,,,,1188.9192615,1001,26,female,True,11889,11894,False,False,expiration,inspiration
389,100.0,25,M,up,0.5942611000000397,0.4887187287219818,,experiment,emotion,1.0,,,,1190.1692443,1001,26,female,True,11901,11907,False,False,inspiration,expiration
390,87.0,25,M,up,0.5293849999998201,1.8868018076542876,,experiment,emotion,1.0,,,,1192.9191250999997,1001,26,female,True,11929,11934,False,False,inspiration,inspiration
391,107.0,25,F,up,0.6761546000002454,1.5787528204488166,,experiment,emotion,1.0,,,,1195.3023585,1001,26,female,True,11953,11960,False,False,expiration,inspiration
392,100.0,25,M,up,0.4515394999998534,1.4119602089178571,,experiment,emotion,1.0,,,,1197.6689731999998,1001,26,female,True,11976,11981,False,False,expiration,inspiration
393,100.0,25,F,up,0.456955999999991,1.9888847965676328,,experiment,emotion,1.0,,,,1200.3855339999998,1001,26,female,True,12003,12008,False,False,expiration,expiration
394,87.0,25,F,down,1.1650669000000562,0.6225744786832779,,experiment,emotion,1.0,,,,1201.7354580999995,1001,26,female,True,12017,12029,False,False,expiration,peak
395,93.0,25,F,down,0.980771900000036,0.9387359050662925,,experiment,emotion,1.0,,,,1204.1187505,1001,26,female,True,12041,12051,False,False,expiration,inspiration
396,107.0,25,M,down,0.6618980000002921,0.4262447153953344,,experiment,emotion,1.0,,,,1205.8186475999996,1001,26,female,True,12058,12065,False,False,inspiration,expiration
397,93.0,25,M,down,0.4235781000002135,0.450684372488428,,experiment,emotion,1.0,,,,1207.2019315,1001,26,female,True,12072,12076,False,False,expiration,expiration
398,93.0,25,F,down,0.5267165999998724,1.9745217425651256,,experiment,emotion,1.0,,,,1209.8518419000002,1001,26,female,True,12098,12103,False,False,expiration,expiration
399,93.0,25,F,down,0.7890921000002891,1.5793615344573049,,experiment,emotion,1.0,,,,1212.2184387999996,1001,26,female,True,12122,12130,False,False,inspiration,expiration
400,107.0,25,M,down,0.6278260999997656,1.174006816734846,,experiment,emotion,1.0,,,,1214.4516686999998,1001,26,female,True,12144,12150,False,False,expiration,inspiration
401,100.0,25,M,down,0.4672513999998955,1.7851325442126431,,experiment,emotion,1.0,,,,1217.1682469999996,1001,26,female,True,12171,12176,False,False,expiration,expiration
402,87.0,25,M,down,0.629106899999897,1.987982634730792,,experiment,emotion,1.0,,,,1219.9014479999996,1001,26,female,True,12198,12204,False,False,expiration,expiration
403,87.0,25,M,down,0.5494054000000688,0.7224859021158305,,experiment,emotion,1.0,,,,1221.5181022999998,1001,26,female,True,12215,12220,False,False,inspiration,inspiration
404,100.0,25,M,down,0.5461626000001161,0.4575136545738359,,experiment,emotion,1.0,,,,1222.8013556,1001,26,female,True,12227,12232,False,False,expiration,expiration
405,107.0,25,F,down,0.8981948999999076,0.4946328096005472,,experiment,emotion,1.0,,,,1224.1013114999996,1001,26,female,True,12240,12249,False,False,expiration,inspiration
406,107.0,25,F,down,1.3879497999996602,1.711573970047643,,experiment,emotion,1.0,,,,1226.9845462,1001,26,female,True,12269,12283,False,False,trough,expiration
407,87.0,25,M,up,1.9200676999998905,1.1481903833142348,,experiment,emotion,1.0,,,,1229.7844862,1001,26,female,True,12297,12316,False,False,inspiration,expiration
408,107.0,25,F,down,1.350522799999908,0.5849355609506539,,experiment,emotion,1.0,,,,1232.5509906999996,1001,26,female,True,12325,12339,False,False,inspiration,expiration
409,93.0,25,F,down,0.8396413000000393,1.0892197419395349,,experiment,emotion,1.0,,,,1235.2508943,1001,26,female,True,12352,12360,False,False,inspiration,inspiration
410,100.0,25,F,up,0.6913259000002654,1.862205950079224,,experiment,emotion,1.0,,,,1238.2341479999998,1001,26,female,True,12382,12389,False,False,expiration,expiration
411,93.0,25,M,down,1.3518018999998276,1.8195702054260512,,experiment,emotion,1.0,,,,1241.0006934,1001,26,female,True,12409,12423,False,False,inspiration,expiration
412,87.0,25,F,,,0.6522417906167252,,experiment,emotion,1.0,,,,1243.2839619999995,1001,26,female,True,12432,0,False,False,inspiration,0
413,100.0,25,F,up,0.6847319000003154,1.870239259966776,,experiment,emotion,1.0,,,,1247.8337501999995,1001,26,female,True,12478,12485,False,False,expiration,expiration
414,93.0,25,F,up,0.571103800000401,0.4651512077715254,,experiment,emotion,1.0,,,,1249.2503928999995,1001,26,female,True,12492,12498,False,False,expiration,inspiration
415,100.0,25,M,up,0.4994571000001997,0.3136757227384975,,experiment,emotion,1.0,,,,1250.4170620999998,1001,26,female,True,12504,12509,False,False,peak,expiration
416,87.0,25,M,down,0.7365537000000586,0.9765832399720328,,experiment,emotion,1.0,,,,1252.1669403999995,1001,26,female,True,12521,12528,False,False,inspiration,inspiration
417,107.0,25,F,up,0.7268656000001101,0.5545958468878298,,experiment,emotion,1.0,,,,1253.7335994999999,1001,26,female,True,12537,12544,False,False,expiration,inspiration
418,100.0,25,M,up,1.1804167000000234,1.6278353367280234,,experiment,emotion,1.0,,,,1256.3501217,1001,26,female,True,12563,12575,False,False,inspiration,expiration
419,107.0,25,F,up,0.4168942999999672,0.4518481758887646,,experiment,emotion,1.0,,,,1258.2667067999996,1001,26,female,True,12582,12586,False,False,expiration,expiration
420,87.0,25,M,up,0.400162100000216,0.9702519176404396,,experiment,emotion,1.0,,,,1259.9333212999998,1001,26,female,True,12599,12603,False,False,peak,expiration
421,93.0,25,M,up,1.35096539999995,1.7938449764951323,,experiment,emotion,1.0,,,,1262.4165409000002,1001,26,female,True,12624,12638,False,False,inspiration,expiration
422,0.10986752824400793,25,up,up,0.8129033000000163,1.8082009372918053,,experiment,cRDM,1.0,,,,1280.432599,1001,26,female,True,12804,12812,False,False,expiration,trough
423,0.10986752824400793,25,up,up,0.5854307999998127,1.9250853572596105,,experiment,cRDM,1.0,,,,1283.4490965999998,1001,26,female,True,12834,12840,False,False,expiration,expiration
424,0.10986752824400793,25,down,up,0.4767416000004232,0.337497150021734,,experiment,cRDM,1.0,,,,1284.6157535999996,1001,26,female,True,12846,12851,False,False,expiration,inspiration
425,0.10986752824400793,25,down,down,1.1795397999999295,1.4358154786137234,,experiment,cRDM,1.0,,,,1286.7989902999998,1001,26,female,True,12867,12879,False,False,expiration,expiration
426,0.10986752824400793,25,up,up,0.8492691000001287,1.9902225246207,,experiment,cRDM,1.0,,,,1290.2322247000002,1001,26,female,True,12902,12910,False,False,expiration,expiration
427,0.10986752824400793,25,down,up,0.6800875000003543,1.0713381568596247,,experiment,cRDM,1.0,,,,1292.4154354,1001,26,female,True,12924,12931,False,False,inspiration,expiration
428,0.10986752824400793,25,up,up,0.8730743000000984,0.4634743846241813,,experiment,cRDM,1.0,,,,1293.815438,1001,26,female,True,12938,12947,False,False,expiration,expiration
429,0.10986752824400793,25,up,up,0.7868635000004358,0.5078908332718041,,experiment,cRDM,1.0,,,,1295.4486564,1001,26,female,True,12954,12962,False,False,expiration,inspiration
430,0.10986752824400793,25,down,up,0.5385993999998391,0.8899536510501644,,experiment,cRDM,1.0,,,,1297.3819029000001,1001,26,female,True,12973,12978,False,False,expiration,expiration
431,0.10986752824400793,25,down,up,0.5462807999997494,0.7836241322589548,,experiment,cRDM,1.0,,,,1298.9651858999996,1001,26,female,True,12989,12994,False,False,inspiration,peak
432,0.10986752824400793,25,down,up,1.1117091000000985,0.5702146456431557,,experiment,cRDM,1.0,,,,1300.331832,1001,26,female,True,13003,13014,False,False,expiration,expiration
433,0.10986752824400793,25,down,down,0.7744342999999391,1.065112247137833,,experiment,cRDM,1.0,,,,1302.7650544,1001,26,female,True,13027,13035,False,False,inspiration,expiration
434,0.10986752824400793,25,down,down,1.2242326000000503,1.7375763554502806,,experiment,cRDM,1.0,,,,1305.5482888000001,1001,26,female,True,13055,13067,False,False,inspiration,expiration
435,0.10986752824400793,25,down,down,0.9053112000001422,0.563283155306306,,experiment,cRDM,1.0,,,,1307.5981829000002,1001,26,female,True,13075,13084,False,False,expiration,inspiration
436,0.10986752824400793,25,up,up,0.8140108000002328,1.3666457250706563,,experiment,cRDM,1.0,,,,1310.1314774999996,1001,26,female,True,13101,13109,False,False,expiration,inspiration
437,0.10986752824400793,25,up,up,0.6584459999999126,1.1447578065095565,,experiment,cRDM,1.0,,,,1312.3480259,1001,26,female,True,13123,13130,False,False,expiration,expiration
438,0.10986752824400793,25,up,up,0.6832943000003979,1.6145286934173182,,experiment,cRDM,1.0,,,,1314.8812508,1001,26,female,True,13148,13155,False,False,peak,expiration
439,0.10986752824400793,25,up,up,0.6696538999999575,0.4641344095047356,,experiment,cRDM,1.0,,,,1316.2978554000001,1001,26,female,True,13162,13169,False,False,expiration,inspiration
440,0.10986752824400793,25,down,up,0.7740342999995846,1.443104552149567,,experiment,cRDM,1.0,,,,1318.66447,1001,26,female,True,13186,13194,False,False,expiration,inspiration
441,0.10986752824400793,25,up,up,0.6184474000001501,0.7622358902073708,,experiment,cRDM,1.0,,,,1320.4810467,1001,26,female,True,13204,13210,False,False,expiration,expiration
442,0.10986752824400793,25,up,up,0.5275659999997515,1.7265310207579787,,experiment,cRDM,1.0,,,,1323.080937,1001,26,female,True,13230,13235,False,False,peak,expiration
443,0.10986752824400793,25,down,up,0.6472321999999622,1.456686672267186,,experiment,cRDM,1.0,,,,1325.3142495999996,1001,26,female,True,13253,13259,False,False,inspiration,expiration
444,0.10986752824400793,25,up,up,0.5676989999997204,1.1980232391195358,,experiment,cRDM,1.0,,,,1327.4308094,1001,26,female,True,13274,13280,False,False,trough,inspiration
445,0.10986752824400793,25,down,up,0.7004070000002685,1.8551020410582972,,experiment,cRDM,1.0,,,,1330.1140637,1001,26,female,True,13301,13308,False,False,inspiration,inspiration
446,0.10986752824400793,25,down,up,0.8692310000001271,0.9248434346813896,,experiment,cRDM,1.0,,,,1331.9973110999995,1001,26,female,True,13320,13329,False,False,expiration,inspiration
447,0.10986752824400793,25,up,up,0.6719272999998793,0.5407892667572879,,experiment,cRDM,1.0,,,,1333.6805668999998,1001,26,female,True,13336,13343,False,False,inspiration,expiration
448,0.10986752824400793,25,up,up,0.6539512999997896,0.8079309584678667,,experiment,cRDM,1.0,,,,1335.4305521999995,1001,26,female,True,13354,13361,False,False,expiration,inspiration
449,0.10986752824400793,25,down,up,0.5430102999998779,0.42956228271455216,,experiment,cRDM,1.0,,,,1336.7804389,1001,26,female,True,13367,13372,False,False,inspiration,expiration
450,0.10986752824400793,25,up,up,0.6664660000001277,1.1554567234699378,,experiment,cRDM,1.0,,,,1338.7470597999998,1001,26,female,True,13387,13394,False,False,expiration,inspiration
451,0.10986752824400793,25,down,up,0.7048491999998987,0.7830707862926121,,experiment,cRDM,1.0,,,,1340.4636509999998,1001,26,female,True,13404,13411,False,False,expiration,expiration
452,0.10986752824400793,25,down,up,0.5985919999998259,0.5568491575153054,,experiment,cRDM,1.0,,,,1341.9969142999998,1001,26,female,True,13419,13425,False,False,expiration,inspiration
453,0.10986752824400793,25,down,down,0.6176393999999163,1.3913933825110358,,experiment,cRDM,1.0,,,,1344.2468502,1001,26,female,True,13442,13448,False,False,expiration,expiration
454,0.10986752824400793,25,up,up,0.8270163000001958,1.2795471134721446,,experiment,cRDM,1.0,,,,1346.413472,1001,26,female,True,13464,13472,False,False,peak,expiration
455,0.10986752824400793,25,up,up,0.7114316000001963,0.5666008943215523,,experiment,cRDM,1.0,,,,1348.0800341,1001,26,female,True,13480,13487,False,False,expiration,inspiration
456,0.10986752824400793,25,up,up,0.7781371000000945,0.5549676770631751,,experiment,cRDM,1.0,,,,1349.6133601999998,1001,26,female,True,13496,13504,False,False,expiration,expiration
457,0.10986752824400793,25,down,down,1.3372494000000188,1.1041859680817256,,experiment,cRDM,1.0,,,,1351.7632268999996,1001,26,female,True,13517,13530,False,False,inspiration,expiration
458,0.10986752824400793,25,down,up,0.6857234999997672,1.4256705732782498,,experiment,cRDM,1.0,,,,1354.7797807999998,1001,26,female,True,13547,13554,False,False,inspiration,expiration
459,0.10986752824400793,25,up,down,0.8631428000003325,1.3814271493763124,,experiment,cRDM,1.0,,,,1357.0963510999998,1001,26,female,True,13570,13579,False,False,expiration,inspiration
460,0.10986752824400793,25,down,down,0.7278611000001547,0.9876119236205048,,experiment,cRDM,1.0,,,,1359.2296519999998,1001,26,female,True,13592,13599,False,False,expiration,expiration
461,0.10986752824400793,25,up,up,0.4169159000002765,1.2543573143077558,,experiment,cRDM,1.0,,,,1361.4628734,1001,26,female,True,13614,13618,False,False,expiration,expiration
462,0.10986752824400793,25,up,up,0.4740234999999302,1.3846026001171166,,experiment,cRDM,1.0,,,,1363.5294551999998,1001,26,female,True,13635,13640,False,False,inspiration,inspiration
463,0.10986752824400793,25,up,up,0.7844264999998813,0.5775040858367672,,experiment,cRDM,1.0,,,,1364.8460652,1001,26,female,True,13648,13656,False,False,expiration,expiration
464,0.10986752824400793,25,down,down,0.8199724999999489,1.68052097059891,,experiment,cRDM,1.0,,,,1367.5626218999996,1001,26,female,True,13675,13683,False,False,expiration,expiration
465,0.10986752824400793,25,down,up,1.0115404999996829,0.4413699811897411,,experiment,cRDM,1.0,,,,1369.0959355999998,1001,26,female,True,13690,13700,False,False,expiration,inspiration
466,0.10986752824400793,25,up,up,0.6526242999998431,0.9947498976748635,,experiment,cRDM,1.0,,,,1371.3458580999998,1001,26,female,True,13713,13720,False,False,expiration,expiration
467,0.10986752824400793,25,down,down,0.7353484000000208,0.8572333469613045,,experiment,cRDM,1.0,,,,1373.1291320999999,1001,26,female,True,13731,13738,False,False,inspiration,expiration
468,0.10986752824400793,25,down,down,0.5818205999999009,0.7856760128240938,,experiment,cRDM,1.0,,,,1374.8956875,1001,26,female,True,13748,13754,False,False,expiration,expiration
469,0.10986752824400793,25,up,down,0.5844240999999784,0.5530341054997533,,experiment,cRDM,1.0,,,,1376.2789906,1001,26,female,True,13762,13768,False,False,inspiration,expiration
470,0.10986752824400793,25,up,up,0.8941727000001265,0.3398872226498418,,experiment,cRDM,1.0,,,,1377.4622899999995,1001,26,female,True,13774,13783,False,False,expiration,expiration
471,0.10986752824400793,25,down,up,0.9216369000000668,1.2628976363647948,,experiment,cRDM,1.0,,,,1379.878856,1001,26,female,True,13798,13807,False,False,peak,expiration
472,0.10986752824400793,25,up,up,1.1556899000001977,0.7244170768616713,,experiment,cRDM,1.0,,,,1381.7787913,1001,26,female,True,13817,13829,False,False,inspiration,expiration
473,0.10986752824400793,25,down,down,0.6047613000000638,0.7161081517273942,,experiment,cRDM,1.0,,,,1383.9287309999993,1001,26,female,True,13839,13845,False,False,expiration,inspiration
474,0.10986752824400793,25,down,down,0.5898185999999441,0.98147899175369,,experiment,cRDM,1.0,,,,1385.7786322000002,1001,26,female,True,13857,13863,False,False,expiration,expiration
475,0.10986752824400793,25,down,down,0.5709318999997777,1.4942734044536912,,experiment,cRDM,1.0,,,,1388.1285403999998,1001,26,female,True,13881,13887,False,False,inspiration,inspiration
476,0.10986752824400793,25,up,up,0.6507154000000811,1.5014297218725747,,experiment,cRDM,1.0,,,,1390.4618008,1001,26,female,True,13904,13911,False,False,expiration,expiration
477,0.10986752824400793,25,up,up,0.5977797000000464,1.3836228854296213,,experiment,cRDM,1.0,,,,1392.7617073,1001,26,female,True,13927,13933,False,False,trough,inspiration
478,0.10986752824400793,25,down,down,0.5687944000001153,0.6410326738412684,,experiment,cRDM,1.0,,,,1394.2616793999996,1001,26,female,True,13942,13948,False,False,expiration,expiration
479,0.10986752824400793,25,down,down,0.5838614999997844,0.5653977666923746,,experiment,cRDM,1.0,,,,1395.6616118999998,1001,26,female,True,13956,13962,False,False,expiration,inspiration
480,0.10986752824400793,25,up,down,0.5776641000002201,1.5881190902966251,,experiment,cRDM,1.0,,,,1398.0948316,1001,26,female,True,13981,13987,False,False,inspiration,inspiration
481,0.10986752824400793,25,up,down,0.6221793999998226,1.6149290159249496,,experiment,cRDM,1.0,,,,1400.5614018,1001,26,female,True,14005,14011,False,False,expiration,expiration
482,0.10986752824400793,25,up,down,0.639820200000031,1.550795363884814,,experiment,cRDM,1.0,,,,1402.994646,1001,26,female,True,14029,14035,False,False,inspiration,expiration
483,0.10986752824400793,25,up,up,0.5893103000003066,1.8679708154610248,,experiment,cRDM,1.0,,,,1405.7612333,1001,26,female,True,14057,14063,False,False,inspiration,expiration
484,0.10986752824400793,25,up,down,0.5233668999999281,1.0546598504112348,,experiment,cRDM,1.0,,,,1407.6611590999996,1001,26,female,True,14076,14081,False,False,expiration,inspiration
485,0.10986752824400793,25,down,down,0.5547381000001224,0.950782490012236,,experiment,cRDM,1.0,,,,1409.377761,1001,26,female,True,14093,14099,False,False,expiration,expiration
486,0.10986752824400793,25,down,up,0.6760770999999295,0.4478284666913387,,experiment,cRDM,1.0,,,,1410.6443959,1001,26,female,True,14106,14113,False,False,inspiration,inspiration
487,0.10986752824400793,25,up,up,0.892789300000004,0.32676948509185594,,experiment,cRDM,1.0,,,,1411.9276767000001,1001,26,female,True,14119,14128,False,False,inspiration,peak
488,0.10986752824400793,25,down,down,1.2788996999997837,1.1950683457718072,,experiment,cRDM,1.0,,,,1414.2776068,1001,26,female,True,14142,14155,False,False,expiration,expiration
489,0.10986752824400793,25,down,up,0.6726925000002666,1.9523142884143876,,experiment,cRDM,1.0,,,,1417.7607864,1001,26,female,True,14177,14184,False,False,inspiration,expiration
490,0.10986752824400793,25,down,down,0.5214599999999336,1.9967962029745592,,experiment,cRDM,1.0,,,,1420.6940005000001,1001,26,female,True,14206,14211,False,False,inspiration,inspiration
491,0.10986752824400793,25,up,down,0.5179560999999921,1.9727412556326327,,experiment,cRDM,1.0,,,,1423.4605620999996,1001,26,female,True,14234,14239,False,False,expiration,expiration
492,0.10986752824400793,25,down,down,0.5695888000000195,0.5687669714449695,,experiment,cRDM,1.0,,,,1424.7938769000002,1001,26,female,True,14247,14253,False,False,inspiration,inspiration
493,0.10986752824400793,25,down,down,0.40025969999987865,0.36346629213508463,,experiment,cRDM,1.0,,,,1425.9771603000004,1001,26,female,True,14259,14263,False,False,expiration,expiration
494,0.10986752824400793,25,down,up,1.1367286999998214,1.9812551339909648,,experiment,cRDM,1.0,,,,1428.6437132999995,1001,26,female,True,14286,14297,False,False,expiration,expiration
495,0.10986752824400793,25,up,down,0.5188176000001476,0.3686925764342659,,experiment,cRDM,1.0,,,,1430.3936428999998,1001,26,female,True,14303,14308,False,False,expiration,trough
496,0.10986752824400793,25,up,up,1.2993428999998289,1.6341835631079298,,experiment,cRDM,1.0,,,,1432.8102616,1001,26,female,True,14328,14341,False,False,expiration,expiration
497,0.10986752824400793,25,down,down,0.5936550000001262,0.8184101784269115,,experiment,cRDM,1.0,,,,1435.1768042,1001,26,female,True,14351,14357,False,False,inspiration,peak
498,0.10986752824400793,25,up,up,0.8997309000001223,1.7975615551923216,,experiment,cRDM,1.0,,,,1437.8267387999995,1001,26,female,True,14378,14387,False,False,inspiration,expiration
499,0.10986752824400793,25,down,down,0.6644661000000269,1.3662092164018265,,experiment,cRDM,1.0,,,,1440.359949,1001,26,female,True,14403,14410,False,False,inspiration,peak
500,0.10986752824400793,25,up,up,0.5906513999998424,1.764833568623105,,experiment,cRDM,1.0,,,,1443.0598604,1001,26,female,True,14430,14436,False,False,inspiration,expiration
501,0.10986752824400793,25,up,up,0.6873456999996961,0.3747680523480488,,experiment,cRDM,1.0,,,,1444.2931173,1001,26,female,True,14442,14449,False,False,expiration,expiration
502,107.0,25,M,up,0.6836650000000191,1.0505180138641548,,experiment,emotion,2.0,,,,1471.5588065999998,1001,26,female,True,14715,14722,False,False,expiration,expiration
503,87.0,25,M,down,0.5097496999997021,1.693526365930088,,experiment,emotion,2.0,,,,1474.2087049999998,1001,26,female,True,14742,14747,False,False,inspiration,peak
504,100.0,25,F,down,0.4837862999997924,0.35533555927982824,,experiment,emotion,2.0,,,,1475.358664,1001,26,female,True,14753,14758,False,False,expiration,expiration
505,107.0,25,F,up,0.6652260000000751,1.7610126629484808,,experiment,emotion,2.0,,,,1477.8752343999995,1001,26,female,True,14778,14785,False,False,expiration,expiration
506,100.0,25,M,down,0.600619800000004,1.576149075011037,,experiment,emotion,2.0,,,,1480.3917862,1001,26,female,True,14804,14810,False,False,expiration,expiration
507,93.0,25,F,down,0.5897217000001547,1.2250384777452383,,experiment,emotion,2.0,,,,1482.4917021,1001,26,female,True,14824,14830,False,False,expiration,expiration
508,87.0,25,M,down,0.38354430000026696,0.9801865129818002,,experiment,emotion,2.0,,,,1484.3249908,1001,26,female,True,14843,14847,False,False,expiration,expiration
509,93.0,25,M,down,0.4465337000001455,0.9601119965407136,,experiment,emotion,2.0,,,,1485.9749363999995,1001,26,female,True,14859,14863,False,False,inspiration,expiration
510,107.0,25,F,down,0.5869158999998945,1.0490739828942544,,experiment,emotion,2.0,,,,1487.7415316,1001,26,female,True,14877,14883,False,False,expiration,expiration
511,93.0,25,F,down,0.4796399000001657,1.1799059916761048,,experiment,emotion,2.0,,,,1489.7747991999993,1001,26,female,True,14897,14902,False,False,expiration,expiration
512,100.0,25,F,down,0.5787356999999247,1.6065264111155264,,experiment,emotion,2.0,,,,1492.1247147,1001,26,female,True,14921,14927,False,False,inspiration,expiration
513,107.0,25,F,up,0.5702045000002727,1.9113202925505932,,experiment,emotion,2.0,,,,1494.8912601,1001,26,female,True,14948,14954,False,False,inspiration,inspiration
514,100.0,25,F,down,0.7562256999999591,1.053746232131048,,experiment,emotion,2.0,,,,1496.7912061,1001,26,female,True,14967,14975,False,False,expiration,expiration
515,87.0,25,F,down,0.4973512999999912,1.5023674707165082,,experiment,emotion,2.0,,,,1499.341095,1001,26,female,True,14993,14998,False,False,expiration,expiration
516,93.0,25,M,down,0.517449100000249,1.921176423199369,,experiment,emotion,2.0,,,,1502.0409933999995,1001,26,female,True,15020,15025,False,False,expiration,expiration
517,87.0,25,M,down,0.488521899999796,1.3568616187915221,,experiment,emotion,2.0,,,,1504.1909319999993,1001,26,female,True,15041,15046,False,False,inspiration,inspiration
518,107.0,25,M,down,0.5615901000001031,0.4840241399824125,,experiment,emotion,2.0,,,,1505.4408845,1001,26,female,True,15054,15060,False,False,expiration,expiration
519,87.0,25,M,down,0.6086334999999963,1.6714253917850408,,experiment,emotion,2.0,,,,1507.9407955,1001,26,female,True,15079,15085,False,False,inspiration,expiration
520,100.0,25,F,down,0.6003918000001249,0.7866852968842091,,experiment,emotion,2.0,,,,1509.6240549,1001,26,female,True,15096,15102,False,False,expiration,inspiration
521,100.0,25,M,down,0.5756593999999495,1.328745016731368,,experiment,emotion,2.0,,,,1511.8239805,1001,26,female,True,15118,15124,False,False,expiration,expiration
522,93.0,25,M,down,0.6976115000002211,1.712017153142626,,experiment,emotion,2.0,,,,1514.3739007,1001,26,female,True,15143,15150,False,False,expiration,expiration
523,93.0,25,F,down,0.4809591000002911,0.5584316798353605,,experiment,emotion,2.0,,,,1515.8905005999998,1001,26,female,True,15158,15163,False,False,trough,inspiration
524,87.0,25,M,down,0.7020310999996582,1.6958281658257348,,experiment,emotion,2.0,,,,1518.3404002999996,1001,26,female,True,15183,15190,False,False,expiration,inspiration
525,107.0,25,F,down,0.6454803000001448,1.5227059555741995,,experiment,emotion,2.0,,,,1520.8569679000002,1001,26,female,True,15208,15214,False,False,expiration,expiration
526,100.0,25,F,down,0.5892353000003823,1.4728349399127427,,experiment,emotion,2.0,,,,1523.2402104,1001,26,female,True,15232,15238,False,False,expiration,expiration
527,87.0,25,M,down,0.7010145999997803,0.9737529801837629,,experiment,emotion,2.0,,,,1525.0734768999996,1001,26,female,True,15250,15257,False,False,inspiration,inspiration
528,107.0,25,M,down,0.9155938999997488,0.9390174443328632,,experiment,emotion,2.0,,,,1526.9900609000001,1001,26,female,True,15269,15278,False,False,expiration,inspiration
529,107.0,25,F,down,1.6894412000001466,0.6541170400126168,,experiment,emotion,2.0,,,,1528.8400189,1001,26,female,True,15288,15305,False,False,expiration,inspiration
530,93.0,25,M,down,0.5001840999998421,0.3176284103036156,,experiment,emotion,2.0,,,,1531.1232595999998,1001,26,female,True,15311,15316,False,False,inspiration,expiration
531,87.0,25,F,down,0.5739060000000791,1.166122795535301,,experiment,emotion,2.0,,,,1533.0565338999993,1001,26,female,True,15330,15336,False,False,trough,inspiration
532,93.0,25,F,down,0.4719756000004054,0.3439657186941961,,experiment,emotion,2.0,,,,1534.2565063,1001,26,female,True,15342,15347,False,False,expiration,expiration
533,100.0,25,F,down,0.4946789000000536,0.9318957517659654,,experiment,emotion,2.0,,,,1535.9397441,1001,26,female,True,15359,15364,False,False,inspiration,inspiration
534,87.0,25,M,down,0.5364845000003697,0.7760178267813456,,experiment,emotion,2.0,,,,1537.4730044000003,1001,26,female,True,15374,15379,False,False,expiration,expiration
535,107.0,25,M,up,0.5881426000000829,1.1631796287978249,,experiment,emotion,2.0,,,,1539.4562834,1001,26,female,True,15394,15400,False,False,inspiration,expiration
536,100.0,25,M,up,0.4326006000001144,1.156783043751803,,experiment,emotion,2.0,,,,1541.4728706,1001,26,female,True,15414,15418,False,False,inspiration,inspiration
537,107.0,25,F,up,0.3668535000001612,0.8400763479546289,,experiment,emotion,2.0,,,,1543.0061485999993,1001,26,female,True,15430,15434,False,False,expiration,expiration
538,87.0,25,F,down,0.8920265000001564,1.142918635179869,,experiment,emotion,2.0,,,,1544.8394185,1001,26,female,True,15448,15457,False,False,inspiration,expiration
539,100.0,25,M,down,0.4810964000002969,0.5769161812467054,,experiment,emotion,2.0,,,,1546.5893795999998,1001,26,female,True,15466,15471,False,False,expiration,inspiration
540,93.0,25,F,down,0.4002658000003976,1.1928044858370304,,experiment,emotion,2.0,,,,1548.5559336,1001,26,female,True,15485,15489,False,False,expiration,expiration
541,93.0,25,M,down,0.6468999999997322,1.2235165268753443,,experiment,emotion,2.0,,,,1550.4725377999998,1001,26,female,True,15504,15510,False,False,inspiration,inspiration
