,stimLvl,stimTime,rand,response,rt,precedingITI,trialNumber,trialType,stimuli,block,estIntens,estThres,estSlope,trialStart,subject,age,gender,headRest,onset,responsI,manBadOnset,manBadRespons,onset_phase,respons_phase
0,0.9,100,down,,,1.4868277969294232,,introTrial,cRDM,,,,,223.02773890000026,1002,29,female,True,2229,0,False,False,inspiration,0
1,150.0,100,F,,,0.7746993878232942,,introTrial,emotion,,,,,227.76096229999985,1002,29,female,True,2276,0,False,False,inspiration,0
2,0.9,25,down,down,0.8789202999996633,1.9567607191270904,,tutorial,cRDM,,,,,274.17582670000047,1002,29,female,True,2740,2749,False,False,expiration,expiration
3,0.9,25,down,down,0.6392461000004914,1.0496297211418109,,tutorial,cRDM,,,,,276.3924317000001,1002,29,female,True,2763,2769,False,False,inspiration,expiration
4,0.9,25,down,down,0.6697858000006818,1.9902752618336823,,tutorial,cRDM,,,,,279.30898890000026,1002,29,female,True,2792,2799,False,False,inspiration,inspiration
5,0.9,25,up,up,0.524845699999787,0.8015598059386122,,tutorial,cRDM,,,,,281.05889080000003,1002,29,female,True,2809,2814,False,False,expiration,expiration
6,0.9,25,down,down,0.5398702000002231,0.5018878635066225,,tutorial,cRDM,,,,,282.3588768999998,1002,29,female,True,2822,2827,False,False,expiration,inspiration
7,0.9,25,down,down,0.48529870000038505,1.1537442493536454,,tutorial,cRDM,,,,,284.3254560000005,1002,29,female,True,2842,2847,False,False,expiration,expiration
8,0.9,25,up,up,0.4739187000004677,0.5235822313615749,,tutorial,cRDM,,,,,285.6087963,1002,29,female,True,2855,2860,False,False,expiration,inspiration
9,0.9,25,up,up,0.4729784000001018,0.4576340635822853,,tutorial,cRDM,,,,,286.8087285000001,1002,29,female,True,2867,2872,False,False,inspiration,expiration
10,0.9,25,up,up,0.5534287000000404,1.9656067512239852,,tutorial,cRDM,,,,,289.5252811000001,1002,29,female,True,2894,2900,False,False,trough,inspiration
11,0.9,25,up,up,0.41703030000007857,1.9604480654000995,,tutorial,cRDM,,,,,292.3251608999999,1002,29,female,True,2922,2926,False,False,expiration,expiration
12,200.0,25,M,up,1.5647675999998685,0.4103421001184036,,tutorial,emotion,,,,,300.3749237000002,1002,29,female,True,3002,3018,False,False,inspiration,expiration
13,200.0,25,M,up,0.461560400000053,1.13600950670692,,tutorial,emotion,,,,,303.3581450000001,1002,29,female,True,3032,3037,False,False,inspiration,inspiration
14,200.0,25,F,up,0.8682958999997936,1.2428051542389575,,tutorial,emotion,,,,,305.3414131999998,1002,29,female,True,3052,3061,False,False,expiration,expiration
15,0.0,25,F,down,0.4520462000000407,1.2253343917690942,,tutorial,emotion,,,,,307.72466220000024,1002,29,female,True,3076,3081,False,False,inspiration,inspiration
16,0.0,25,M,down,0.4724424999994881,0.6332830813303941,,tutorial,emotion,,,,,309.0912962000002,1002,29,female,True,3090,3095,False,False,expiration,expiration
17,200.0,25,F,up,0.5531670000000304,0.4681268354047944,,tutorial,emotion,,,,,310.3245656999997,1002,29,female,True,3102,3108,False,False,expiration,inspiration
18,0.0,25,M,down,0.5182721000001038,0.958925252973038,,tutorial,emotion,,,,,312.1244632999997,1002,29,female,True,3120,3125,False,False,expiration,expiration
19,200.0,25,M,up,0.7416232999994463,1.30675231974114,,tutorial,emotion,,,,,314.2410775999997,1002,29,female,True,3141,3148,False,False,inspiration,inspiration
20,0.0,25,F,up,0.4002013999997871,1.3878716844370684,,tutorial,emotion,,,,,316.6409794000001,1002,29,female,True,3165,3169,False,False,expiration,expiration
21,0.0,25,F,down,0.48317440000028,1.9579181855601044,,tutorial,emotion,,,,,319.3075761999998,1002,29,female,True,3192,3197,False,False,expiration,expiration
22,0.29,25,up,up,0.5530360000002474,0.5676846789900432,,psi_staircase_training,cRDM,,0.25,0.25693124029946324,0.10500000000000002,332.0736947000005,1002,29,female,True,3320,3326,False,False,inspiration,inspiration
23,0.25,25,up,up,0.6781213000003845,1.8202198358392627,,psi_staircase_training,cRDM,,0.21910266653183127,0.2260132002683493,0.10468632033873933,334.72360730000037,1002,29,female,True,3346,3353,False,False,expiration,inspiration
24,0.21,25,down,down,0.5078776000000289,0.7814746715242293,,psi_staircase_training,cRDM,,0.1900540959403307,0.19684979615540016,0.10294672984249993,336.4568479999998,1002,29,female,True,3363,3368,False,False,expiration,expiration
25,0.18,25,down,down,0.5865839000007327,1.6076641707039931,,psi_staircase_training,cRDM,,0.1635257589279754,0.1701521334256793,0.100381647756865,338.8401273999998,1002,29,female,True,3387,3393,False,False,inspiration,inspiration
26,0.15,25,up,up,1.02098019999994,0.5563599269553434,,psi_staircase_training,cRDM,,0.14018955742449365,0.14660133511875031,0.0971307628663642,340.2567105999997,1002,29,female,True,3401,3411,False,False,expiration,expiration
27,0.13,25,down,down,0.7447191999999632,0.8825218208765571,,psi_staircase_training,cRDM,,0.11987606021454796,0.12605547676183335,0.09361076941961036,342.4400004999997,1002,29,female,True,3423,3430,False,False,inspiration,inspiration
28,0.11,25,up,down,0.6155795999993643,0.9252373071921064,,psi_staircase_training,cRDM,,0.10257735236965487,0.10849103445698656,0.08958521019937955,344.37315240000044,1002,29,female,True,3443,3449,False,False,expiration,expiration
29,0.18,25,down,down,0.6612131000001682,0.3860821015176281,,psi_staircase_training,cRDM,,0.15550416599619746,0.16241001844525527,0.10461540443305936,345.65652880000016,1002,29,female,True,3455,3462,False,False,expiration,inspiration
30,0.16,25,down,down,0.5819695999998657,1.1020479727777095,,psi_staircase_training,cRDM,,0.13916584380818955,0.1457849300972332,0.10027124011317312,347.68981929999967,1002,29,female,True,3476,3482,False,False,expiration,expiration
31,0.15,25,up,up,0.5766548999999941,1.7751154344796782,,psi_staircase_training,cRDM,,0.12580327505455896,0.1321354728273346,0.0959252222423927,350.32303210000015,1002,29,female,True,3502,3508,False,False,inspiration,expiration
32,0.15,25,down,down,0.5561447999998563,1.1628243046809337,,psi_staircase_training,cRDM,,0.11506994712599955,0.1211167653058565,0.0916020627555138,352.3395862999996,1002,29,female,True,3522,3528,False,False,expiration,inspiration
33,0.13,25,down,up,0.5110776999999871,0.9337189492343568,,psi_staircase_training,cRDM,,0.10698819003606964,0.11270393797745792,0.08658674463966308,354.0895975000003,1002,29,female,True,3540,3545,False,False,expiration,expiration
34,0.17,25,down,up,0.3671464999997625,0.6704403064820148,,psi_staircase_training,cRDM,,0.1375992308975301,0.14371438735532852,0.0926373059261205,355.53949470000043,1002,29,female,True,3554,3558,False,False,expiration,inspiration
35,0.22,25,up,down,0.6212556999998924,1.4381569037446966,,psi_staircase_training,cRDM,,0.18272528995788734,0.19115164553167124,0.1276492080812471,357.68946080000023,1002,29,female,True,3576,3582,False,False,expiration,expiration
36,0.32,25,up,up,0.49639709999973997,1.6531910076157996,,psi_staircase_training,cRDM,,0.24324117007071974,0.2523675885203631,0.13825432329719686,360.23932580000013,1002,29,female,True,3601,3606,False,False,inspiration,expiration
37,0.29,25,down,down,0.5025288000006185,0.9422186743048636,,psi_staircase_training,cRDM,,0.2264195910989707,0.2355313863629108,0.13803279952475506,361.93923799999993,1002,29,female,True,3618,3623,False,False,expiration,inspiration
38,0.27,25,down,down,0.40027789999930974,1.7428851252048172,,psi_staircase_training,cRDM,,0.2113615524351678,0.22040782610652634,0.1370402257682802,364.4724882,1002,29,female,True,3644,3648,False,False,expiration,expiration
39,0.26,25,up,up,0.4855606000000989,0.7324930661412284,,psi_staircase_training,cRDM,,0.19807981530048308,0.20704322386840449,0.13578491856711794,365.8891552000005,1002,29,female,True,3658,3663,False,False,inspiration,inspiration
40,0.21,25,up,up,0.6487280999999712,1.4799409585984802,,psi_staircase_training,cRDM,,0.1866538964387634,0.195514621564596,0.134229387240328,368.1390291999997,1002,29,female,True,3680,3686,False,False,expiration,trough
41,0.21,25,up,down,0.5384515000005194,0.8989447317708532,,psi_staircase_training,cRDM,,0.1739161984438449,0.18296070205402765,0.13701341145865764,369.97227010000006,1002,29,female,True,3698,3703,False,False,inspiration,expiration
42,0.27,25,up,down,0.4414938999998412,1.8272834132712692,,psi_staircase_training,cRDM,,0.2128495856119904,0.22161709043668884,0.1328172111800287,372.6222005,1002,29,female,True,3725,3729,False,False,inspiration,inspiration
43,0.33,25,down,down,0.6406188000000839,1.0528216151012622,,psi_staircase_training,cRDM,,0.2572918622518153,0.2669541214467042,0.1463716696623404,374.37210899999985,1002,29,female,True,3742,3748,False,False,expiration,expiration
44,0.31,25,down,down,0.4226662000000943,1.3798153748859059,,psi_staircase_training,cRDM,,0.24524233646234295,0.2548282643294026,0.1452153413465126,376.6720201999997,1002,29,female,True,3765,3769,False,False,inspiration,expiration
45,0.31,25,down,down,0.7576976000000286,1.0997682212871165,,psi_staircase_training,cRDM,,0.23446986827445104,0.24394670570941845,0.14356275178464584,378.4719864999997,1002,29,female,True,3784,3792,False,False,expiration,inspiration
46,0.26,25,up,up,0.6115082999995138,0.5495081375465003,,psi_staircase_training,cRDM,,0.2254843684399005,0.2348105766453053,0.14128089912613914,380.05524729999985,1002,29,female,True,3799,3805,False,False,inspiration,expiration
47,0.25,25,up,down,0.6471841999991739,1.510173740589439,,psi_staircase_training,cRDM,,0.21493357956590728,0.22437218037672765,0.14298351266408696,382.43848960000014,1002,29,female,True,3823,3829,False,False,inspiration,inspiration
48,0.31,25,down,down,0.498981200000344,1.8980440734045791,,psi_staircase_training,cRDM,,0.24839316270593445,0.2574933340275493,0.13785671070205816,385.2717106,1002,29,female,True,3852,3857,False,False,expiration,inspiration
49,0.31,25,down,down,0.506064499999411,0.4282136189540274,,psi_staircase_training,cRDM,,0.24062281957091705,0.2495036353720595,0.1345337369405827,386.47166199999987,1002,29,female,True,3864,3869,False,False,inspiration,expiration
50,0.25,25,up,down,0.8854535000000396,1.5885796712324451,,psi_staircase_training,cRDM,,0.23426120787841806,0.2428958767115051,0.13080490479378593,388.8382604999997,1002,29,female,True,3887,3896,False,False,expiration,inspiration
51,0.31,25,up,down,0.6465130999995381,0.7657475970312173,,psi_staircase_training,cRDM,,0.2610164742259427,0.2686063534539549,0.11497759196185932,390.78817590000017,1002,29,female,True,3907,3913,False,False,inspiration,expiration
52,100.0,25,M,down,0.6021641000006639,1.759118653351156,,psi_staircase_training,emotion,,100.0,100.0,25.00050000000001,401.9045305,1002,29,female,True,4018,4024,False,False,expiration,expiration
53,145.0,25,M,up,1.1308357999996588,0.32113463953934873,,psi_staircase_training,emotion,,145.25719053245996,145.25719053245996,25.000500000000283,403.1878033000002,1002,29,female,True,4031,4042,False,False,expiration,inspiration
54,121.0,25,F,up,0.3665096000004269,0.4156077686512881,,psi_staircase_training,emotion,,120.36392901436103,120.36392901436103,25.71326925488699,405.0880444000004,1002,29,female,True,4050,4054,False,False,expiration,expiration
55,97.0,25,F,down,1.0883674999995492,0.6880534873719655,,psi_staircase_training,emotion,,102.38876106084959,102.38876106084959,26.14633372628729,406.55432480000036,1002,29,female,True,4064,4075,False,False,expiration,expiration
56,113.0,25,M,down,1.050449999999728,1.6412276614385275,,psi_staircase_training,emotion,,114.01123255420406,114.01123255420406,23.003056417783352,409.65421460000016,1002,29,female,True,4095,4106,False,False,expiration,expiration
57,127.0,25,F,up,0.98031870000068,1.7822767976034417,,psi_staircase_training,emotion,,123.15505271238727,123.15505271238727,23.86267166612523,412.8374377,1002,29,female,True,4127,4137,False,False,peak,expiration
58,117.0,25,M,up,0.9870515000002342,1.5424083952445178,,psi_staircase_training,emotion,,116.72664759921038,116.72664759921038,20.612160618334435,415.72066110000014,1002,29,female,True,4156,4166,False,False,inspiration,expiration
59,107.0,25,F,up,0.4944949999999153,0.7163402871393784,,psi_staircase_training,emotion,,111.41772370799677,111.41772370799677,20.39996786109954,417.7872078999998,1002,29,female,True,4177,4182,False,False,expiration,expiration
60,91.0,25,F,down,0.9858848000003492,1.7147803384109803,,psi_staircase_training,emotion,,104.32443105099111,104.32443105099111,26.32628876540062,420.35383480000013,1002,29,female,True,4202,4212,False,False,expiration,expiration
61,93.0,25,M,down,0.6396714000002248,1.529641852235022,,psi_staircase_training,emotion,,107.92512315738632,107.92512315738632,23.700331269421763,423.23702950000006,1002,29,female,True,4231,4237,False,False,inspiration,expiration
62,124.0,25,F,up,0.8620643000003838,0.7611673915956712,,psi_staircase_training,emotion,,110.22796413543165,110.22796413543165,21.45892762814926,425.00365870000036,1002,29,female,True,4249,4258,False,False,expiration,inspiration
63,95.0,25,F,down,1.0831780999997136,1.1231632228959452,,psi_staircase_training,emotion,,108.403965494472,108.403965494472,19.38210143201049,427.3535343000003,1002,29,female,True,4272,4283,False,False,expiration,expiration
64,122.0,25,F,up,0.8945399000003817,1.3149532028490822,,psi_staircase_training,emotion,,109.94368713509012,109.94368713509012,17.31191981424421,430.12013579999984,1002,29,female,True,4300,4309,False,False,inspiration,expiration
65,103.0,25,M,up,0.9122792999996818,0.6620166736473336,,psi_staircase_training,emotion,,108.67978030968649,108.67978030968649,15.463136412969188,432.05339840000033,1002,29,female,True,4319,4328,False,False,expiration,expiration
66,91.0,25,M,down,0.6417219000004479,0.4544863851204102,,psi_staircase_training,emotion,,105.20990095633208,105.20990095633208,18.6001237526918,433.78696010000016,1002,29,female,True,4337,4343,False,False,inspiration,expiration
67,93.0,25,F,down,0.6817725000000792,1.4355456573126986,,psi_staircase_training,emotion,,106.36848545528969,106.36848545528969,16.668197030963324,436.2199074999999,1002,29,female,True,4361,4368,False,False,expiration,inspiration
68,117.0,25,F,up,0.93587320000006,0.8103670127670791,,psi_staircase_training,emotion,,107.17563135202877,107.17563135202877,15.063014166609644,438.0698048000004,1002,29,female,True,4379,4388,False,False,expiration,expiration
69,105.0,25,M,up,1.0493357000004837,0.5257427435623746,,psi_staircase_training,emotion,,106.13582299230195,106.13582299230195,13.527185789439573,439.88639719999986,1002,29,female,True,4398,4408,False,False,trough,inspiration
70,105.0,25,M,down,0.6640843000004679,0.9901749706628123,,psi_staircase_training,emotion,,104.2298454680224,104.2298454680224,13.199410957044265,442.26966019999963,1002,29,female,True,4421,4428,False,False,expiration,expiration
71,119.0,25,M,down,1.0673784999999043,0.5525839637241676,,psi_staircase_training,emotion,,106.11952202933392,106.11952202933392,14.45974207771448,443.83630379999977,1002,29,female,True,4437,4448,False,False,inspiration,expiration
72,128.0,25,M,up,0.8208501999997679,1.9751721398357325,,psi_staircase_training,emotion,,108.7621841760053,108.7621841760053,20.506330094096253,447.2528296,1002,29,female,True,4471,4479,False,False,expiration,inspiration
73,89.0,25,F,down,1.1629173999999691,1.364495792600498,,psi_staircase_training,emotion,,108.11964001896807,108.11964001896807,19.127220292555343,449.8027541999999,1002,29,female,True,4497,4509,False,False,expiration,expiration
74,126.0,25,F,up,1.281730300000163,1.1138956452789246,,psi_staircase_training,emotion,,108.67937327450387,108.67937327450387,17.848750640566756,452.43596799999983,1002,29,female,True,4523,4536,False,False,inspiration,expiration
75,91.0,25,F,down,0.6447678000004089,0.4470599449261906,,psi_staircase_training,emotion,,108.15697605415043,108.15697605415043,16.680821938459385,454.53589319999986,1002,29,female,True,4544,4550,False,False,expiration,inspiration
76,124.0,25,M,up,0.841244899999765,1.6655381941877696,,psi_staircase_training,emotion,,108.60816081661456,108.60816081661456,15.628967479262624,457.2024650000003,1002,29,female,True,4571,4579,False,False,expiration,expiration
77,93.0,25,M,down,0.7290089999996779,0.8721426271626844,,psi_staircase_training,emotion,,108.16470646716778,108.16470646716778,14.68060119776411,459.28567010000006,1002,29,female,True,4592,4599,False,False,inspiration,expiration
78,122.0,25,F,up,0.6605074999997669,1.6779253794153537,,psi_staircase_training,emotion,,108.54674295648798,108.54674295648798,13.84195192376177,462.0522815000004,1002,29,female,True,4619,4626,False,False,expiration,inspiration
79,95.0,25,F,down,1.4178234000000884,0.5432307250381774,,psi_staircase_training,emotion,,108.14814307574028,108.14814307574028,13.086531707267385,463.61887149999984,1002,29,female,True,4635,4649,False,False,inspiration,expiration
80,120.0,25,M,up,1.1442273999991812,1.0919227756097942,,psi_staircase_training,emotion,,108.49286282418268,108.49286282418268,12.42428378496099,466.48547130000037,1002,29,female,True,4664,4675,False,False,inspiration,expiration
81,119.0,25,M,up,0.4929802999995445,0.4218325612566047,,psi_staircase_training,emotion,,108.11181749285069,108.11181749285069,11.821091556067165,468.4187165000003,1002,29,female,True,4683,4688,False,False,expiration,expiration
82,0.29,25,up,up,0.6824996999994255,1.3049749095155678,,psi_staircase,cRDM,,0.25,0.25693124029946324,0.10500000000000002,487.7512345000005,1002,29,female,True,4876,4883,False,False,inspiration,inspiration
83,0.25,25,up,down,1.0595202000004065,1.2570672731011627,,psi_staircase,cRDM,,0.21910266653183127,0.2260132002683493,0.10468632033873933,489.9511537999997,1002,29,female,True,4898,4909,False,False,expiration,inspiration
84,0.36,25,down,down,0.4756124000005002,1.685742068909218,,psi_staircase,cRDM,,0.3202997408361979,0.3276103223604739,0.1107465658214764,492.9510515000002,1002,29,female,True,4928,4933,False,False,expiration,expiration
85,0.33,25,down,down,0.5037538000005952,1.7276421306745802,,psi_staircase,cRDM,,0.2990372097977385,0.30641398280716875,0.1117492876491608,495.40098630000017,1002,29,female,True,4953,4958,False,False,peak,expiration
86,0.31,25,up,up,0.3504994999993869,1.408080780502276,,psi_staircase,cRDM,,0.2780189805609542,0.28539811096413914,0.1117849993448388,497.5842275000005,1002,29,female,True,4975,4979,False,False,inspiration,inspiration
87,0.31,25,down,down,0.5622134999994159,1.1025656374823551,,psi_staircase,cRDM,,0.2582073586141265,0.2655339603556145,0.11098925295027023,499.3674779000002,1002,29,female,True,4992,4998,False,False,expiration,expiration
88,0.29,25,up,down,1.0648480999998355,0.505032461687744,,psi_staircase,cRDM,,0.24138240409280395,0.2485489846939697,0.1085651240775294,500.70082310000004,1002,29,female,True,5006,5017,False,False,inspiration,peak
89,0.34,25,down,down,0.6239689000003636,1.6718615560566694,,psi_staircase,cRDM,,0.3073454417166785,0.3149277051621045,0.11486222196500452,503.7006812,1002,29,female,True,5036,5042,False,False,expiration,inspiration
90,0.33,25,down,down,0.6286961000005249,0.7954193220340682,,psi_staircase,cRDM,,0.2927292575981572,0.3001400641015301,0.11226485437453584,505.3839773,1002,29,female,True,5053,5059,False,False,expiration,expiration
91,0.33,25,up,up,0.6472190000004048,1.9776694716393064,,psi_staircase,cRDM,,0.2799629878781474,0.2871409858153892,0.1087380830626744,508.25047360000013,1002,29,female,True,5081,5087,False,False,inspiration,expiration
92,0.33,25,down,down,0.6329502999997203,1.723803712707195,,psi_staircase,cRDM,,0.2695926699591432,0.27647644068577243,0.10428089275047113,510.8837233000004,1002,29,female,True,5108,5114,False,False,inspiration,expiration
93,0.28,25,down,down,0.6323069000000032,0.9148602505335988,,psi_staircase,cRDM,,0.2614704990066661,0.26802891992721084,0.09935223234296454,512.7003402999999,1002,29,female,True,5126,5132,False,False,expiration,expiration
94,0.27,25,down,down,0.4447276000000784,0.5786798753019677,,psi_staircase,cRDM,,0.24646701585008815,0.25359997726477074,0.108055833614608,514.1669603999999,1002,29,female,True,5141,5145,False,False,inspiration,inspiration
95,0.27,25,up,down,1.1225052999998295,1.8964613345073724,,psi_staircase,cRDM,,0.2304596381176586,0.2381767732488236,0.1169053666823628,516.7671655000004,1002,29,female,True,5167,5178,False,False,trough,inspiration
96,0.32,25,up,up,0.6473171999996339,1.3738477966880571,,psi_staircase,cRDM,,0.2762334270077306,0.28267416092070596,0.09756941494508373,519.5333974000006,1002,29,female,True,5194,5200,False,False,expiration,expiration
97,0.31,25,down,down,0.497404099999585,1.883760027108208,,psi_staircase,cRDM,,0.2699635361621891,0.2760639025578888,0.09241325417588886,522.3333106999999,1002,29,female,True,5222,5227,False,False,expiration,expiration
98,0.28,25,down,down,0.6540973000001031,1.3622896912783775,,psi_staircase,cRDM,,0.26397611264570525,0.2698453180907049,0.08891144226707705,524.4665659000002,1002,29,female,True,5244,5251,False,False,inspiration,inspiration
99,0.27,25,up,down,0.8778291999997236,0.9149404115474722,,psi_staircase,cRDM,,0.2527208924700063,0.2591850578441984,0.09792437355587423,526.2998304000001,1002,29,female,True,5262,5271,False,False,expiration,expiration
100,0.31,25,up,up,0.5212423000002673,0.8824473640911439,,psi_staircase,cRDM,,0.2818327587367206,0.2866422813733069,0.07285851521850628,528.3164278000004,1002,29,female,True,5282,5287,False,False,inspiration,inspiration
101,0.3,25,up,up,0.8836097000003065,0.6870210120489084,,psi_staircase,cRDM,,0.27785352855835804,0.2823379797322049,0.06793407137974833,529.7830497000003,1002,29,female,True,5297,5306,False,False,expiration,expiration
102,0.3,25,up,up,0.8670547000001534,0.3101109459837984,,psi_staircase,cRDM,,0.2734958837477033,0.2778400311455894,0.06580863699291555,531.2496226000003,1002,29,female,True,5311,5320,False,False,inspiration,inspiration
103,0.29,25,down,down,0.5938225999998394,1.6462158370077629,,psi_staircase,cRDM,,0.2699744846280461,0.2741483049142776,0.06322838498158068,534.0328564000001,1002,29,female,True,5339,5345,False,False,expiration,inspiration
104,0.29,25,down,down,0.6228326999998899,0.5529000320892188,,psi_staircase,cRDM,,0.2650588554860926,0.2693232150512462,0.06459994676216857,535.4328329999998,1002,29,female,True,5353,5359,False,False,inspiration,expiration
105,0.26,25,down,down,0.7072932000000947,1.6475890933014008,,psi_staircase,cRDM,,0.26068493291925554,0.2649898930219701,0.06521499634344399,537.9493730000004,1002,29,female,True,5378,5385,False,False,expiration,inspiration
106,0.26,25,up,up,1.042333499999586,1.088966031970029,,psi_staircase,cRDM,,0.2502199351493998,0.2554762740545769,0.07962724724553785,539.9993313000003,1002,29,female,True,5399,5409,False,False,expiration,expiration
107,0.26,25,up,up,0.8610803999999916,0.5181711827059655,,psi_staircase,cRDM,,0.23820263796439775,0.24443945889734284,0.09448037720030313,541.8325707000004,1002,29,female,True,5417,5426,False,False,inspiration,inspiration
108,0.25,25,down,down,0.6895345000002635,1.9984670797289923,,psi_staircase,cRDM,,0.2254599502521235,0.2326211908242625,0.10848422902504536,544.9491224000003,1002,29,female,True,5448,5455,False,False,expiration,inspiration
109,0.25,25,down,down,0.5579944999999498,1.1608924314511275,,psi_staircase,cRDM,,0.21228147311600407,0.22030572963333545,0.121557888331333,547.0657173999998,1002,29,female,True,5470,5476,False,False,expiration,expiration
110,0.25,25,up,down,0.8857000000007247,1.6565552646210844,,psi_staircase,cRDM,,0.1998697287078362,0.208589823330166,0.1320990033220364,549.5489550000002,1002,29,female,True,5494,5503,False,False,inspiration,expiration
111,0.26,25,up,up,1.4593824000003224,0.4815545425566408,,psi_staircase,cRDM,,0.2350866190125537,0.24216112265845915,0.10717026833964928,551.1823035999996,1002,29,female,True,5511,5526,False,False,expiration,inspiration
112,0.25,25,down,down,0.5886043999998947,1.4064900165398706,,psi_staircase,cRDM,,0.2242290922870268,0.2320843430244472,0.1189976529154551,554.3321044000004,1002,29,female,True,5542,5548,False,False,expiration,expiration
113,0.25,25,up,up,0.9930111999992732,1.7711916008144113,,psi_staircase,cRDM,,0.213328776506343,0.22189281081073955,0.12973487617090262,556.9486680999998,1002,29,female,True,5568,5578,False,False,inspiration,expiration
114,0.25,25,down,down,0.6360645000004297,1.4405920970714068,,psi_staircase,cRDM,,0.20324773318609213,0.2123647554548879,0.13811198239623654,559.6485733,1002,29,female,True,5595,5601,False,False,inspiration,inspiration
115,0.25,25,up,up,1.0265398000001371,1.813439478015361,,psi_staircase,cRDM,,0.1941717058650731,0.2036991987561088,0.14433012135450182,562.3651417000002,1002,29,female,True,5623,5633,False,False,expiration,inspiration
116,0.24,25,down,down,0.6398912000004202,0.4269267956619601,,psi_staircase,cRDM,,0.1860939049577299,0.1959153083547542,0.14878251397046627,564.0817672000002,1002,29,female,True,5640,5646,False,False,inspiration,inspiration
117,0.24,25,up,up,0.6099595000005138,1.0966110784187837,,psi_staircase,cRDM,,0.1785304007012673,0.18858088618994734,0.15225283365130546,566.0817274000002,1002,29,female,True,5660,5666,False,False,expiration,expiration
118,0.23,25,down,down,0.6230044000003545,0.873302650666028,,psi_staircase,cRDM,,0.17169989395462762,0.18191269037545146,0.1547116501312965,567.8316359,1002,29,female,True,5677,5683,False,False,expiration,expiration
119,0.19,25,up,up,1.0381553999995958,1.4226995497881516,,psi_staircase,cRDM,,0.16514869354265374,0.1754926154927522,0.15669804505904095,570.1315384999998,1002,29,female,True,5700,5710,False,False,expiration,expiration
120,0.16,25,up,down,1.3722152999998798,1.2049015013438331,,psi_staircase,cRDM,,0.15789047556250288,0.16839358101884475,0.15910948477739242,572.6314436000002,1002,29,female,True,5725,5739,False,False,inspiration,expiration
121,0.23,25,down,down,0.8043191000006118,1.0661365672891738,,psi_staircase,cRDM,,0.17855012741336967,0.18856430754155287,0.1517028508650407,575.3313354000003,1002,29,female,True,5752,5760,False,False,expiration,expiration
122,0.21,25,down,down,0.5643833000003724,1.2348343836050275,,psi_staircase,cRDM,,0.17277545094016938,0.1828963492866076,0.15331950422470553,577.6312805999996,1002,29,female,True,5775,5781,False,False,inspiration,inspiration
123,0.16,25,down,down,0.8775317999998151,1.4661863398478276,,psi_staircase,cRDM,,0.16679935441679322,0.17703486779196825,0.15505578481770427,579.9311766000002,1002,29,female,True,5798,5807,False,False,expiration,expiration
124,0.15,25,up,up,0.6892621000006329,0.7512037242059457,,psi_staircase,cRDM,,0.1598569908162526,0.17028477574479492,0.15796846887298538,581.8144313000003,1002,29,female,True,5817,5824,False,False,inspiration,inspiration
125,0.14,25,up,up,0.8719590999999127,0.9895616025070422,,psi_staircase,cRDM,,0.15284870522148594,0.16347089715015728,0.16091350239247318,583.7646710999998,1002,29,female,True,5837,5846,False,False,expiration,expiration
126,0.14,25,down,up,0.9953728000000408,0.7134547599437586,,psi_staircase,cRDM,,0.14579374823385166,0.1566110412222732,0.16386905008505046,585.6143032999997,1002,29,female,True,5855,5865,False,False,inspiration,expiration
127,0.15,25,down,down,1.002197900000283,1.6568232800939102,,psi_staircase,cRDM,,0.1635808481669816,0.17393814949527114,0.15690072663540724,588.5474930999999,1002,29,female,True,5884,5894,False,False,inspiration,inspiration
128,0.14,25,down,down,0.5845662000001539,0.7832051067936502,,psi_staircase,cRDM,,0.15705846084186914,0.16760402689749174,0.15975271206888025,590.6141127000002,1002,29,female,True,5905,5911,False,False,expiration,expiration
129,0.13,25,up,up,0.7449206000001141,1.5162474029224868,,psi_staircase,cRDM,,0.1504673142524409,0.16120565698085024,0.16267304807918648,592.9807294999999,1002,29,female,True,5929,5936,False,False,peak,expiration
130,0.13,25,up,up,0.6843886000006023,0.3693341754435339,,psi_staircase,cRDM,,0.1438308944950885,0.15476462989251855,0.1656330133034139,594.3472826999996,1002,29,female,True,5942,5949,False,False,expiration,trough
131,0.12,25,up,up,1.0464009999996051,0.6946779445992359,,psi_staircase,cRDM,,0.13732617603766506,0.14844090357594694,0.16837482775052126,595.9972484999997,1002,29,female,True,5959,5969,False,False,inspiration,expiration
132,100.0,25,M,down,1.0439622999992937,1.6138175519449984,,psi_staircase,emotion,,100.0,100.0,25.00050000000001,640.9956728999996,1002,29,female,True,6409,6419,False,False,expiration,inspiration
133,145.0,25,M,up,0.9644719999996596,1.9150500964471788,,psi_staircase,emotion,,145.25719053245996,145.25719053245996,25.000500000000283,644.3122008999999,1002,29,female,True,6442,6452,False,False,expiration,expiration
134,121.0,25,F,down,0.6535562999997637,1.021306585226288,,psi_staircase,emotion,,120.36392901436103,120.36392901436103,25.71326925488699,646.6620787000003,1002,29,female,True,6465,6472,False,False,inspiration,expiration
135,137.0,25,F,up,0.7696174000002429,0.9313118179608012,,psi_staircase,emotion,,137.8359832966118,137.8359832966118,25.292325986285494,648.6120222999998,1002,29,female,True,6485,6493,False,False,expiration,expiration
136,127.0,25,M,up,0.6797546999996484,0.6301908632095479,,psi_staircase,emotion,,126.46069055808249,126.46069055808249,23.649751085611292,650.3619042,1002,29,female,True,6502,6509,False,False,inspiration,inspiration
137,113.0,25,F,up,0.8284461000002921,1.4426645780463334,,psi_staircase,emotion,,117.5164469811675,117.5164469811675,24.576174135130763,652.8452090999998,1002,29,female,True,6527,6535,False,False,expiration,expiration
138,94.0,25,M,down,0.5322957000007591,1.1378212860670345,,psi_staircase,emotion,,106.52678028801836,106.52678028801836,30.115701177201284,655.1784261000003,1002,29,female,True,6551,6556,False,False,inspiration,inspiration
139,98.0,25,F,down,1.236912200000006,1.724940997329603,,psi_staircase,emotion,,112.69176471044777,112.69176471044777,27.72735343080098,657.8117000000002,1002,29,female,True,6577,6589,False,False,expiration,expiration
140,132.0,25,F,up,0.7480410000007396,0.8676110815164644,,psi_staircase,emotion,,116.55524461345101,116.55524461345101,25.686082281091608,660.2785961999998,1002,29,female,True,6602,6609,False,False,inspiration,inspiration
141,103.0,25,M,down,0.4925020999999106,1.189324173907596,,psi_staircase,emotion,,113.7593527695303,113.7593527695303,23.877520687671648,662.5781555000002,1002,29,female,True,6625,6630,False,False,expiration,expiration
142,131.0,25,F,up,1.1975474999999278,1.1442859633191966,,psi_staircase,emotion,,116.68945046105982,116.68945046105982,21.89311654377142,664.5781158999997,1002,29,female,True,6645,6657,False,False,inspiration,expiration
143,107.0,25,F,down,1.4312565000000177,0.3699300982686891,,psi_staircase,emotion,,114.79233295674628,114.79233295674628,20.061136582159428,666.5113677999998,1002,29,female,True,6664,6678,False,False,expiration,expiration
144,130.0,25,F,up,0.7513772000002064,0.3149971614047815,,psi_staircase,emotion,,117.11272584921343,117.11272584921343,18.33489581650149,668.6112934000002,1002,29,female,True,6685,6693,False,False,inspiration,peak
145,111.0,25,M,down,1.250065899999754,0.5205292617313425,,psi_staircase,emotion,,115.7958455743708,115.7958455743708,16.641291449905072,670.2445524000004,1002,29,female,True,6701,6714,False,False,expiration,expiration
146,121.0,25,M,up,1.0778829999999289,1.2896410850538973,,psi_staircase,emotion,,117.79993741073204,117.79993741073204,15.346325248223831,673.1278005000004,1002,29,female,True,6730,6741,False,False,inspiration,expiration
147,105.0,25,F,down,0.6873187999999573,1.2715631379368424,,psi_staircase,emotion,,115.90108364121376,115.90108364121376,14.755768981299555,675.8443362999998,1002,29,female,True,6757,6764,False,False,inspiration,inspiration
148,126.0,25,F,up,0.7567113999994035,0.6086780899719835,,psi_staircase,emotion,,116.82173793680451,116.82173793680451,13.256523911270984,677.5109536999997,1002,29,female,True,6774,6782,False,False,expiration,expiration
149,114.0,25,M,up,0.4857520999994449,0.4892967907129821,,psi_staircase,emotion,,115.99237304873286,115.99237304873286,12.006338949191171,679.1109142000005,1002,29,female,True,6790,6795,False,False,expiration,inspiration
150,104.0,25,M,up,0.8221217000000252,0.8359328940498201,,psi_staircase,emotion,,114.01275936203024,114.01275936203024,12.685300728448224,680.7775111000002,1002,29,female,True,6807,6815,False,False,inspiration,expiration
151,95.0,25,M,up,1.145957200000339,1.7017007108662556,,psi_staircase,emotion,,111.09484566507366,111.09484566507366,18.41671002459685,683.6607102999998,1002,29,female,True,6836,6847,False,False,inspiration,peak
152,85.0,25,M,down,0.6093823999999586,1.4502852447472725,,psi_staircase,emotion,,106.99921558431444,106.99921558431444,25.800972385112424,686.6272881000003,1002,29,female,True,6865,6871,False,False,expiration,inspiration
153,86.0,25,F,down,0.459145400000125,1.070813905352571,,psi_staircase,emotion,,108.16743602848257,108.16743602848257,24.21753990293977,688.6605103999999,1002,29,female,True,6886,6891,False,False,expiration,expiration
154,87.0,25,F,down,0.5178726000003735,1.1588416358777802,,psi_staircase,emotion,,109.08298549163479,109.08298549163479,22.794253898695636,690.6437924000003,1002,29,female,True,6905,6910,False,False,inspiration,inspiration
155,89.0,25,F,down,0.7056235999998535,1.1933311084688876,,psi_staircase,emotion,,109.8053303636605,109.8053303636605,21.523255666822237,692.7270439000004,1002,29,female,True,6926,6933,False,False,expiration,expiration
156,131.0,25,M,up,0.7169819999999163,1.3180384736370685,,psi_staircase,emotion,,110.40819465960944,110.40819465960944,20.37258396447605,695.0936511999997,1002,29,female,True,6950,6957,False,False,inspiration,expiration
157,90.0,25,M,down,1.1164245999998457,0.5844718633402664,,psi_staircase,emotion,,109.88092805914968,109.88092805914968,19.31974943505506,696.7602297000003,1002,29,female,True,6967,6978,False,False,expiration,expiration
158,129.0,25,F,up,0.6064092999995411,0.7192574814625778,,psi_staircase,emotion,,110.36866834190704,110.36866834190704,18.336778773938274,698.9602330999996,1002,29,female,True,6989,6995,False,False,inspiration,peak
159,92.0,25,F,down,0.5915512000001399,0.4396750356262449,,psi_staircase,emotion,,109.90722194388461,109.90722194388461,17.430691907575632,700.3600988999997,1002,29,female,True,7003,7009,False,False,expiration,expiration
160,127.0,25,M,up,0.6619474999997692,0.7253752814499943,,psi_staircase,emotion,,110.3369930476291,110.3369930476291,16.59817298871003,702.0267182999997,1002,29,female,True,7019,7026,False,False,inspiration,inspiration
161,94.0,25,M,down,0.6623219000002791,0.5508214698018877,,psi_staircase,emotion,,109.91844904182543,109.91844904182543,15.833240706987743,703.5933396,1002,29,female,True,7035,7042,False,False,expiration,expiration
162,125.0,25,F,up,1.108401800000138,1.627724541511272,,psi_staircase,emotion,,110.31353908831166,110.31353908831166,15.136105053430937,706.2432292000003,1002,29,female,True,7061,7072,False,False,inspiration,expiration
163,96.0,25,M,up,0.7578665000000909,1.397949113529828,,psi_staircase,emotion,,109.91852874270883,109.91852874270883,14.493764900846918,709.1097970000002,1002,29,female,True,7090,7098,False,False,inspiration,inspiration
164,89.0,25,F,up,0.6405414999999266,0.3656042207797995,,psi_staircase,emotion,,108.04175655488643,108.04175655488643,17.384448375588633,710.5930771000003,1002,29,female,True,7105,7111,False,False,expiration,expiration
165,82.0,25,M,down,0.840043300000616,1.8823307374271765,,psi_staircase,emotion,,105.96372262257287,105.96372262257287,21.590028280510303,713.4766322000005,1002,29,female,True,7134,7142,False,False,peak,expiration
166,83.0,25,F,down,0.7396883999999773,0.4725213777619668,,psi_staircase,emotion,,106.35872238988955,106.35872238988955,20.760247690203105,715.1429000999997,1002,29,female,True,7150,7157,False,False,expiration,inspiration
167,128.0,25,M,up,0.7931762999996863,0.8615261911410583,,psi_staircase,emotion,,106.69794322318016,106.69794322318016,20.015643801665828,717.1094841000003,1002,29,female,True,7170,7178,False,False,expiration,expiration
168,85.0,25,F,down,0.626905699999952,1.977970552917769,,psi_staircase,emotion,,106.35632784941221,106.35632784941221,19.32004730992255,720.2427203999997,1002,29,female,True,7201,7207,False,False,inspiration,expiration
169,127.0,25,M,up,0.5206890999997995,0.8009160906961599,,psi_staircase,emotion,,106.66924966799324,106.66924966799324,18.672621890076908,722.0259763000003,1002,29,female,True,7219,7224,False,False,expiration,expiration
170,86.0,25,M,down,0.5768356999997195,1.7667059241542344,,psi_staircase,emotion,,106.359957443648,106.359957443648,18.075817642684914,724.6758443999997,1002,29,female,True,7246,7252,False,False,expiration,expiration
171,125.0,25,F,up,0.6005697000000509,1.858746445159255,,psi_staircase,emotion,,106.63850895132369,106.63850895132369,17.527919053035937,727.4590865999999,1002,29,female,True,7273,7279,False,False,inspiration,peak
172,124.0,25,F,up,0.3835085999999137,0.5219474222847668,,psi_staircase,emotion,,106.33308308621568,106.33308308621568,17.00712594838582,728.9423806000003,1002,29,female,True,7288,7292,False,False,expiration,expiration
173,88.0,25,F,down,0.6512778999995135,0.3777013383066419,,psi_staircase,emotion,,106.04749272898684,106.04749272898684,16.53421050198903,730.0923604,1002,29,female,True,7300,7307,False,False,expiration,inspiration
174,123.0,25,M,up,1.2180242000004,1.5520658030796806,,psi_staircase,emotion,,106.31864568014271,106.31864568014271,16.08422858535818,732.6755980999997,1002,29,female,True,7326,7338,False,False,expiration,expiration
175,89.0,25,M,,,0.8045529620332352,,psi_staircase,emotion,,106.04590168471258,106.04590168471258,15.674626750351385,735.0588194000003,1002,29,female,True,7350,0,False,False,inspiration,0
176,89.0,25,F,down,0.6605766000002404,0.8045529620332352,,psi_staircase,emotion,,106.04590168471258,106.04590168471258,15.674626750351385,738.5420267999997,1002,29,female,True,7384,7391,False,False,inspiration,inspiration
177,122.0,25,F,down,0.8420489000000089,1.4506601452359082,,psi_staircase,emotion,,106.2990168846277,106.2990168846277,15.288847059026427,741.0086136,1002,29,female,True,7409,7417,False,False,expiration,trough
178,89.0,25,F,down,0.6107960999997886,1.7399969397260375,,psi_staircase,emotion,,107.71277044702472,107.71277044702472,17.207938190009155,743.9418254999999,1002,29,female,True,7438,7444,False,False,expiration,expiration
179,126.0,25,F,up,0.6119116999998369,1.7890634763637594,,psi_staircase,emotion,,107.9553931444748,107.9553931444748,16.800274357357072,746.6917313000004,1002,29,female,True,7466,7472,False,False,inspiration,inspiration
180,90.0,25,M,down,0.7992831999999908,0.3485979769848265,,psi_staircase,emotion,,107.70937382516438,107.70937382516438,16.414566119060257,748.0083596000003,1002,29,female,True,7479,7487,False,False,peak,expiration
181,125.0,25,M,down,1.0553283000008378,1.8477937652536889,,psi_staircase,emotion,,107.94182028598652,107.94182028598652,16.059885922090643,751.0082947999998,1002,29,female,True,7509,7520,False,False,expiration,expiration
182,130.0,25,M,up,0.6551710000003368,0.4087788381396861,,psi_staircase,emotion,,109.28758051300535,109.28758051300535,17.976932556293942,752.8414800999999,1002,29,female,True,7527,7534,False,False,trough,inspiration
183,0.13084434311626114,25,down,up,1.092609999999695,0.8453728309760269,,experiment,cRDM,0.0,,,,763.4910361000003,1002,29,female,True,7634,7645,False,False,expiration,expiration
184,0.13084434311626114,25,down,up,0.6118504000005487,1.0951611780303916,,experiment,cRDM,0.0,,,,765.9578007,1002,29,female,True,7659,7665,False,False,inspiration,inspiration
185,0.13084434311626114,25,down,down,0.6881113999997979,1.1700368825995604,,experiment,cRDM,0.0,,,,768.0075382000005,1002,29,female,True,7679,7686,False,False,expiration,expiration
186,0.13084434311626114,25,up,up,0.749511199999688,1.9125363394855484,,experiment,cRDM,0.0,,,,770.8740987000001,1002,29,female,True,7708,7715,False,False,expiration,expiration
187,0.13084434311626114,25,up,up,0.6219492999998693,1.5421480316920495,,experiment,cRDM,0.0,,,,773.4406507000003,1002,29,female,True,7733,7739,False,False,inspiration,inspiration
188,0.13084434311626114,25,up,up,0.7933624999996027,1.0316402988064766,,experiment,cRDM,0.0,,,,775.3572715999999,1002,29,female,True,7753,7761,False,False,expiration,expiration
189,0.13084434311626114,25,up,up,0.6221138000000792,1.488547000314537,,experiment,cRDM,0.0,,,,777.8905009,1002,29,female,True,7778,7784,False,False,inspiration,expiration
190,0.13084434311626114,25,up,up,0.6332282000003033,1.7197215604409375,,experiment,cRDM,0.0,,,,780.4904128999997,1002,29,female,True,7804,7810,False,False,inspiration,inspiration
191,0.13084434311626114,25,down,down,0.7042738999998619,1.8993288230748973,,experiment,cRDM,0.0,,,,783.290336,1002,29,female,True,7832,7839,False,False,inspiration,inspiration
192,0.13084434311626114,25,down,up,0.5750893999993423,1.7734320022536358,,experiment,cRDM,0.0,,,,786.0235420999996,1002,29,female,True,7859,7865,False,False,expiration,expiration
193,0.13084434311626114,25,up,up,0.6974408000005496,1.330054573811408,,experiment,cRDM,0.0,,,,788.1901543000004,1002,29,female,True,7881,7888,False,False,inspiration,expiration
194,0.13084434311626114,25,down,up,0.4391255999998975,0.5893058639372841,,experiment,cRDM,0.0,,,,789.7233929000002,1002,29,female,True,7896,7900,False,False,expiration,expiration
195,0.13084434311626114,25,down,up,0.684306099999958,1.248343049576952,,experiment,cRDM,0.0,,,,791.6733290000003,1002,29,female,True,7916,7923,False,False,inspiration,inspiration
196,0.13084434311626114,25,up,up,0.9110854999998992,1.7407007717644796,,experiment,cRDM,0.0,,,,794.3565448999997,1002,29,female,True,7942,7951,False,False,expiration,expiration
197,0.13084434311626114,25,down,down,0.7501693000003797,1.547199840670377,,experiment,cRDM,0.0,,,,797.0564352000001,1002,29,female,True,7970,7978,False,False,expiration,expiration
198,0.13084434311626114,25,down,down,0.6652413000001616,0.4659991143003184,,experiment,cRDM,0.0,,,,798.5563846000005,1002,29,female,True,7984,7991,False,False,expiration,expiration
199,0.13084434311626114,25,up,up,0.6559958999996525,1.6586170968205638,,experiment,cRDM,0.0,,,,801.1396420000002,1002,29,female,True,8010,8017,False,False,expiration,expiration
200,0.13084434311626114,25,up,up,1.288387600000533,1.30591600304178,,experiment,cRDM,0.0,,,,803.3561978999996,1002,29,female,True,8032,8045,False,False,inspiration,inspiration
201,0.13084434311626114,25,down,up,0.9510824000008142,0.9963353581727404,,experiment,cRDM,0.0,,,,805.8894994000003,1002,29,female,True,8058,8068,False,False,expiration,expiration
202,0.13084434311626114,25,up,up,0.7615980000000491,1.4588102532433724,,experiment,cRDM,0.0,,,,808.5560309000003,1002,29,female,True,8084,8092,False,False,inspiration,expiration
203,0.13084434311626114,25,down,down,0.6713153999999122,0.9032489262506428,,experiment,cRDM,0.0,,,,810.4892896000001,1002,29,female,True,8104,8111,False,False,expiration,expiration
204,0.13084434311626114,25,down,down,0.6724182999996628,0.5638572622073078,,experiment,cRDM,0.0,,,,811.9892396000005,1002,29,female,True,8119,8126,False,False,inspiration,inspiration
205,0.13084434311626114,25,up,up,0.6394880000007106,1.5073825796153733,,experiment,cRDM,0.0,,,,814.4391285000003,1002,29,female,True,8143,8149,False,False,expiration,expiration
206,0.13084434311626114,25,down,down,0.9625719000005122,1.0072049460541683,,experiment,cRDM,0.0,,,,816.3390626,1002,29,female,True,8162,8172,False,False,inspiration,expiration
207,0.13084434311626114,25,up,up,0.9016688000001524,0.6207834428083583,,experiment,cRDM,0.0,,,,818.1890007999999,1002,29,female,True,8181,8190,False,False,expiration,expiration
208,0.13084434311626114,25,up,up,0.7476824000004854,0.9943148594622228,,experiment,cRDM,0.0,,,,820.3389220999996,1002,29,female,True,8202,8209,False,False,inspiration,peak
209,0.13084434311626114,25,down,down,0.798820799999703,1.0928161187813776,,experiment,cRDM,0.0,,,,822.4388165999999,1002,29,female,True,8223,8231,False,False,expiration,expiration
210,0.13084434311626114,25,up,up,0.7311970000000656,0.7124647161781781,,experiment,cRDM,0.0,,,,824.2054439000003,1002,29,female,True,8241,8248,False,False,inspiration,inspiration
211,0.13084434311626114,25,down,down,0.6394996999997602,0.8823531626105519,,experiment,cRDM,0.0,,,,826.0720944000003,1002,29,female,True,8260,8266,False,False,expiration,expiration
212,0.13084434311626114,25,up,up,0.6530086999991909,1.569901644786424,,experiment,cRDM,0.0,,,,828.5386033000003,1002,29,female,True,8284,8291,False,False,inspiration,expiration
213,0.13084434311626114,25,up,up,0.5911030999996001,1.13633319438305,,experiment,cRDM,0.0,,,,830.5885557000001,1002,29,female,True,8305,8311,False,False,expiration,inspiration
214,0.13084434311626114,25,down,down,0.6864998000000924,1.562063354172442,,experiment,cRDM,0.0,,,,833.0051377,1002,29,female,True,8329,8336,False,False,expiration,expiration
215,0.13084434311626114,25,down,down,1.139883899999404,0.7261690212356902,,experiment,cRDM,0.0,,,,834.6717578999996,1002,29,female,True,8346,8357,False,False,inspiration,inspiration
216,0.13084434311626114,25,down,down,0.6739497999997184,0.8927368075901052,,experiment,cRDM,0.0,,,,836.9716842999997,1002,29,female,True,8369,8376,False,False,expiration,expiration
217,0.13084434311626114,25,down,down,0.7020546999992803,0.5241664778965088,,experiment,cRDM,0.0,,,,838.4215899000002,1002,29,female,True,8383,8390,False,False,inspiration,inspiration
218,0.13084434311626114,25,up,up,0.8857714000005217,1.6550004571521628,,experiment,cRDM,0.0,,,,841.0548538000003,1002,29,female,True,8410,8419,False,False,expiration,trough
219,0.13084434311626114,25,up,up,0.6591666999993322,1.957284240311176,,experiment,cRDM,0.0,,,,844.1714190000004,1002,29,female,True,8441,8448,False,False,expiration,expiration
220,0.13084434311626114,25,up,up,0.6459657999994306,1.3605752751723956,,experiment,cRDM,0.0,,,,846.4546286000003,1002,29,female,True,8464,8470,False,False,inspiration,expiration
221,0.13084434311626114,25,down,down,0.7020122999992964,0.5316189824865176,,experiment,cRDM,0.0,,,,847.9045715000003,1002,29,female,True,8478,8485,False,False,expiration,expiration
222,0.13084434311626114,25,up,down,1.0567352999996729,1.2305687302506227,,experiment,cRDM,0.0,,,,850.0878613000003,1002,29,female,True,8500,8511,False,False,inspiration,expiration
223,0.13084434311626114,25,down,down,0.6011646999995719,0.7507958001117617,,experiment,cRDM,0.0,,,,852.1544295000003,1002,29,female,True,8521,8527,False,False,expiration,inspiration
224,0.13084434311626114,25,down,,,0.3834682494952516,,experiment,cRDM,0.0,,,,853.4043825999997,1002,29,female,True,8533,0,False,False,inspiration,0
225,0.13084434311626114,25,up,up,0.8396468999999342,0.8831950858954514,,experiment,cRDM,0.0,,,,856.9709481999997,1002,29,female,True,8569,8577,False,False,inspiration,expiration
226,0.13084434311626114,25,down,down,0.6387295000004087,0.999159466495222,,experiment,cRDM,0.0,,,,859.0708739000003,1002,29,female,True,8590,8596,False,False,expiration,trough
227,0.13084434311626114,25,up,up,0.894833600000311,0.8364746475186837,,experiment,cRDM,0.0,,,,860.8207709999997,1002,29,female,True,8607,8616,False,False,inspiration,expiration
228,0.13084434311626114,25,up,down,0.8789829999996073,1.5435341749955866,,experiment,cRDM,0.0,,,,863.5206405999998,1002,29,female,True,8634,8643,False,False,inspiration,inspiration
229,0.13084434311626114,25,up,up,0.6907639000000927,0.7923569492157545,,experiment,cRDM,0.0,,,,865.4539109999997,1002,29,female,True,8654,8661,False,False,expiration,expiration
230,0.13084434311626114,25,up,up,0.7310508999999001,1.3668429157316462,,experiment,cRDM,0.0,,,,867.7705446,1002,29,female,True,8677,8684,False,False,inspiration,inspiration
231,0.13084434311626114,25,down,down,0.7661674000000858,1.799180518872986,,experiment,cRDM,0.0,,,,870.5704286999999,1002,29,female,True,8705,8713,False,False,expiration,inspiration
232,0.13084434311626114,25,down,down,0.7089363000004596,0.8516050572185581,,experiment,cRDM,0.0,,,,872.4536606000001,1002,29,female,True,8724,8731,False,False,expiration,expiration
233,0.13084434311626114,25,down,down,0.8403794999994716,1.251211521300722,,experiment,cRDM,0.0,,,,874.6702149000004,1002,29,female,True,8746,8754,False,False,inspiration,expiration
234,0.13084434311626114,25,down,down,0.6964736999998422,0.7845701246783274,,experiment,cRDM,0.0,,,,876.5701577999997,1002,29,female,True,8765,8772,False,False,expiration,expiration
235,0.13084434311626114,25,up,down,0.5185084999993705,1.0255060467515615,,experiment,cRDM,0.0,,,,878.5700839000001,1002,29,female,True,8785,8790,False,False,inspiration,expiration
236,0.13084434311626114,25,up,up,0.5938421000000744,1.5413628573813123,,experiment,cRDM,0.0,,,,880.8867252,1002,29,female,True,8808,8814,False,False,expiration,inspiration
237,0.13084434311626114,25,up,down,0.7029723000005106,0.790767912593016,,experiment,cRDM,0.0,,,,882.5366309000002,1002,29,female,True,8824,8831,False,False,inspiration,inspiration
238,0.13084434311626114,25,up,down,0.7213940000001458,1.1506086715910238,,experiment,cRDM,0.0,,,,884.6531952000005,1002,29,female,True,8845,8852,False,False,expiration,expiration
239,0.13084434311626114,25,down,down,0.522123400000055,0.7582409229929098,,experiment,cRDM,0.0,,,,886.3864898000003,1002,29,female,True,8863,8868,False,False,expiration,expiration
240,0.13084434311626114,25,down,down,0.8861933999996836,1.1603520439682151,,experiment,cRDM,0.0,,,,888.3364099999999,1002,29,female,True,8882,8891,False,False,inspiration,expiration
241,0.13084434311626114,25,down,down,0.6992332999998325,0.8436829576527178,,experiment,cRDM,0.0,,,,890.3363405999999,1002,29,female,True,8902,8909,False,False,expiration,expiration
242,0.13084434311626114,25,up,up,0.6996674000001804,0.8464016423454219,,experiment,cRDM,0.0,,,,892.1529208999999,1002,29,female,True,8920,8927,False,False,inspiration,inspiration
243,0.13084434311626114,25,up,down,0.8534236000004967,1.9307121962467044,,experiment,cRDM,0.0,,,,895.0361676000003,1002,29,female,True,8949,8958,False,False,expiration,trough
244,0.13084434311626114,25,down,up,1.0315546000001632,1.7339411465384231,,experiment,cRDM,0.0,,,,897.8860989000003,1002,29,female,True,8978,8988,False,False,expiration,expiration
245,0.13084434311626114,25,up,down,0.8913042000003771,1.6518878390317704,,experiment,cRDM,0.0,,,,900.8192858000003,1002,29,female,True,9007,9016,False,False,expiration,expiration
246,0.13084434311626114,25,down,down,0.5587747999998101,1.8568101014569132,,experiment,cRDM,0.0,,,,903.8358145999999,1002,29,female,True,9037,9043,False,False,inspiration,expiration
247,0.13084434311626114,25,up,up,1.0492107000000033,0.8959803874581835,,experiment,cRDM,0.0,,,,905.5524095,1002,29,female,True,9055,9065,False,False,expiration,inspiration
248,0.13084434311626114,25,up,up,1.2965111000003162,0.3125463061879355,,experiment,cRDM,0.0,,,,907.1690356999997,1002,29,female,True,9071,9084,False,False,inspiration,expiration
249,0.13084434311626114,25,down,down,0.6763006000001042,1.517257012515138,,experiment,cRDM,0.0,,,,910.2522713999997,1002,29,female,True,9102,9109,False,False,inspiration,expiration
250,0.13084434311626114,25,up,down,0.6427561000000424,1.631254079925759,,experiment,cRDM,0.0,,,,912.8188281000004,1002,29,female,True,9127,9133,False,False,inspiration,inspiration
251,0.13084434311626114,25,down,down,0.6765101999999388,1.525737049847779,,experiment,cRDM,0.0,,,,915.2520750000003,1002,29,female,True,9152,9159,False,False,expiration,expiration
252,0.13084434311626114,25,down,down,0.5422614999997677,1.084521648843977,,experiment,cRDM,0.0,,,,917.2853213,1002,29,female,True,9172,9177,False,False,inspiration,expiration
253,0.13084434311626114,25,down,down,0.5859843000007459,1.9815202163530288,,experiment,cRDM,0.0,,,,920.0686022999997,1002,29,female,True,9200,9206,False,False,inspiration,inspiration
254,0.13084434311626114,25,down,down,0.6514170000000377,1.1663151190402925,,experiment,cRDM,0.0,,,,922.0851666999997,1002,29,female,True,9220,9227,False,False,expiration,expiration
255,0.13084434311626114,25,up,up,0.7228454999994938,1.7934337047805295,,experiment,cRDM,0.0,,,,924.8017412,1002,29,female,True,9247,9254,False,False,inspiration,expiration
256,0.13084434311626114,25,down,down,0.5839562000001024,1.5083147708587534,,experiment,cRDM,0.0,,,,927.3016229000003,1002,29,female,True,9272,9278,False,False,expiration,expiration
257,0.13084434311626114,25,down,down,1.5246782000003805,1.065183409522249,,experiment,cRDM,0.0,,,,929.2349106,1002,29,female,True,9291,9306,False,False,inspiration,expiration
258,0.13084434311626114,25,down,down,0.7271663999999873,1.6303585940614735,,experiment,cRDM,0.0,,,,932.6514188,1002,29,female,True,9326,9333,False,False,inspiration,expiration
259,0.13084434311626114,25,up,up,0.7337257999997746,1.0805784855424074,,experiment,cRDM,0.0,,,,934.7180201,1002,29,female,True,9346,9353,False,False,expiration,expiration
260,0.13084434311626114,25,up,down,0.7259876999996777,1.8178902663333296,,experiment,cRDM,0.0,,,,937.5345602999997,1002,29,female,True,9374,9381,False,False,expiration,expiration
261,0.13084434311626114,25,up,up,0.5711731999999756,1.9103718206679916,,experiment,cRDM,0.0,,,,940.4344779000003,1002,29,female,True,9403,9409,False,False,inspiration,expiration
262,0.13084434311626114,25,up,down,0.7008154000004652,0.4642555297286779,,experiment,cRDM,0.0,,,,941.7177776,1002,29,female,True,9416,9423,False,False,expiration,expiration
263,115.0,25,M,down,1.5027546000001166,0.8179334354789087,,experiment,emotion,0.0,,,,949.7008721000003,1002,29,female,True,9496,9511,True,True,inspiration,expiration
264,111.0,25,M,down,1.1804868999997782,1.6969803230627745,,experiment,emotion,0.0,,,,953.1840677000001,1002,29,female,True,9531,9543,True,True,expiration,expiration
265,115.0,25,F,down,0.7316337000002022,1.445237193505756,,experiment,emotion,0.0,,,,956.0839827,1002,29,female,True,9560,9567,False,False,inspiration,inspiration
266,102.0,25,F,down,0.6260866000002352,1.7011817163665008,,experiment,emotion,0.0,,,,958.8005217999997,1002,29,female,True,9587,9593,False,False,expiration,expiration
267,106.0,25,M,down,0.5141271000002234,1.690284086414493,,experiment,emotion,0.0,,,,961.4004495999997,1002,29,female,True,9613,9618,False,False,peak,expiration
268,111.0,25,F,down,0.7934969999996611,0.3325492378032722,,experiment,emotion,0.0,,,,962.5170546999997,1002,29,female,True,9624,9632,False,False,expiration,expiration
269,106.0,25,M,down,0.5899578999997175,0.359904135116435,,experiment,emotion,0.0,,,,963.9336570000003,1002,29,female,True,9638,9644,False,False,inspiration,inspiration
270,102.0,25,M,down,0.5253341000006913,0.9990608837471308,,experiment,emotion,0.0,,,,965.8002812000003,1002,29,female,True,9657,9662,False,False,expiration,expiration
271,102.0,25,F,down,0.666769700000259,1.8104254578473955,,experiment,emotion,0.0,,,,968.4168453000003,1002,29,female,True,9683,9690,False,False,inspiration,inspiration
272,115.0,25,F,up,0.7808205000001178,0.543396987860003,,experiment,emotion,0.0,,,,969.916773,1002,29,female,True,9698,9706,False,False,expiration,expiration
273,111.0,25,F,down,0.6035464000005959,0.8883648513561684,,experiment,emotion,0.0,,,,971.8500295000003,1002,29,female,True,9718,9724,False,False,inspiration,inspiration
274,106.0,25,F,down,0.5135771000004752,1.2285719156310697,,experiment,emotion,0.0,,,,973.9499966000003,1002,29,female,True,9739,9744,False,False,expiration,expiration
275,115.0,25,F,up,1.0720614000001658,1.6900052298117163,,experiment,emotion,0.0,,,,976.4165499,1002,29,female,True,9763,9774,False,False,inspiration,expiration
276,102.0,25,F,down,0.5458229999994728,1.8932525161417089,,experiment,emotion,0.0,,,,979.6497461,1002,29,female,True,9796,9801,False,False,inspiration,inspiration
277,106.0,25,M,up,0.9682339999999384,1.0526004564326643,,experiment,emotion,0.0,,,,981.5163565000003,1002,29,female,True,9814,9824,False,False,expiration,trough
278,111.0,25,M,up,0.5849690000004557,0.5919902701497739,,experiment,emotion,0.0,,,,983.3496016999997,1002,29,female,True,9832,9838,False,False,inspiration,inspiration
279,102.0,25,M,up,0.8650006999996549,0.39373428161553387,,experiment,emotion,0.0,,,,984.5995752,1002,29,female,True,9845,9854,False,False,expiration,expiration
280,111.0,25,M,up,0.7181213000003481,1.4778265212498125,,experiment,emotion,0.0,,,,987.1994787000003,1002,29,female,True,9871,9878,False,False,inspiration,expiration
281,111.0,25,F,up,1.6598601000005146,1.189757939055108,,experiment,emotion,0.0,,,,989.3827435000003,1002,29,female,True,9893,9910,False,False,expiration,inspiration
282,115.0,25,M,down,1.0483284000001731,1.7296123683155256,,experiment,emotion,0.0,,,,993.0492571000003,1002,29,female,True,9930,9940,False,False,expiration,expiration
283,102.0,25,M,down,0.5967513000005056,1.838878996465096,,experiment,emotion,0.0,,,,996.2158172999997,1002,29,female,True,9961,9967,False,False,inspiration,inspiration
284,106.0,25,F,down,0.4595175000004019,1.1505064188887075,,experiment,emotion,0.0,,,,998.2490537000003,1002,29,female,True,9982,9987,False,False,expiration,expiration
285,115.0,25,M,down,0.5016711999996915,1.9077063176250448,,experiment,emotion,0.0,,,,1000.8989577000003,1002,29,female,True,10008,10013,False,False,expiration,expiration
286,106.0,25,F,up,0.8290070999992167,0.8318378729805205,,experiment,emotion,0.0,,,,1002.5155830000003,1002,29,female,True,10024,10032,False,False,expiration,expiration
287,106.0,25,F,down,0.8207795999996961,1.240080336496215,,experiment,emotion,0.0,,,,1004.8487899000003,1002,29,female,True,10048,10056,False,False,expiration,expiration
288,111.0,25,M,up,0.8161620999999286,0.40743839933042497,,experiment,emotion,0.0,,,,1006.3654509999997,1002,29,female,True,10063,10071,False,False,expiration,trough
289,115.0,25,M,up,0.6882060999996611,0.6734327993827633,,experiment,emotion,0.0,,,,1008.1153734,1002,29,female,True,10080,10087,False,False,inspiration,expiration
290,102.0,25,F,down,1.57594969999991,1.5218992747176738,,experiment,emotion,0.0,,,,1010.5986030000003,1002,29,female,True,10105,10121,False,False,inspiration,inspiration
291,111.0,25,M,up,0.7070602000003419,1.1665100403591169,,experiment,emotion,0.0,,,,1013.5985066000003,1002,29,female,True,10135,10142,False,False,expiration,expiration
292,102.0,25,F,down,0.9462057999999159,1.979189375792952,,experiment,emotion,0.0,,,,1016.5483413999999,1002,29,female,True,10165,10174,False,False,peak,expiration
293,106.0,25,F,,,1.6962321704449486,,experiment,emotion,0.0,,,,1019.4482356,1002,29,female,True,10194,0,False,False,inspiration,0
294,115.0,25,F,down,1.361414200000581,0.8085237346745067,,experiment,emotion,0.0,,,,1022.9481453999997,1002,29,female,True,10229,10243,False,False,inspiration,expiration
295,111.0,25,M,down,0.9732292999997298,1.9364079469003823,,experiment,emotion,0.0,,,,1026.5313333000004,1002,29,female,True,10264,10274,False,False,inspiration,expiration
296,102.0,25,M,up,0.9096579000006386,0.5690336601667141,,experiment,emotion,0.0,,,,1028.3478977000002,1002,29,female,True,10283,10292,False,False,expiration,trough
297,106.0,25,M,up,0.6043627000008199,0.4140042088843524,,experiment,emotion,0.0,,,,1029.9311975,1002,29,female,True,10298,10304,False,False,inspiration,inspiration
298,106.0,25,F,up,0.5307787000001554,1.9893548507489245,,experiment,emotion,0.0,,,,1032.7977781999996,1002,29,female,True,10327,10332,False,False,expiration,expiration
299,115.0,25,F,up,1.6025260999995226,1.6811779022790627,,experiment,emotion,0.0,,,,1035.2810369,1002,29,female,True,10352,10368,False,False,inspiration,expiration
300,111.0,25,M,down,1.2393138999996154,0.9138274556264304,,experiment,emotion,0.0,,,,1038.0642729,1002,29,female,True,10380,10392,False,False,inspiration,inspiration
301,115.0,25,F,up,0.7517882000001919,1.0473207020776527,,experiment,emotion,0.0,,,,1040.6308034000003,1002,29,female,True,10405,10413,False,False,expiration,expiration
302,102.0,25,M,up,0.7757927000002383,0.7019168660915283,,experiment,emotion,0.0,,,,1042.3807640000002,1002,29,female,True,10423,10431,False,False,inspiration,inspiration
303,106.0,25,M,down,0.710960200000045,0.8044914360892923,,experiment,emotion,0.0,,,,1044.2306685000003,1002,29,female,True,10441,10448,False,False,expiration,expiration
304,102.0,25,M,up,1.5452943999998752,0.7393689571394084,,experiment,emotion,0.0,,,,1045.9472698999996,1002,29,female,True,10459,10474,False,False,inspiration,expiration
305,102.0,25,F,down,0.7041099000007307,1.3162892830977069,,experiment,emotion,0.0,,,,1049.0805172,1002,29,female,True,10490,10497,False,False,expiration,inspiration
306,115.0,25,F,up,1.1737933999993402,0.8547712771522753,,experiment,emotion,0.0,,,,1050.9137882000002,1002,29,female,True,10508,10520,False,False,expiration,expiration
307,111.0,25,M,down,0.7805528999997478,1.1701421199565312,,experiment,emotion,0.0,,,,1053.5470016999998,1002,29,female,True,10535,10543,False,False,inspiration,inspiration
308,106.0,25,F,down,1.0389568000000509,1.1191674854270637,,experiment,emotion,0.0,,,,1055.7136011000002,1002,29,female,True,10556,10566,False,False,expiration,expiration
309,111.0,25,F,down,0.8830336999999417,0.5744392396729538,,experiment,emotion,0.0,,,,1057.6135365,1002,29,female,True,10575,10584,False,False,inspiration,inspiration
310,115.0,25,M,down,0.6534572999999,1.064790280273557,,experiment,emotion,0.0,,,,1059.8301001999996,1002,29,female,True,10597,10604,False,False,expiration,expiration
311,106.0,25,M,down,0.6855362000005698,1.563287640198349,,experiment,emotion,0.0,,,,1062.3300202,1002,29,female,True,10622,10629,False,False,inspiration,expiration
312,115.0,25,F,up,0.6293468000003486,1.8213056395666087,,experiment,emotion,0.0,,,,1065.1132429,1002,29,female,True,10650,10656,False,False,inspiration,inspiration
313,111.0,25,M,up,1.0481284999996203,1.2829820781324082,,experiment,emotion,0.0,,,,1067.2965179999999,1002,29,female,True,10672,10682,False,False,expiration,expiration
314,102.0,25,F,up,1.029096200000822,0.36522344505162135,,experiment,emotion,0.0,,,,1068.9964547,1002,29,female,True,10689,10699,False,False,inspiration,inspiration
315,111.0,25,F,down,1.1099137000001065,1.1292234923538462,,experiment,emotion,0.0,,,,1071.4296393000004,1002,29,female,True,10713,10724,False,False,expiration,expiration
316,106.0,25,F,down,0.6340208000001439,0.6047826218223139,,experiment,emotion,0.0,,,,1073.4296049000004,1002,29,female,True,10733,10739,False,False,inspiration,inspiration
317,115.0,25,M,up,1.907303899999533,0.6731995265608548,,experiment,emotion,0.0,,,,1074.9962327000003,1002,29,female,True,10749,10768,False,False,expiration,expiration
318,102.0,25,M,down,0.6548152999994272,1.2764646053062385,,experiment,emotion,0.0,,,,1078.4627222999998,1002,29,female,True,10784,10791,False,False,inspiration,expiration
319,111.0,25,F,down,1.1175096999995728,0.6552665670100841,,experiment,emotion,0.0,,,,1080.0460389,1002,29,female,True,10800,10811,False,False,expiration,expiration
320,111.0,25,F,down,0.6705903000001854,1.0719476426347772,,experiment,emotion,0.0,,,,1082.4959596999997,1002,29,female,True,10824,10831,False,False,inspiration,expiration
321,102.0,25,M,up,0.6303946999996697,0.3960221070588812,,experiment,emotion,0.0,,,,1083.8291705999998,1002,29,female,True,10838,10844,False,False,expiration,expiration
322,115.0,25,M,up,1.5647628999995504,1.9135842336853008,,experiment,emotion,0.0,,,,1086.6457898999997,1002,29,female,True,10866,10882,False,False,expiration,inspiration
323,115.0,25,M,up,0.8015378999998575,1.3879002039554835,,experiment,emotion,0.0,,,,1089.8790127999998,1002,29,female,True,10898,10906,False,False,inspiration,expiration
324,106.0,25,M,up,0.7492751999998291,0.3515530041281877,,experiment,emotion,0.0,,,,1091.3122736000003,1002,29,female,True,10912,10919,False,False,expiration,expiration
325,106.0,25,M,down,0.9220757000002776,1.9683499708938192,,experiment,emotion,0.0,,,,1094.2955082999997,1002,29,female,True,10942,10951,False,False,inspiration,expiration
326,102.0,25,F,down,0.8644706000004589,1.4634360052288586,,experiment,emotion,0.0,,,,1096.9620808999996,1002,29,female,True,10969,10978,False,False,expiration,inspiration
327,106.0,25,F,down,0.534196399999928,0.5586976464718658,,experiment,emotion,0.0,,,,1098.6453542000002,1002,29,female,True,10986,10991,False,False,inspiration,peak
328,115.0,25,M,up,0.931631099999322,1.8052050731238518,,experiment,emotion,0.0,,,,1101.2619169000002,1002,29,female,True,11012,11021,False,False,inspiration,inspiration
329,111.0,25,F,up,1.4847516999998334,1.7314589775960068,,experiment,emotion,0.0,,,,1104.2118219000004,1002,29,female,True,11041,11056,False,False,expiration,inspiration
330,102.0,25,F,down,0.9428871000000072,1.591911911517804,,experiment,emotion,0.0,,,,1107.5616633999996,1002,29,female,True,11075,11084,False,False,expiration,expiration
331,102.0,25,F,down,0.8533380999997462,1.712098120186914,,experiment,emotion,0.0,,,,1110.4782481000002,1002,29,female,True,11104,11113,False,False,trough,inspiration
332,111.0,25,M,down,0.8553734000006443,0.4240139698992805,,experiment,emotion,0.0,,,,1112.028166,1002,29,female,True,11119,11128,False,False,inspiration,expiration
333,106.0,25,F,down,0.5848213999997824,1.3973672517972957,,experiment,emotion,0.0,,,,1114.5447783,1002,29,female,True,11145,11151,False,False,inspiration,inspiration
334,115.0,25,F,down,1.1259220000001733,0.5433227634233367,,experiment,emotion,0.0,,,,1115.9446896,1002,29,female,True,11159,11170,False,False,expiration,expiration
335,102.0,25,F,down,0.7060660000006465,1.9978522299597397,,experiment,emotion,0.0,,,,1119.3445110999999,1002,29,female,True,11193,11200,False,False,inspiration,inspiration
336,106.0,25,M,down,0.8090308999999252,0.8570636375664302,,experiment,emotion,0.0,,,,1121.1945134999996,1002,29,female,True,11211,11219,False,False,expiration,expiration
337,102.0,25,M,down,0.7617794999996477,0.6572136073599153,,experiment,emotion,0.0,,,,1122.9277690999998,1002,29,female,True,11228,11236,False,False,expiration,inspiration
338,111.0,25,F,up,0.8455573999999615,1.9564528484703827,,experiment,emotion,0.0,,,,1125.9109932,1002,29,female,True,11258,11266,False,False,trough,inspiration
339,115.0,25,M,up,0.4002152000002752,1.2056314961108896,,experiment,emotion,0.0,,,,1128.244237,1002,29,female,True,11282,11286,False,False,expiration,expiration
340,106.0,25,F,up,1.1156756999998834,0.3833625452917861,,experiment,emotion,0.0,,,,1129.3108693000004,1002,29,female,True,11292,11303,False,False,expiration,trough
341,115.0,25,M,up,1.3447741999998468,1.0749869848146618,,experiment,emotion,0.0,,,,1131.7607940999994,1002,29,female,True,11317,11330,False,False,expiration,expiration
342,111.0,25,M,down,0.9109176000001752,1.4852013673985072,,experiment,emotion,0.0,,,,1134.8606735000005,1002,29,female,True,11348,11357,True,True,inspiration,expiration
343,0.13084434311626114,25,up,up,0.8163701999992554,0.35657119468750714,,experiment,cRDM,1.0,,,,1145.7101792000005,1002,29,female,True,11456,11464,True,True,inspiration,expiration
344,0.13084434311626114,25,up,up,0.8580740000006699,0.7324480865915298,,experiment,cRDM,1.0,,,,1147.5434659000002,1002,29,female,True,11475,11484,False,False,inspiration,peak
345,0.13084434311626114,25,down,down,0.5951618999997663,0.37236268768449976,,experiment,cRDM,1.0,,,,1149.0434151,1002,29,female,True,11490,11496,False,False,expiration,expiration
346,0.13084434311626114,25,down,down,0.9078837999995812,0.37484462835271737,,experiment,cRDM,1.0,,,,1150.2766915999998,1002,29,female,True,11502,11511,False,False,expiration,expiration
347,0.13084434311626114,25,up,down,0.7279673000002731,1.6806770471508388,,experiment,cRDM,1.0,,,,1153.1265714,1002,29,female,True,11530,11537,False,False,inspiration,expiration
348,0.13084434311626114,25,down,down,0.6303840999999011,1.6276166397689218,,experiment,cRDM,1.0,,,,1155.7431671000004,1002,29,female,True,11557,11563,False,False,expiration,expiration
349,0.13084434311626114,25,up,up,0.6344496000001527,0.7088234624852012,,experiment,cRDM,1.0,,,,1157.3430925000002,1002,29,female,True,11573,11579,False,False,inspiration,inspiration
350,0.13084434311626114,25,up,up,0.7061653999999179,0.6401457990600437,,experiment,cRDM,1.0,,,,1158.8763760000004,1002,29,female,True,11588,11595,False,False,expiration,expiration
351,0.13084434311626114,25,down,down,0.7308655000006183,0.5056705047295632,,experiment,cRDM,1.0,,,,1160.3596976999995,1002,29,female,True,11603,11610,False,False,trough,inspiration
352,0.13084434311626114,25,down,up,0.7403001000002405,1.8348990809819925,,experiment,cRDM,1.0,,,,1163.1762104999998,1002,29,female,True,11631,11638,False,False,expiration,expiration
353,0.13084434311626114,25,down,up,1.0837507000005644,1.5694473167416425,,experiment,cRDM,1.0,,,,1165.7427876000004,1002,29,female,True,11657,11668,False,False,inspiration,expiration
354,0.13084434311626114,25,down,down,0.5891761000002589,0.9183856145588276,,experiment,cRDM,1.0,,,,1168.0093576,1002,29,female,True,11679,11685,False,False,expiration,expiration
355,0.13084434311626114,25,down,down,0.7265659000004234,1.5018418023976337,,experiment,cRDM,1.0,,,,1170.3759519000005,1002,29,female,True,11703,11710,False,False,inspiration,expiration
356,0.13084434311626114,25,down,down,0.6513580000000729,1.8340191624789852,,experiment,cRDM,1.0,,,,1173.2091760000005,1002,29,female,True,11731,11738,False,False,expiration,inspiration
357,0.13084434311626114,25,up,up,0.9655672999997478,0.5979212142696483,,experiment,cRDM,1.0,,,,1174.7090654000006,1002,29,female,True,11746,11756,False,False,inspiration,expiration
358,0.13084434311626114,25,up,up,0.6958267999998498,0.3937944267511328,,experiment,cRDM,1.0,,,,1176.3257138999998,1002,29,female,True,11762,11769,False,False,expiration,expiration
359,0.13084434311626114,25,up,up,0.6169188999992912,1.5263207993556231,,experiment,cRDM,1.0,,,,1178.82561,1002,29,female,True,11787,11793,False,False,inspiration,inspiration
360,0.13084434311626114,25,up,up,0.6379764000002979,1.0632027567802005,,experiment,cRDM,1.0,,,,1180.7755632,1002,29,female,True,11807,11813,False,False,expiration,expiration
361,0.13084434311626114,25,down,up,0.5357230999998137,1.7763080832442688,,experiment,cRDM,1.0,,,,1183.4588089000001,1002,29,female,True,11834,11839,False,False,inspiration,inspiration
362,0.13084434311626114,25,up,up,0.7483794999998281,0.6178864106095956,,experiment,cRDM,1.0,,,,1184.8754109,1002,29,female,True,11848,11855,False,False,inspiration,expiration
363,0.13084434311626114,25,up,up,0.8645262000000002,0.7651452759265369,,experiment,cRDM,1.0,,,,1186.6420481000005,1002,29,female,True,11866,11875,False,False,expiration,expiration
364,0.13084434311626114,25,down,up,0.6646513000005143,1.6028465358174742,,experiment,cRDM,1.0,,,,1189.3752615000005,1002,29,female,True,11893,11900,False,False,expiration,expiration
365,0.13084434311626114,25,up,up,0.6933554999995977,1.0604332027431012,,experiment,cRDM,1.0,,,,1191.3751708999996,1002,29,female,True,11913,11920,False,False,inspiration,inspiration
366,0.13084434311626114,25,down,down,0.7934869000000617,0.8800271825063826,,experiment,cRDM,1.0,,,,1193.2250835000004,1002,29,female,True,11931,11939,False,False,inspiration,inspiration
367,0.13084434311626114,25,down,down,1.0208514999994804,1.3099842860211015,,experiment,cRDM,1.0,,,,1195.5916767,1002,29,female,True,11955,11965,False,False,inspiration,inspiration
368,0.13084434311626114,25,up,up,0.6845899999998437,0.7401962542437561,,experiment,cRDM,1.0,,,,1197.6249239,1002,29,female,True,11975,11982,False,False,inspiration,inspiration
369,0.13084434311626114,25,up,up,0.6226855999993859,1.7947804082839045,,experiment,cRDM,1.0,,,,1200.3748395999999,1002,29,female,True,12003,12009,False,False,expiration,expiration
370,0.13084434311626114,25,down,down,0.6184774000003017,0.3461840146871187,,experiment,cRDM,1.0,,,,1201.6080896000005,1002,29,female,True,12015,12021,False,False,expiration,expiration
371,0.13084434311626114,25,up,up,0.6294652999995378,0.523801976130353,,experiment,cRDM,1.0,,,,1203.0080626999998,1002,29,female,True,12029,12035,False,False,expiration,trough
372,0.13084434311626114,25,down,down,0.5955549000000246,1.3090140877180405,,experiment,cRDM,1.0,,,,1205.2079731000003,1002,29,female,True,12051,12057,False,False,expiration,expiration
373,0.13084434311626114,25,down,up,0.6459865999995601,1.2552326002287264,,experiment,cRDM,1.0,,,,1207.3245742999998,1002,29,female,True,12073,12079,False,False,expiration,expiration
374,0.13084434311626114,25,down,down,0.6309874000007767,0.39689562323655375,,experiment,cRDM,1.0,,,,1208.6245366000005,1002,29,female,True,12086,12092,False,False,inspiration,inspiration
375,0.13084434311626114,25,up,up,0.6347955000001093,0.5901753255781981,,experiment,cRDM,1.0,,,,1210.107803,1002,29,female,True,12100,12106,False,False,expiration,expiration
376,0.13084434311626114,25,up,up,0.6374864000008529,1.7806739907794629,,experiment,cRDM,1.0,,,,1212.7910475999995,1002,29,female,True,12127,12133,False,False,inspiration,inspiration
377,0.13084434311626114,25,up,up,0.6482101999999941,0.9390896997082878,,experiment,cRDM,1.0,,,,1214.6243038000002,1002,29,female,True,12146,12152,False,False,expiration,expiration
378,0.13084434311626114,25,down,down,0.5723264000007475,0.9429326445514884,,experiment,cRDM,1.0,,,,1216.474236,1002,29,female,True,12164,12170,False,False,inspiration,inspiration
379,0.13084434311626114,25,down,up,0.9750316999998176,0.9918197188831503,,experiment,cRDM,1.0,,,,1218.3074773999995,1002,29,female,True,12182,12192,False,False,expiration,expiration
380,0.13084434311626114,25,up,down,0.7537243999995553,1.3420658908834089,,experiment,cRDM,1.0,,,,1220.8907998000004,1002,29,female,True,12208,12216,False,False,inspiration,expiration
381,0.13084434311626114,25,down,down,0.8205251999997927,1.2651349827900047,,experiment,cRDM,1.0,,,,1223.1739968000004,1002,29,female,True,12231,12239,False,False,expiration,expiration
382,0.13084434311626114,25,up,up,0.7646173000002818,0.8700669127957124,,experiment,cRDM,1.0,,,,1225.1239052,1002,29,female,True,12251,12259,False,False,inspiration,expiration
383,0.13084434311626114,25,up,up,0.692061100000501,1.6854119358580388,,experiment,cRDM,1.0,,,,1227.8405000999999,1002,29,female,True,12278,12285,False,False,expiration,expiration
384,0.13084434311626114,25,up,up,0.6521080000002257,1.3923151239287168,,experiment,cRDM,1.0,,,,1230.1904022999995,1002,29,female,True,12301,12308,False,False,expiration,expiration
385,0.13084434311626114,25,down,down,0.6018884000004618,1.018421366874865,,experiment,cRDM,1.0,,,,1232.1236607,1002,29,female,True,12321,12327,False,False,expiration,expiration
386,0.13084434311626114,25,down,up,0.7126207000001159,1.5735218857873805,,experiment,cRDM,1.0,,,,1234.5569355999996,1002,29,female,True,12345,12352,False,False,expiration,trough
387,0.13084434311626114,25,up,up,0.6763897999999244,0.4648463222064085,,experiment,cRDM,1.0,,,,1235.9901599000004,1002,29,female,True,12359,12366,False,False,inspiration,inspiration
388,0.13084434311626114,25,down,up,0.6424100000003818,0.8250377096212045,,experiment,cRDM,1.0,,,,1237.7401151000004,1002,29,female,True,12377,12383,False,False,expiration,expiration
389,0.13084434311626114,25,down,down,0.7231210999998439,0.3253077841228318,,experiment,cRDM,1.0,,,,1238.9734117999994,1002,29,female,True,12389,12396,False,False,expiration,expiration
390,0.13084434311626114,25,up,up,1.0499097000001711,0.4361322664935007,,experiment,cRDM,1.0,,,,1240.4066843,1002,29,female,True,12403,12413,False,False,inspiration,expiration
391,0.13084434311626114,25,up,down,1.0735865000006015,0.9150451799496676,,experiment,cRDM,1.0,,,,1242.6399483000005,1002,29,female,True,12426,12437,False,False,expiration,inspiration
392,0.13084434311626114,25,down,down,0.5853753999999753,1.2599460640098177,,experiment,cRDM,1.0,,,,1245.2231505,1002,29,female,True,12451,12457,False,False,expiration,expiration
393,0.13084434311626114,25,up,up,0.65878100000009,1.815112607702589,,experiment,cRDM,1.0,,,,1247.8897386999995,1002,29,female,True,12478,12485,False,False,inspiration,inspiration
394,0.13084434311626114,25,down,down,0.7571113000003606,0.6603258822164132,,experiment,cRDM,1.0,,,,1249.456403,1002,29,female,True,12494,12502,False,False,expiration,expiration
395,0.13084434311626114,25,down,down,0.5261733999996068,0.3762436286131993,,experiment,cRDM,1.0,,,,1250.8563442000004,1002,29,female,True,12508,12513,False,False,expiration,expiration
396,0.13084434311626114,25,down,down,0.5619514999998501,1.7400948991223002,,experiment,cRDM,1.0,,,,1253.3895362000005,1002,29,female,True,12533,12539,False,False,expiration,expiration
397,0.13084434311626114,25,up,up,0.8311162999998487,1.1784644090000724,,experiment,cRDM,1.0,,,,1255.3894701999998,1002,29,female,True,12553,12561,False,False,expiration,inspiration
398,0.13084434311626114,25,up,up,0.6471043000001373,0.6152191658741999,,experiment,cRDM,1.0,,,,1257.0894089000005,1002,29,female,True,12570,12576,False,False,inspiration,expiration
399,0.13084434311626114,25,down,down,0.5625253999996858,0.6995605563048671,,experiment,cRDM,1.0,,,,1258.7060106,1002,29,female,True,12586,12592,False,False,expiration,expiration
400,0.13084434311626114,25,down,down,0.8852435999997397,1.3670608181554726,,experiment,cRDM,1.0,,,,1260.8892551999998,1002,29,female,True,12608,12617,False,False,inspiration,expiration
401,0.13084434311626114,25,up,up,0.6643492999992304,1.4532564676238398,,experiment,cRDM,1.0,,,,1263.4891674,1002,29,female,True,12634,12641,False,False,expiration,inspiration
402,0.13084434311626114,25,up,up,0.6441205999999511,1.8574864959076949,,experiment,cRDM,1.0,,,,1266.2723966000005,1002,29,female,True,12662,12668,False,False,expiration,expiration
403,0.13084434311626114,25,up,up,0.7889185000003636,1.831196831908394,,experiment,cRDM,1.0,,,,1269.0056261,1002,29,female,True,12689,12697,False,False,inspiration,inspiration
404,0.13084434311626114,25,up,up,0.8479041000000507,0.5012963420613926,,experiment,cRDM,1.0,,,,1270.5556052000004,1002,29,female,True,12705,12713,False,False,expiration,expiration
405,0.13084434311626114,25,up,up,0.5776857000000746,0.6837306254906881,,experiment,cRDM,1.0,,,,1272.3388305999995,1002,29,female,True,12723,12729,False,False,inspiration,inspiration
406,0.13084434311626114,25,down,up,0.6231023000000278,1.7807904257569371,,experiment,cRDM,1.0,,,,1274.9554453,1002,29,female,True,12749,12755,False,False,expiration,trough
407,0.13084434311626114,25,down,up,0.5215109999999186,0.5356852478964484,,experiment,cRDM,1.0,,,,1276.3720172000005,1002,29,female,True,12763,12768,False,False,inspiration,inspiration
408,0.13084434311626114,25,up,down,0.9345825000000332,0.9246050719845892,,experiment,cRDM,1.0,,,,1278.0719500000005,1002,29,female,True,12780,12789,False,False,expiration,expiration
409,0.13084434311626114,25,down,down,0.7586477999993804,0.3515151635068013,,experiment,cRDM,1.0,,,,1279.6218648000004,1002,29,female,True,12795,12803,False,False,expiration,inspiration
410,0.13084434311626114,25,down,down,0.5667245000004186,1.7381997782527598,,experiment,cRDM,1.0,,,,1282.3717890999994,1002,29,female,True,12823,12829,False,False,expiration,expiration
411,0.13084434311626114,25,down,down,0.6665207999994891,1.6092020941666814,,experiment,cRDM,1.0,,,,1284.8050273999995,1002,29,female,True,12847,12854,False,False,inspiration,expiration
412,0.13084434311626114,25,up,up,0.6839199000005465,1.2870789693413387,,experiment,cRDM,1.0,,,,1287.0215925999998,1002,29,female,True,12869,12876,False,False,inspiration,inspiration
413,0.13084434311626114,25,down,down,0.7246242000001075,1.2808263752761522,,experiment,cRDM,1.0,,,,1289.2548987,1002,29,female,True,12892,12899,False,False,expiration,expiration
414,0.13084434311626114,25,down,down,0.4764019000003827,0.3469841669441693,,experiment,cRDM,1.0,,,,1290.5881531000005,1002,29,female,True,12905,12910,False,False,inspiration,inspiration
415,0.13084434311626114,25,down,down,0.4807674999992742,1.0323475174755827,,experiment,cRDM,1.0,,,,1292.3547728000005,1002,29,female,True,12923,12928,False,False,expiration,expiration
416,0.13084434311626114,25,up,up,0.6588970000002519,1.2009963583645933,,experiment,cRDM,1.0,,,,1294.3046832,1002,29,female,True,12942,12949,False,False,expiration,inspiration
417,0.13084434311626114,25,up,down,0.5105865000004997,1.4206886614309584,,experiment,cRDM,1.0,,,,1296.6379296000005,1002,29,female,True,12966,12971,False,False,expiration,expiration
418,0.13084434311626114,25,down,down,0.4169667999994999,0.8208828935243284,,experiment,cRDM,1.0,,,,1298.2211847999995,1002,29,female,True,12981,12985,False,False,inspiration,inspiration
419,0.13084434311626114,25,up,down,0.4002576000002591,1.350142220590991,,experiment,cRDM,1.0,,,,1300.2545047000006,1002,29,female,True,13002,13006,False,False,inspiration,inspiration
420,0.13084434311626114,25,down,down,0.6191546999998536,0.7746366641665896,,experiment,cRDM,1.0,,,,1301.7044204000003,1002,29,female,True,13016,13022,False,False,peak,expiration
421,0.13084434311626114,25,up,down,0.40025839999998425,1.7818826995679942,,experiment,cRDM,1.0,,,,1304.3709678000005,1002,29,female,True,13043,13047,False,False,expiration,inspiration
422,0.13084434311626114,25,up,up,0.7975912000001699,0.8808283647936863,,experiment,cRDM,1.0,,,,1305.9209047000004,1002,29,female,True,13058,13066,False,False,inspiration,expiration
423,115.0,25,M,down,1.6195692000001145,0.37698847856643697,,experiment,emotion,1.0,,,,1341.6530143999996,1002,29,female,True,13416,13432,False,False,inspiration,expiration
424,111.0,25,M,down,0.6986264999995911,0.8325614179648455,,experiment,emotion,1.0,,,,1344.4028584999996,1002,29,female,True,13443,13450,False,False,expiration,expiration
425,115.0,25,F,down,0.9471018999993248,1.9493595250378215,,experiment,emotion,1.0,,,,1347.3194025999999,1002,29,female,True,13473,13482,False,False,expiration,expiration
426,102.0,25,F,down,0.8894303000006403,1.294245312813422,,experiment,emotion,1.0,,,,1349.8360309,1002,29,female,True,13498,13507,False,False,expiration,expiration
427,106.0,25,M,down,1.0528770999999324,0.8962250650163461,,experiment,emotion,1.0,,,,1351.9026095000002,1002,29,female,True,13518,13529,False,False,expiration,expiration
428,111.0,25,F,up,1.3670547000001534,1.063759741787794,,experiment,emotion,1.0,,,,1354.3025101000005,1002,29,female,True,13542,13556,False,False,expiration,expiration
429,106.0,25,M,down,0.6873932999997123,1.3369422009036034,,experiment,emotion,1.0,,,,1357.2690906999997,1002,29,female,True,13572,13579,False,False,expiration,inspiration
430,102.0,25,M,down,1.0461404999996375,0.3642527230723629,,experiment,emotion,1.0,,,,1358.6023541000004,1002,29,female,True,13585,13595,False,False,inspiration,expiration
431,102.0,25,F,up,0.4945938999999271,1.5081773887654586,,experiment,emotion,1.0,,,,1361.4189084,1002,29,female,True,13614,13619,False,False,expiration,inspiration
432,115.0,25,F,down,0.6473387000005459,1.7315157493163562,,experiment,emotion,1.0,,,,1363.9521720999999,1002,29,female,True,13639,13645,False,False,expiration,expiration
433,111.0,25,F,up,1.2348019000000932,1.8407965786517444,,experiment,emotion,1.0,,,,1366.7186946000004,1002,29,female,True,13667,13679,False,False,inspiration,expiration
434,106.0,25,F,up,0.7881922999995368,1.499872256923963,,experiment,emotion,1.0,,,,1369.7353017000005,1002,29,female,True,13697,13705,False,False,expiration,inspiration
435,115.0,25,F,up,1.1729522999994515,0.680128716820927,,experiment,emotion,1.0,,,,1371.4685499999996,1002,29,female,True,13714,13726,False,False,inspiration,inspiration
436,102.0,25,F,down,0.6920187000005171,1.1348086912506001,,experiment,emotion,1.0,,,,1374.0684623999996,1002,29,female,True,13740,13747,False,False,expiration,expiration
437,106.0,25,M,up,2.0844441999997803,1.3013531921350476,,experiment,emotion,1.0,,,,1376.3350479,1002,29,female,True,13763,13784,False,False,inspiration,inspiration
438,111.0,25,M,up,1.124947700000121,1.6012774511087255,,experiment,emotion,1.0,,,,1380.3015410999994,1002,29,female,True,13802,13813,False,False,peak,expiration
439,102.0,25,M,down,1.261432899999818,0.8326229321709828,,experiment,emotion,1.0,,,,1382.5181279,1002,29,female,True,13825,13838,False,False,expiration,inspiration
440,111.0,25,M,up,0.8735612999998921,1.9695505369165969,,experiment,emotion,1.0,,,,1386.017949,1002,29,female,True,13860,13869,False,False,inspiration,inspiration
441,111.0,25,F,up,0.7755910000005315,1.9942664239846848,,experiment,emotion,1.0,,,,1389.1679057,1002,29,female,True,13891,13899,False,False,expiration,inspiration
442,115.0,25,M,up,0.6956766999992396,1.740539205780829,,experiment,emotion,1.0,,,,1391.9678102999994,1002,29,female,True,13919,13926,False,False,expiration,expiration
443,102.0,25,M,down,0.8828124000001479,0.977057954179195,,experiment,emotion,1.0,,,,1393.9177041000007,1002,29,female,True,13939,13948,False,False,inspiration,inspiration
444,106.0,25,F,up,1.167535199999293,1.814287191474612,,experiment,emotion,1.0,,,,1396.9009481000005,1002,29,female,True,13968,13980,False,False,expiration,inspiration
445,115.0,25,M,up,0.6899774000003163,1.0163167651011469,,experiment,emotion,1.0,,,,1399.3675277000002,1002,29,female,True,13993,14000,False,False,expiration,expiration
446,106.0,25,F,down,0.6464066999997158,1.866109521317076,,experiment,emotion,1.0,,,,1402.1840814999994,1002,29,female,True,14021,14027,False,False,inspiration,inspiration
447,106.0,25,F,down,1.3404534999999669,0.5355077442590632,,experiment,emotion,1.0,,,,1403.6340496000007,1002,29,female,True,14036,14049,False,False,expiration,expiration
448,111.0,25,M,up,0.8638872000001356,1.6912888108098636,,experiment,emotion,1.0,,,,1406.9505848999993,1002,29,female,True,14069,14078,False,False,expiration,expiration
449,115.0,25,M,up,0.5520427999999811,0.6091708433257992,,experiment,emotion,1.0,,,,1408.7004987,1002,29,female,True,14086,14092,False,False,expiration,trough
450,102.0,25,F,down,1.0848022000000128,0.6937638377853097,,experiment,emotion,1.0,,,,1410.2337122000001,1002,29,female,True,14102,14113,False,False,inspiration,expiration
451,111.0,25,M,up,1.206119999999828,1.5644036504206316,,experiment,emotion,1.0,,,,1413.1503463,1002,29,female,True,14131,14143,False,False,expiration,inspiration
452,102.0,25,F,up,0.8931632000003447,1.019895129807744,,experiment,emotion,1.0,,,,1415.6502766000006,1002,29,female,True,14156,14165,False,False,expiration,expiration
453,106.0,25,F,down,0.9920522000002164,1.7304543354432542,,experiment,emotion,1.0,,,,1418.5334511,1002,29,female,True,14185,14195,True,True,expiration,expiration
454,115.0,25,F,down,1.05442579999999,1.9475193707648903,,experiment,emotion,1.0,,,,1421.7500470000007,1002,29,female,True,14217,14228,True,True,inspiration,expiration
455,111.0,25,M,down,0.7462408999999752,1.364160545743357,,experiment,emotion,1.0,,,,1424.4332438,1002,29,female,True,14244,14251,True,True,expiration,expiration
456,102.0,25,M,down,1.2829887999996572,1.5216954141890284,,experiment,emotion,1.0,,,,1426.9664988000006,1002,29,female,True,14269,14282,True,True,expiration,inspiration
457,106.0,25,M,up,1.0344306000006327,1.7456103616690293,,experiment,emotion,1.0,,,,1430.2830531999996,1002,29,female,True,14302,14312,True,True,inspiration,peak
458,106.0,25,F,up,0.8312198999992688,0.920137597007748,,experiment,emotion,1.0,,,,1432.5162687999998,1002,29,female,True,14324,14332,True,True,expiration,expiration
459,115.0,25,F,up,0.8959512000001268,0.9295333285108124,,experiment,emotion,1.0,,,,1434.5495649000006,1002,29,female,True,14345,14354,False,False,inspiration,inspiration
460,111.0,25,M,up,0.625693400000273,1.6548105734666094,,experiment,emotion,1.0,,,,1437.3827861999996,1002,29,female,True,14373,14379,False,False,expiration,expiration
461,115.0,25,F,up,0.9161008999999468,1.2659123988704148,,experiment,emotion,1.0,,,,1439.5493820999998,1002,29,female,True,14395,14404,False,False,inspiration,expiration
462,102.0,25,M,up,0.822536300000138,0.917575924487678,,experiment,emotion,1.0,,,,1441.6659508000002,1002,29,female,True,14416,14424,False,False,expiration,expiration
463,106.0,25,M,up,0.8599160000003394,1.4047745658493025,,experiment,emotion,1.0,,,,1444.1825445000006,1002,29,female,True,14441,14450,False,False,expiration,expiration
464,102.0,25,M,down,1.2970079999995503,0.4768501529697258,,experiment,emotion,1.0,,,,1445.7824907000006,1002,29,female,True,14457,14470,False,False,inspiration,inspiration
465,102.0,25,F,down,0.6387236999999004,0.31787733721457834,,experiment,emotion,1.0,,,,1447.6657489999998,1002,29,female,True,14476,14482,False,False,inspiration,expiration
466,115.0,25,F,up,0.8688395999997738,0.6318898510556459,,experiment,emotion,1.0,,,,1449.2156548000007,1002,29,female,True,14491,14500,False,False,expiration,expiration
467,111.0,25,M,up,0.6282344999999623,0.6585025996652939,,experiment,emotion,1.0,,,,1451.0322266000005,1002,29,female,True,14510,14516,False,False,inspiration,expiration
468,106.0,25,F,up,1.1976425000002564,0.9047638721714024,,experiment,emotion,1.0,,,,1452.8488801000005,1002,29,female,True,14528,14540,False,False,expiration,expiration
469,111.0,25,F,down,1.6097714000006818,1.3769427643180479,,experiment,emotion,1.0,,,,1455.6987740000006,1002,29,female,True,14556,14572,False,False,expiration,trough
470,115.0,25,M,down,0.5768428999999742,1.5261049650926,,experiment,emotion,1.0,,,,1459.0986387000007,1002,29,female,True,14590,14596,False,False,inspiration,expiration
471,106.0,25,M,down,0.7165685999998459,1.4221905756525288,,experiment,emotion,1.0,,,,1461.3819087000004,1002,29,female,True,14613,14620,False,False,expiration,inspiration
472,115.0,25,F,up,0.8590231999996831,1.2751491948557412,,experiment,emotion,1.0,,,,1463.6484588000005,1002,29,female,True,14636,14645,False,False,inspiration,expiration
473,111.0,25,M,down,1.223460299999715,1.6834928150553312,,experiment,emotion,1.0,,,,1466.4650459000006,1002,29,female,True,14664,14676,False,False,expiration,expiration
474,102.0,25,F,down,1.418928299999607,0.37082336182806297,,experiment,emotion,1.0,,,,1468.3316146999994,1002,29,female,True,14683,14697,False,False,trough,peak
475,111.0,25,F,up,1.0912588000001051,1.0325454975334825,,experiment,emotion,1.0,,,,1471.0482177000006,1002,29,female,True,14710,14721,False,False,expiration,expiration
476,106.0,25,F,down,0.7100731000000451,1.8823231951443455,,experiment,emotion,1.0,,,,1474.281419,1002,29,female,True,14742,14749,False,False,expiration,expiration
477,115.0,25,M,,,0.6344384437345636,,experiment,emotion,1.0,,,,1475.9146622999995,1002,29,female,True,14758,0,False,False,expiration,0
478,102.0,25,M,down,0.9029531000005592,0.5047666683725235,,experiment,emotion,1.0,,,,1479.1145422999996,1002,29,female,True,14790,14799,False,False,expiration,expiration
479,111.0,25,F,up,0.8190012000004572,1.7707992062420588,,experiment,emotion,1.0,,,,1482.0644683,1002,29,female,True,14820,14828,False,False,inspiration,expiration
480,111.0,25,F,up,0.8937668999997186,1.3352395401352901,,experiment,emotion,1.0,,,,1484.4976824000007,1002,29,female,True,14844,14853,False,False,expiration,expiration
481,102.0,25,M,up,0.7708401999998387,0.9253277014648726,,experiment,emotion,1.0,,,,1486.5976299000006,1002,29,female,True,14865,14873,False,False,inspiration,expiration
482,115.0,25,M,up,0.6699636000003011,1.1452123350435304,,experiment,emotion,1.0,,,,1488.7975347,1002,29,female,True,14887,14894,False,False,expiration,inspiration
483,115.0,25,M,up,0.6736923000007664,0.4614555971913954,,experiment,emotion,1.0,,,,1490.1807804000002,1002,29,female,True,14901,14908,False,False,inspiration,expiration
484,106.0,25,M,up,0.4703693999999814,0.37909352365062654,,experiment,emotion,1.0,,,,1491.5141009000001,1002,29,female,True,14914,14919,False,False,expiration,expiration
485,106.0,25,M,up,0.5327648000002227,1.2268865477796256,,experiment,emotion,1.0,,,,1493.4807007000002,1002,29,female,True,14934,14939,False,False,inspiration,inspiration
486,102.0,25,F,down,1.359844499999781,1.3521345288904718,,experiment,emotion,1.0,,,,1495.6306250999994,1002,29,female,True,14956,14970,False,False,expiration,inspiration
487,106.0,25,F,down,1.0469223999998576,1.4211661905683814,,experiment,emotion,1.0,,,,1498.6805114999993,1002,29,female,True,14986,14996,False,False,peak,expiration
488,115.0,25,M,up,0.9734215999997105,1.5872614281871198,,experiment,emotion,1.0,,,,1501.5970527000002,1002,29,female,True,15015,15025,False,False,inspiration,inspiration
489,111.0,25,F,down,0.9015045000005556,1.6099787340524905,,experiment,emotion,1.0,,,,1504.4469681,1002,29,female,True,15044,15053,False,False,expiration,expiration
490,102.0,25,F,down,0.5199591000000511,0.7940354539372569,,experiment,emotion,1.0,,,,1506.4135054999995,1002,29,female,True,15064,15069,False,False,inspiration,inspiration
491,102.0,25,F,down,0.9050128999997468,1.3215363410806618,,experiment,emotion,1.0,,,,1508.5134589000002,1002,29,female,True,15085,15094,False,False,expiration,inspiration
492,111.0,25,M,down,0.7157943000001978,1.7939553633353629,,experiment,emotion,1.0,,,,1511.4966812000002,1002,29,female,True,15114,15121,False,False,expiration,expiration
493,106.0,25,F,down,1.0638733999994656,0.3097062527725603,,experiment,emotion,1.0,,,,1512.7966316000004,1002,29,female,True,15127,15138,False,False,expiration,inspiration
494,115.0,25,F,down,1.026578899999549,1.8883695777273903,,experiment,emotion,1.0,,,,1516.0298713000002,1002,29,female,True,15160,15170,False,False,expiration,expiration
495,102.0,25,F,down,0.7060273000006418,1.386595138128755,,experiment,emotion,1.0,,,,1518.7464382999995,1002,29,female,True,15187,15194,False,False,inspiration,expiration
496,106.0,25,M,down,1.1175176999995529,1.6457375278939486,,experiment,emotion,1.0,,,,1521.3630042000007,1002,29,female,True,15213,15224,False,False,expiration,inspiration
497,102.0,25,M,down,0.8172099000003072,0.8000141634119726,,experiment,emotion,1.0,,,,1523.546257,1002,29,female,True,15235,15243,False,False,expiration,expiration
498,111.0,25,F,down,1.051922499999819,0.33565175436399136,,experiment,emotion,1.0,,,,1524.9795365,1002,29,female,True,15249,15260,False,False,expiration,inspiration
499,115.0,25,M,down,1.181735099999969,0.9109933885714391,,experiment,emotion,1.0,,,,1527.2127325,1002,29,female,True,15272,15284,False,False,expiration,expiration
500,106.0,25,F,down,0.945445800000016,1.016177829250298,,experiment,emotion,1.0,,,,1529.6960119000007,1002,29,female,True,15296,15305,False,False,expiration,inspiration
501,115.0,25,M,up,0.5096247999999832,1.996192995391004,,experiment,emotion,1.0,,,,1532.8958872000005,1002,29,female,True,15328,15333,False,False,expiration,inspiration
502,111.0,25,M,up,0.8213108999998441,1.6488597778059633,,experiment,emotion,1.0,,,,1535.3291535999995,1002,29,female,True,15353,15361,False,False,expiration,expiration
503,0.13084434311626114,25,up,up,0.5635796999995364,0.5717762652888159,,experiment,cRDM,2.0,,,,1548.6119184999998,1002,29,female,True,15486,15492,False,False,peak,expiration
504,0.13084434311626114,25,up,up,0.5109652999999525,1.6408856350884164,,experiment,cRDM,2.0,,,,1551.0784979,1002,29,female,True,15510,15515,False,False,inspiration,peak
505,0.13084434311626114,25,down,down,0.7846989999998186,1.102943553855166,,experiment,cRDM,2.0,,,,1552.9617580000006,1002,29,female,True,15529,15537,False,False,expiration,expiration
506,0.13084434311626114,25,down,up,0.5968110999992859,0.7543240484736656,,experiment,cRDM,2.0,,,,1554.7616740000005,1002,29,female,True,15547,15553,False,False,expiration,inspiration
507,0.13084434311626114,25,up,up,0.5235032000000501,1.1314759027066996,,experiment,cRDM,2.0,,,,1556.7449623000002,1002,29,female,True,15567,15572,False,False,expiration,expiration
508,0.13084434311626114,25,down,down,0.8082281999995757,1.4636476626920054,,experiment,cRDM,2.0,,,,1558.9782101,1002,29,female,True,15589,15597,False,False,expiration,expiration
509,0.13084434311626114,25,up,up,0.5853402000002461,1.2160643819178352,,experiment,cRDM,2.0,,,,1561.2781180000004,1002,29,female,True,15612,15618,False,False,inspiration,expiration
510,0.13084434311626114,25,up,up,0.6730913000001237,1.6799418320095845,,experiment,cRDM,2.0,,,,1563.8113648999995,1002,29,female,True,15638,15645,False,False,expiration,expiration
511,0.13084434311626114,25,down,down,0.6298378999999841,0.30634614829516243,,experiment,cRDM,2.0,,,,1565.0446541,1002,29,female,True,15650,15656,True,True,trough,inspiration
512,0.13084434311626114,25,down,down,0.5298646000001099,1.3959923652085977,,experiment,cRDM,2.0,,,,1567.3445921000002,1002,29,female,True,15673,15678,True,True,expiration,expiration
513,0.13084434311626114,25,down,down,0.7126553999996759,1.4503026908881806,,experiment,cRDM,2.0,,,,1569.5778016000006,1002,29,female,True,15695,15702,True,True,expiration,inspiration
514,0.13084434311626114,25,down,down,0.5254790999997567,1.749291039183858,,experiment,cRDM,2.0,,,,1572.3110404999998,1002,29,female,True,15723,15728,True,True,expiration,expiration
515,0.13084434311626114,25,down,down,0.5864805000001071,1.16180348324625,,experiment,cRDM,2.0,,,,1574.2609786000005,1002,29,female,True,15742,15748,True,True,inspiration,inspiration
516,0.13084434311626114,25,down,up,0.7421981999996206,0.5762589922850923,,experiment,cRDM,2.0,,,,1575.6942547,1002,29,female,True,15756,15763,True,True,expiration,expiration
517,0.13084434311626114,25,up,up,0.6046077000000878,0.8778123461873784,,experiment,cRDM,2.0,,,,1577.5608432,1002,29,female,True,15775,15781,True,True,expiration,expiration
518,0.13084434311626114,25,up,up,0.683984799999962,1.191389883192832,,experiment,cRDM,2.0,,,,1579.627477,1002,29,female,True,15796,15803,True,True,expiration,expiration
519,0.13084434311626114,25,up,up,0.6737680000005639,0.7377155684884318,,experiment,cRDM,2.0,,,,1581.3106914999996,1002,29,female,True,15813,15820,True,True,expiration,expiration
520,0.13084434311626114,25,up,down,0.909517699999924,1.3883878386485276,,experiment,cRDM,2.0,,,,1583.6439554,1002,29,female,True,15836,15845,False,False,inspiration,inspiration
521,0.13084434311626114,25,down,down,0.580269799999769,1.7676583889101851,,experiment,cRDM,2.0,,,,1586.5771806000002,1002,29,female,True,15865,15871,False,False,inspiration,inspiration
522,0.13084434311626114,25,up,up,1.0143263999998453,0.8118591644075897,,experiment,cRDM,2.0,,,,1588.2271631000006,1002,29,female,True,15882,15892,False,False,inspiration,inspiration
523,0.13084434311626114,25,up,up,0.6340666999994937,0.4620703527864307,,experiment,cRDM,2.0,,,,1589.9603911000006,1002,29,female,True,15899,15905,False,False,expiration,expiration
524,0.13084434311626114,25,down,down,0.6394247999996878,0.32601282210699456,,experiment,cRDM,2.0,,,,1591.1769999999995,1002,29,female,True,15911,15917,False,False,expiration,expiration
525,0.13084434311626114,25,up,up,0.6998264000003473,0.6591315041820955,,experiment,cRDM,2.0,,,,1592.7436559999994,1002,29,female,True,15927,15934,False,False,inspiration,inspiration
526,0.13084434311626114,25,down,down,0.6356249000000389,1.1293341954100538,,experiment,cRDM,2.0,,,,1594.8268965999994,1002,29,female,True,15948,15954,False,False,expiration,expiration
527,0.13084434311626114,25,down,down,1.0466710999999125,1.7726092020158886,,experiment,cRDM,2.0,,,,1597.4767760000007,1002,29,female,True,15974,15984,False,False,inspiration,peak
528,0.13084434311626114,25,up,up,0.6364702999999281,1.5717066534149111,,experiment,cRDM,2.0,,,,1600.3599796999995,1002,29,female,True,16003,16009,False,False,inspiration,inspiration
529,0.13084434311626114,25,up,up,0.6701806000000943,1.3313086620802628,,experiment,cRDM,2.0,,,,1602.5932644000006,1002,29,female,True,16025,16032,False,False,inspiration,inspiration
530,0.13084434311626114,25,down,down,0.6949821999996857,1.7647077684065118,,experiment,cRDM,2.0,,,,1605.2765087999994,1002,29,female,True,16052,16059,False,False,expiration,expiration
531,0.13084434311626114,25,up,up,0.6217793000005258,1.3331363938450114,,experiment,cRDM,2.0,,,,1607.5597364000007,1002,29,female,True,16075,16081,False,False,inspiration,inspiration
532,0.13084434311626114,25,down,down,0.6438056999995752,1.2144525186043134,,experiment,cRDM,2.0,,,,1609.6596559,1002,29,female,True,16096,16102,False,False,expiration,expiration
