,stimLvl,stimTime,rand,response,rt,precedingITI,trialNumber,trialType,stimuli,block,estIntens,estThres,estSlope,trialStart,subject,age,gender,headRest,onset,responsI,manBadOnset,manBadRespons,onset_phase,respons_phase
0,150.0,100,F,,,1.560090026073639,,introTrial,emotion,,,,,288.2113838000005,1003,24,female,True,2881,0,False,False,inspiration,0
1,0.9,100,down,,,1.4687581625764194,,introTrial,cRDM,,,,,293.61119569999937,1003,24,female,True,2935,0,False,False,expiration,0
2,0.9,25,up,up,1.348581199999899,1.112710581237532,,tutorial,cRDM,,,,,324.5100540000003,1003,24,female,True,3244,3257,False,False,expiration,inspiration
3,0.9,25,up,up,1.6866512999986298,0.43208653833858063,,tutorial,cRDM,,,,,326.5599760999994,1003,24,female,True,3264,3281,False,False,inspiration,expiration
4,0.9,25,up,up,1.2527459999982966,0.36752954549298295,,tutorial,cRDM,,,,,328.90987750000016,1003,24,female,True,3288,3301,False,False,expiration,inspiration
5,0.9,25,down,down,0.5254658999983803,0.5615404636764005,,tutorial,cRDM,,,,,330.9931747999999,1003,24,female,True,3309,3314,False,False,expiration,expiration
6,0.9,25,down,down,0.5255867000014405,0.5650129146179133,,tutorial,cRDM,,,,,332.3430924000004,1003,24,female,True,3322,3327,False,False,expiration,inspiration
7,0.9,25,down,down,0.6025414999985514,1.2464111700936007,,tutorial,cRDM,,,,,334.3930636000005,1003,24,female,True,3343,3349,False,False,expiration,expiration
8,0.9,25,down,down,0.692034200001217,1.546853976429179,,tutorial,cRDM,,,,,336.80960269999923,1003,24,female,True,3367,3374,False,False,inspiration,expiration
9,0.9,25,down,down,1.0161256000010326,1.632815755803657,,tutorial,cRDM,,,,,339.4095118999994,1003,24,female,True,3393,3403,False,False,expiration,inspiration
10,0.9,25,up,up,0.6109291000011581,1.4412917252170825,,tutorial,cRDM,,,,,342.14271329999974,1003,24,female,True,3420,3426,False,False,expiration,expiration
11,0.9,25,up,up,0.5986006999992242,1.1556007573111773,,tutorial,cRDM,,,,,344.1759808999996,1003,24,female,True,3441,3447,False,False,inspiration,expiration
12,200.0,25,M,up,0.7891846000002259,0.5700825035150554,,tutorial,emotion,,,,,350.34245589999955,1003,24,female,True,3502,3510,False,False,inspiration,inspiration
13,200.0,25,M,up,0.5902810999996291,1.225188149237639,,tutorial,emotion,,,,,352.64234289999877,1003,24,female,True,3525,3531,False,False,expiration,inspiration
14,200.0,25,F,up,0.5476271999996243,0.5503958699366114,,tutorial,emotion,,,,,354.0589741000004,1003,24,female,True,3539,3544,False,False,peak,expiration
15,0.0,25,F,down,0.5098116000008304,1.5470411815046392,,tutorial,emotion,,,,,356.458847599999,1003,24,female,True,3563,3568,False,False,inspiration,inspiration
16,0.0,25,M,down,0.35020500000064203,1.5133642092069242,,tutorial,emotion,,,,,358.75877050000054,1003,24,female,True,3586,3590,False,False,expiration,expiration
17,200.0,25,F,up,0.641492400000061,0.9292668569010732,,tutorial,emotion,,,,,360.3920827000002,1003,24,female,True,3603,3609,False,False,inspiration,expiration
18,0.0,25,M,down,0.5203069999988656,1.8130721870010191,,tutorial,emotion,,,,,363.1252876999988,1003,24,female,True,3630,3635,False,False,inspiration,inspiration
19,200.0,25,M,up,0.5303779999994731,0.7875214517902374,,tutorial,emotion,,,,,364.7252435999998,1003,24,female,True,3646,3651,False,False,expiration,expiration
20,0.0,25,F,down,0.6340955000014219,0.4756066828301059,,tutorial,emotion,,,,,366.00854110000006,1003,24,female,True,3659,3665,False,False,trough,inspiration
21,0.0,25,F,down,0.7042068000009749,1.57154674114812,,tutorial,emotion,,,,,368.5084239999997,1003,24,female,True,3684,3691,False,False,expiration,inspiration
22,0.29,25,up,up,0.6455671000003349,0.6229805933223904,,psi_staircase_training,cRDM,,0.25,0.25693124029946324,0.10500000000000002,377.30809599999884,1003,24,female,True,3772,3778,False,False,expiration,expiration
23,0.25,25,up,up,1.0132946000012453,1.0993083969719444,,psi_staircase_training,cRDM,,0.21910266653183127,0.2260132002683493,0.10468632033873933,379.3413370999988,1003,24,female,True,3792,3802,False,False,expiration,expiration
24,0.21,25,down,down,0.6861325999998371,1.4372850605584817,,psi_staircase_training,cRDM,,0.1900540959403307,0.19684979615540016,0.10294672984249993,382.0744947000003,1003,24,female,True,3820,3827,False,False,inspiration,expiration
25,0.18,25,down,up,1.0014283000000432,1.5092601238234982,,psi_staircase_training,cRDM,,0.1635257589279754,0.1701521334256793,0.100381647756865,384.541160499999,1003,24,female,True,3844,3854,False,False,expiration,inspiration
26,0.28,25,up,up,0.9336906999997154,0.8309191963941841,,psi_staircase_training,cRDM,,0.2462894156509761,0.25367687443104303,0.11191116429293203,386.6410892999993,1003,24,female,True,3865,3874,False,False,expiration,expiration
27,0.26,25,down,down,0.6932452999990346,1.269232092585148,,psi_staircase_training,cRDM,,0.2240209245171441,0.23127202108978026,0.10984543995477343,389.124337199999,1003,24,female,True,3890,3897,False,False,inspiration,inspiration
28,0.23,25,up,up,1.2076268999990134,0.6472448163477815,,psi_staircase_training,cRDM,,0.2047781477371872,0.21182460465655809,0.10674539397966608,390.7409372999992,1003,24,female,True,3906,3918,False,False,expiration,expiration
29,0.23,25,down,down,0.8061806999994587,1.5239537331866235,,psi_staircase_training,cRDM,,0.1874201716315257,0.19431844658589745,0.10450061445209473,393.7573955999997,1003,24,female,True,3937,3945,False,False,inspiration,expiration
30,0.21,25,down,down,0.7334878999990906,0.4244488138391392,,psi_staircase_training,cRDM,,0.17345971586379055,0.18012712878884973,0.10100333084475896,395.2740909000004,1003,24,female,True,3952,3959,False,False,expiration,expiration
31,0.17,25,up,up,0.5839383000002272,1.4057055999006365,,psi_staircase_training,cRDM,,0.16045966703622236,0.16702796679355406,0.09950188490409588,397.6906665999995,1003,24,female,True,3976,3982,False,False,inspiration,expiration
32,0.17,25,down,up,0.7833284000007552,0.43745478097415,,psi_staircase_training,cRDM,,0.14444951683624788,0.15146531287032866,0.10628091824136077,399.00728879999946,1003,24,female,True,3989,3997,False,False,inspiration,expiration
33,0.23,25,down,up,0.8338031000002957,1.6481858669142395,,psi_staircase_training,cRDM,,0.18853963286420486,0.19473897013844316,0.09391254460553444,401.72385589999976,1003,24,female,True,4016,4024,False,False,expiration,expiration
34,0.28,25,down,up,0.6926428999995551,1.8028276761917157,,psi_staircase_training,cRDM,,0.23596897158779684,0.24420237367933803,0.124726193619166,404.65694479999917,1003,24,female,True,4046,4053,False,False,inspiration,expiration
35,0.36,25,up,up,0.7573412999990978,1.0316430536724357,,psi_staircase_training,cRDM,,0.2959971593713885,0.3051751476398816,0.1390355443695117,406.6572696999992,1003,24,female,True,4066,4074,False,False,expiration,expiration
36,0.34,25,up,down,1.4509309999994002,0.6251990184372158,,psi_staircase_training,cRDM,,0.2804725991774916,0.28969923433027683,0.13977248647943666,408.3236412000005,1003,24,female,True,4082,4097,False,False,expiration,expiration
37,0.4,25,down,up,0.8201305000002321,1.7759343444211686,,psi_staircase_training,cRDM,,0.3390015559728681,0.3482703752675165,0.1404115257717225,411.8234847000003,1003,24,female,True,4117,4125,False,False,expiration,expiration
38,0.44,25,down,down,0.7674838999992062,0.3187062596016929,,psi_staircase_training,cRDM,,0.3902299832287697,0.3991020699550429,0.13440150189726266,413.24012330000005,1003,24,female,True,4131,4139,False,False,inspiration,inspiration
39,0.44,25,up,up,0.7439502999986871,0.3892575538412735,,psi_staircase_training,cRDM,,0.3797213518816756,0.38880836777026057,0.13765742162702194,414.673643099999,1003,24,female,True,4146,4153,False,False,expiration,expiration
40,0.39,25,up,down,0.6836542000000918,0.543056170908738,,psi_staircase_training,cRDM,,0.3702202514042397,0.3793918390251975,0.13893858221524155,416.23996919999985,1003,24,female,True,4161,4168,False,False,expiration,trough
41,0.45,25,up,up,0.5529483999998774,0.4048474794527426,,psi_staircase_training,cRDM,,0.4050262263266919,0.4130044838517508,0.1208610586183343,417.6065949999993,1003,24,female,True,4175,4181,False,False,inspiration,expiration
42,0.45,25,up,up,0.6134530999988783,1.5924101846902114,,psi_staircase_training,cRDM,,0.39868983923564905,0.4065569921868919,0.11917795721848905,420.02317570000014,1003,24,female,True,4199,4205,False,False,expiration,expiration
43,0.45,25,down,up,1.0241731999994954,1.759558815462138,,psi_staircase_training,cRDM,,0.3933274493564977,0.4009866305551023,0.11602743392344247,422.65645240000055,1003,24,female,True,4226,4236,False,False,expiration,expiration
44,0.46,25,down,down,0.7316131999996287,0.7075691652513274,,psi_staircase_training,cRDM,,0.416897867056007,0.4260149979557307,0.13811362802485982,424.6730119000004,1003,24,female,True,4246,4253,False,False,inspiration,inspiration
45,0.46,25,down,down,0.9893654999996216,0.9728554346644434,,psi_staircase_training,cRDM,,0.4108482392537408,0.42001269423537374,0.13883053126090253,426.6562212999997,1003,24,female,True,4266,4276,False,False,expiration,expiration
46,0.43,25,up,up,0.6935449000011431,0.8528924863409344,,psi_staircase_training,cRDM,,0.4053022472773605,0.4144242219451266,0.13818700531701644,428.75607709999895,1003,24,female,True,4287,4294,False,False,inspiration,expiration
47,0.43,25,up,up,0.6672183999999106,1.4515518782566086,,psi_staircase_training,cRDM,,0.3977498179503105,0.4071203074522999,0.1419517078040259,431.15636379999887,1003,24,female,True,4311,4318,False,False,expiration,inspiration
48,0.44,25,down,up,0.7816204999999172,1.9121461049357025,,psi_staircase_training,cRDM,,0.39051530485697145,0.4000300280322879,0.14413667543536146,434.0059875999996,1003,24,female,True,4339,4347,False,False,expiration,expiration
49,0.47,25,down,down,0.7480309999991732,1.7430986118729688,,psi_staircase_training,cRDM,,0.4145466661617396,0.4242110215106173,0.1464034238880349,436.8225497000003,1003,24,female,True,4367,4374,False,False,peak,expiration
50,0.42,25,up,up,0.7721255999986171,1.014599677795944,,psi_staircase_training,cRDM,,0.4102327930247032,0.4198029908945337,0.14497705070332384,438.8724899999997,1003,24,female,True,4388,4396,False,False,inspiration,inspiration
51,0.42,25,up,up,0.7632504000011977,1.2452056173830086,,psi_staircase_training,cRDM,,0.4030002563285382,0.4129534830309296,0.1507794793713935,441.1723918999997,1003,24,female,True,4411,4419,False,False,expiration,inspiration
52,100.0,25,M,down,0.9013799999993352,0.9253868908407958,,psi_staircase_training,emotion,,100.0,100.0,25.00050000000001,446.67219780000056,1003,24,female,True,4466,4475,False,False,expiration,expiration
53,145.0,25,M,up,0.6678585999998177,1.4509107165834116,,psi_staircase_training,emotion,,145.25719053245996,145.25719053245996,25.000500000000283,449.3887350999994,1003,24,female,True,4493,4500,False,False,inspiration,expiration
54,121.0,25,F,down,0.7349372999997286,1.2743821887697395,,psi_staircase_training,emotion,,120.36392901436103,120.36392901436103,25.71326925488699,451.68868069999917,1003,24,female,True,4516,4523,False,False,inspiration,inspiration
55,137.0,25,F,up,0.7420184999991761,1.6107441857051028,,psi_staircase_training,emotion,,137.8359832966118,137.8359832966118,25.292325986285494,454.3885630000004,1003,24,female,True,4543,4550,False,False,expiration,expiration
56,127.0,25,M,up,0.4716933999989124,0.3246032771585611,,psi_staircase_training,emotion,,126.46069055808249,126.46069055808249,23.649751085611292,455.82186960000035,1003,24,female,True,4557,4562,False,False,inspiration,inspiration
57,113.0,25,F,down,0.6075893999986874,1.6971626862393012,,psi_staircase_training,emotion,,117.5164469811675,117.5164469811675,24.576174135130763,458.35506619999984,1003,24,female,True,4583,4589,False,False,expiration,inspiration
58,117.0,25,M,down,0.7063960000014049,0.7193086028247926,,psi_staircase_training,emotion,,123.97574817942949,123.97574817942949,21.320254309740623,460.03837089999985,1003,24,female,True,4599,4606,False,False,expiration,expiration
59,131.0,25,F,up,0.5240255000007892,1.816601859597368,,psi_staircase_training,emotion,,127.58399838676192,127.58399838676192,18.701144340840926,462.92158930000005,1003,24,female,True,4628,4633,False,False,inspiration,expiration
60,124.0,25,F,up,0.6648826000000554,1.44383264813085,,psi_staircase_training,emotion,,124.01639763482855,124.01639763482855,15.442781744085119,465.2547216000002,1003,24,female,True,4652,4659,False,False,inspiration,expiration
61,116.0,25,M,up,1.2915106000000378,0.9255765293910484,,psi_staircase_training,emotion,,120.73873588651483,120.73873588651483,15.484540530384072,467.1880965999989,1003,24,female,True,4671,4684,False,False,expiration,peak
62,103.0,25,F,down,0.6888944000002084,0.3841475658932475,,psi_staircase_training,emotion,,115.35674640454216,115.35674640454216,23.67234390188736,469.20469000000054,1003,24,female,True,4691,4698,False,False,expiration,expiration
63,105.0,25,F,down,0.5861401000001933,0.5006486861307493,,psi_staircase_training,emotion,,117.97134362294369,117.97134362294369,20.934445320635678,470.75462489999876,1003,24,female,True,4707,4713,False,False,expiration,inspiration
64,133.0,25,F,up,0.6083098999988579,0.8569943939568798,,psi_staircase_training,emotion,,119.6839312810483,119.6839312810483,18.588518579384054,472.57125809999883,1003,24,female,True,4725,4731,False,False,expiration,expiration
65,107.0,25,M,down,0.7339799000001221,1.3864987646337188,,psi_staircase_training,emotion,,118.53364819240231,118.53364819240231,16.570832855564753,474.90450049999885,1003,24,female,True,4748,4755,False,False,inspiration,inspiration
66,130.0,25,M,up,0.851571100000001,0.6802536222825313,,psi_staircase_training,emotion,,119.68210060391723,119.68210060391723,14.559030680758223,476.6710899999998,1003,24,female,True,4766,4775,False,False,expiration,expiration
67,110.0,25,F,down,0.7112909999996191,1.3306589833508622,,psi_staircase_training,emotion,,118.8469149485928,118.8469149485928,12.880440819241205,479.2043205999999,1003,24,female,True,4791,4798,False,False,inspiration,expiration
68,128.0,25,F,up,0.621382100000119,1.5361366004560764,,psi_staircase_training,emotion,,119.69825864330113,119.69825864330113,11.303807507587207,481.8042167999992,1003,24,female,True,4817,4823,False,False,inspiration,inspiration
69,112.0,25,M,up,0.5981093999998848,0.7996113136117896,,psi_staircase_training,emotion,,119.08494612960537,119.08494612960537,10.03140485838151,483.5874900999988,1003,24,female,True,4835,4841,False,False,expiration,expiration
70,104.0,25,M,down,0.6452022000012221,0.8486372201951586,,psi_staircase_training,emotion,,116.55743024499245,116.55743024499245,14.501185982403738,485.3874144999992,1003,24,female,True,4853,4859,False,False,inspiration,inspiration
71,105.0,25,M,up,0.5905834000004688,0.8241382122792844,,psi_staircase_training,emotion,,117.24551364633824,117.24551364633824,13.02819540525918,487.2040192999994,1003,24,female,True,4871,4877,False,False,expiration,expiration
72,97.0,25,M,down,0.7029851999996026,0.773332231298735,,psi_staircase_training,emotion,,114.62804107368342,114.62804107368342,19.386335522450686,488.92062559999977,1003,24,female,True,4888,4895,False,False,trough,inspiration
73,98.0,25,F,down,0.6400026000010257,0.5444513252156583,,psi_staircase_training,emotion,,115.34723826600485,115.34723826600485,17.856917643404127,490.5205667999999,1003,24,female,True,4904,4910,False,False,expiration,expiration
74,132.0,25,F,up,0.4614240000009886,1.2250731919483038,,psi_staircase_training,emotion,,115.87548682160471,115.87548682160471,16.558407318245802,492.7371346,1003,24,female,True,4926,4931,False,False,inspiration,inspiration
75,100.0,25,F,down,0.6307980000001407,0.4563844737600544,,psi_staircase_training,emotion,,115.38380455989432,115.38380455989432,15.386545434672113,494.0037742999994,1003,24,female,True,4939,4945,False,False,expiration,expiration
76,130.0,25,M,up,0.5640139999995881,0.553682324819009,,psi_staircase_training,emotion,,115.805755018477,115.805755018477,14.349079959880548,495.5536145999995,1003,24,female,True,4955,4961,False,False,trough,inspiration
77,101.0,25,M,down,0.6682487999987643,1.5505719542607472,,psi_staircase_training,emotion,,115.39170425309572,115.39170425309572,13.419871946991172,498.02029450000015,1003,24,female,True,4979,4986,False,False,expiration,expiration
78,128.0,25,F,up,0.3335393999986991,1.6895259652540713,,psi_staircase_training,emotion,,115.72371266642551,115.72371266642551,12.630037334236796,500.7368435999997,1003,24,female,True,5006,5009,False,False,expiration,expiration
79,127.0,25,F,up,0.3335208000007697,1.7306141914013426,,psi_staircase_training,emotion,,115.35279133343931,115.35279133343931,11.905701074908887,503.2367562,1003,24,female,True,5031,5034,False,False,inspiration,inspiration
80,104.0,25,M,down,0.9245673999994324,0.9133207190106798,,psi_staircase_training,emotion,,115.03273180386357,115.03273180386357,11.29426224967102,504.92004689999885,1003,24,female,True,5048,5057,False,False,inspiration,expiration
81,125.0,25,M,up,0.5563041000004887,0.3012076131900407,,psi_staircase_training,emotion,,115.36630704387908,115.36630704387908,10.722065986268717,506.5033012999993,1003,24,female,True,5064,5070,False,False,expiration,expiration
82,0.29,25,up,up,1.0865969000005862,0.7084057295396354,,psi_staircase,cRDM,,0.25,0.25693124029946324,0.10500000000000002,514.7030035999996,1003,24,female,True,5146,5157,False,False,expiration,expiration
83,0.25,25,up,up,0.7392655000003288,0.31895999053308816,,psi_staircase,cRDM,,0.21910266653183127,0.2260132002683493,0.10468632033873933,516.3863044999998,1003,24,female,True,5163,5170,False,False,expiration,expiration
84,0.21,25,down,up,1.2240416000004188,1.6628387653086751,,psi_staircase,cRDM,,0.1900540959403307,0.19684979615540016,0.10294672984249993,519.0695006000005,1003,24,female,True,5190,5202,False,False,expiration,expiration
85,0.32,25,down,down,0.7068221000008634,0.5445957189649554,,psi_staircase,cRDM,,0.28193877959813873,0.2893209636160949,0.11183125795615867,521.1027792000003,1003,24,female,True,5210,5217,False,False,inspiration,inspiration
86,0.29,25,up,up,0.7252248000004329,1.0065494377816944,,psi_staircase,cRDM,,0.25942687694212696,0.2667634756990502,0.11114069577656796,523.0693630999995,1003,24,female,True,5230,5237,False,False,expiration,expiration
87,0.27,25,down,down,0.7196384000017133,1.1748469891060094,,psi_staircase,cRDM,,0.23867195095052604,0.2458822432686335,0.10922730430510502,525.2359641000003,1003,24,female,True,5251,5258,False,False,inspiration,expiration
88,0.26,25,up,up,0.7063490000000456,0.4109625732465823,,psi_staircase,cRDM,,0.22011578024889514,0.22717390155917144,0.1069220955499698,526.6192331000002,1003,24,female,True,5265,5272,False,False,expiration,expiration
89,0.24,25,down,down,0.7054066999990027,0.6878217812789462,,psi_staircase,cRDM,,0.2041505375414391,0.21103014118178134,0.10421776637752347,528.2692028000001,1003,24,female,True,5282,5289,False,False,inspiration,inspiration
90,0.2,25,down,down,1.6142305000012132,0.6102872331746808,,psi_staircase,cRDM,,0.18886445544182692,0.19570804001934874,0.10367212065861199,529.8523526999999,1003,24,female,True,5298,5314,False,False,expiration,inspiration
91,0.2,25,up,up,0.6115680000002612,0.9973552372610749,,psi_staircase,cRDM,,0.1705557926382123,0.17784973218897618,0.11049445982842553,532.7189992999993,1003,24,female,True,5326,5332,False,False,inspiration,expiration
92,0.19,25,down,down,0.9759610000000976,0.3552426753837749,,psi_staircase,cRDM,,0.1533088738836659,0.16088341853737592,0.11474529150304325,533.9356115999999,1003,24,female,True,5338,5348,False,False,expiration,expiration
93,0.18,25,down,up,1.8153808000006395,0.5191015314887093,,psi_staircase,cRDM,,0.13747146237482788,0.14519649428426112,0.117024993427699,535.7022226999999,1003,24,female,True,5356,5374,False,False,inspiration,expiration
94,0.22,25,down,up,0.8721163000009255,1.304560207776782,,psi_staircase,cRDM,,0.18909830472859834,0.19676188978084247,0.11609414703858195,539.0854428999992,1003,24,female,True,5390,5399,False,False,inspiration,expiration
95,0.27,25,up,up,0.7118762999998578,0.9502880274414304,,psi_staircase,cRDM,,0.2318207965013537,0.2389986339810918,0.10873565232341767,541.1687235999998,1003,24,female,True,5411,5418,False,False,expiration,expiration
96,0.27,25,up,up,1.3034527999989225,1.5998254111619945,,psi_staircase,cRDM,,0.22172924758546206,0.2285682303927159,0.10360240934328306,543.7521785999999,1003,24,female,True,5437,5450,False,False,expiration,expiration
97,0.26,25,down,down,0.7627834000013536,1.1358843747773126,,psi_staircase,cRDM,,0.2140761206770766,0.22054642948788816,0.09801743927242344,546.4517961000001,1003,24,female,True,5464,5472,False,False,inspiration,expiration
98,0.25,25,down,down,0.7865270000002056,1.3440008595141586,,psi_staircase,cRDM,,0.2078596450504573,0.21399475808724566,0.09293962422752296,548.8350683999997,1003,24,female,True,5487,5495,False,False,expiration,inspiration
99,0.21,25,up,up,0.6949343000014778,1.0593354614187231,,psi_staircase,cRDM,,0.20221321288341856,0.20811102877606988,0.08934485632771147,550.9516234999992,1003,24,female,True,5509,5516,False,False,expiration,expiration
100,0.21,25,up,down,1.5596593999998731,1.4169326971944562,,psi_staircase,cRDM,,0.19028547393976508,0.1969768039277192,0.10136564574014148,553.3348862000003,1003,24,female,True,5532,5548,False,False,inspiration,expiration
101,0.26,25,up,up,0.8554207999986829,0.8023497089132454,,psi_staircase,cRDM,,0.2191634824511115,0.2242131890614164,0.07649701513350712,555.9681755000001,1003,24,female,True,5559,5568,False,False,inspiration,expiration
102,0.24,25,up,up,0.8425225000009959,1.4952305428354185,,psi_staircase,cRDM,,0.21597007344495134,0.2206225980103106,0.07048018222662847,558.5680718999993,1003,24,female,True,5585,5593,False,False,inspiration,inspiration
103,0.24,25,down,down,1.1933823999988815,1.671951804707009,,psi_staircase,cRDM,,0.21142833076928544,0.21598722837977846,0.06906184584869067,561.3512085000001,1003,24,female,True,5613,5625,False,False,expiration,inspiration
104,0.23,25,down,up,1.0766954999999143,1.765046729630486,,psi_staircase,cRDM,,0.20777577843573636,0.21220336440659684,0.06707263157163275,564.5678578999996,1003,24,female,True,5645,5656,False,False,expiration,inspiration
105,0.26,25,down,down,0.9801754999989498,1.68532315317397,,psi_staircase,cRDM,,0.2251067343443507,0.2290580119921673,0.059857130195423776,567.5843982000006,1003,24,female,True,5675,5685,False,False,expiration,inspiration
106,0.26,25,up,up,1.7605318000005354,0.6541932569773588,,psi_staircase,cRDM,,0.22346069343642874,0.2270336171770916,0.054125521055539014,569.500966399999,1003,24,female,True,5694,5712,False,False,peak,expiration
107,0.24,25,up,up,1.0017705999998725,1.8607609724615517,,psi_staircase,cRDM,,0.22251226802985355,0.22574760001018795,0.04901140968398092,573.4008302000002,1003,24,female,True,5733,5743,False,False,expiration,expiration
108,0.24,25,down,down,1.6111548999997467,1.6456015711818437,,psi_staircase,cRDM,,0.2198495726979164,0.22303606669798345,0.048271572698604784,576.3173869999991,1003,24,female,True,5762,5778,False,False,inspiration,expiration
109,0.23,25,down,down,0.993941000000632,0.8561480369868872,,psi_staircase,cRDM,,0.21763522674390834,0.22075196622265125,0.047214875134735684,579.0506389999991,1003,24,female,True,5790,5800,False,False,trough,inspiration
110,0.21,25,up,up,0.8107024999990244,1.4670860946704714,,psi_staircase,cRDM,,0.21352523975623755,0.21686525085495065,0.050597173119511014,581.7838501000006,1003,24,female,True,5817,5825,False,False,expiration,expiration
111,0.21,25,up,up,1.0171692000003532,1.8401261432590592,,psi_staircase,cRDM,,0.2055727909291168,0.2097342986977259,0.0630418650667455,584.7004087000005,1003,24,female,True,5846,5856,False,False,expiration,expiration
112,0.2,25,down,down,1.048969000001307,1.8983757054202453,,psi_staircase,cRDM,,0.19604103981222445,0.20111512452283767,0.07686631419424962,587.8836186999997,1003,24,female,True,5878,5888,False,False,inspiration,expiration
113,0.2,25,up,up,1.07142229999954,0.36256414887456656,,psi_staircase,cRDM,,0.1848654320074912,0.19096207857488354,0.0923569032263628,589.5501700000004,1003,24,female,True,5895,5906,False,False,expiration,inspiration
114,0.2,25,down,down,0.7994283999996696,0.7153593430003292,,psi_staircase,cRDM,,0.1731570471507574,0.1802241075805869,0.10705751251901664,591.6001605999992,1003,24,female,True,5915,5923,False,False,peak,expiration
115,0.2,25,up,up,1.2161656999996922,0.6060324865553215,,psi_staircase,cRDM,,0.16182726938759187,0.16973281000878526,0.1197594845023021,593.2834236999988,1003,24,female,True,5932,5944,False,False,expiration,inspiration
116,0.2,25,down,down,0.7928838999996515,0.4496298022517208,,psi_staircase,cRDM,,0.15154160883680454,0.16011306024132288,0.12984723636606826,595.2166987,1003,24,female,True,5951,5959,False,False,inspiration,expiration
117,0.2,25,up,up,0.7579840999987937,1.200930005294352,,psi_staircase,cRDM,,0.14259984309125853,0.15166402581602234,0.1373115265061439,597.4666393999996,1003,24,female,True,5974,5982,False,False,expiration,inspiration
118,0.2,25,down,down,0.6954670000013721,1.5968976792690983,,psi_staircase,cRDM,,0.13499902199779806,0.1444074626383931,0.14252662216010306,600.083106099999,1003,24,female,True,6000,6007,False,False,expiration,expiration
119,0.2,25,up,up,0.7617553000000044,0.5649886339701973,,psi_staircase,cRDM,,0.1285689379614213,0.1382066378519461,0.14599962557689244,601.5997972000006,1003,24,female,True,6015,6023,False,False,expiration,inspiration
120,0.19,25,up,up,0.7782540999996854,1.7841092018080476,,psi_staircase,cRDM,,0.12308731122300677,0.13287079882496938,0.14820813502680347,604.4163348000002,1003,24,female,True,6043,6051,False,False,expiration,expiration
121,0.17,25,down,up,0.8976540000003297,1.5624076101329738,,psi_staircase,cRDM,,0.1180100648875652,0.127903203360765,0.14986921457136873,607.032894599999,1003,24,female,True,6069,6078,False,False,inspiration,expiration
122,0.2,25,down,up,1.0080664999986766,1.7969851937928,,psi_staircase,cRDM,,0.13725675987611005,0.14674529874925793,0.14374001457685384,609.9994668999989,1003,24,female,True,6099,6109,False,False,inspiration,expiration
123,0.2,25,down,up,1.1272470000003525,1.9888702795190123,,psi_staircase,cRDM,,0.15787413915150075,0.16681965604563756,0.13551388110972,613.2493352999992,1003,24,female,True,6132,6143,False,False,inspiration,peak
124,0.2,25,up,up,0.8232797000000573,0.965381928786609,,psi_staircase,cRDM,,0.1792842766813862,0.1871657856176134,0.11939543321964187,615.5992704,1003,24,female,True,6155,6163,False,False,expiration,inspiration
125,0.2,25,up,,,1.43258254522359,,psi_staircase,cRDM,,0.17168784462736172,0.18015006789900972,0.12819256080211927,618.0991998999998,1003,24,female,True,6180,0,False,False,expiration,0
126,0.2,25,down,down,1.2598140999998575,1.43258254522359,,psi_staircase,cRDM,,0.17168784462736172,0.18015006789900972,0.12819256080211927,622.2156826999999,1003,24,female,True,6221,6234,False,False,expiration,expiration
127,0.2,25,down,up,1.2020923999989463,1.8081998897680325,,psi_staircase,cRDM,,0.1647995591789654,0.17370560688197292,0.13491597007366807,625.5488908999996,1003,24,female,True,6255,6267,False,False,inspiration,expiration
128,0.2,25,down,up,1.1173859999998967,1.4818729367656558,,psi_staircase,cRDM,,0.18407592019195135,0.1919591639904136,0.1194217143074135,628.4821623999998,1003,24,female,True,6284,6295,False,False,trough,inspiration
129,0.2,25,down,up,1.5558782999996763,1.3462918043187106,,psi_staircase,cRDM,,0.20149607630908886,0.20797248943645635,0.09810991236680047,631.1986921999996,1003,24,female,True,6311,6327,False,False,expiration,trough
130,0.26,25,up,up,2.3057656000000857,0.6081788920131237,,psi_staircase,cRDM,,0.2148737374007155,0.21981395382802235,0.0748383698235636,633.6319287999995,1003,24,female,True,6335,6358,False,False,inspiration,expiration
131,0.26,25,up,up,1.082815899999332,1.6320255638979035,,psi_staircase,cRDM,,0.21451811966365647,0.2190448540072216,0.06857461082558969,637.8317580000003,1003,24,female,True,6377,6388,False,False,inspiration,expiration
132,0.26,25,up,up,1.0355244999991555,0.9934834197427196,,psi_staircase,cRDM,,0.21448247068475765,0.2186209977209819,0.06269373445863588,640.1650644000001,1003,24,female,True,6401,6411,False,False,expiration,inspiration
133,100.0,25,M,down,1.1394001999997272,0.4825989891869174,,psi_staircase,emotion,,100.0,100.0,25.00050000000001,644.7981858999992,1003,24,female,True,6447,6458,False,False,inspiration,expiration
134,145.0,25,M,up,0.7888027999997576,1.5403531026462125,,psi_staircase,emotion,,145.25719053245996,145.25719053245996,25.000500000000283,647.8147392999998,1003,24,female,True,6477,6485,False,False,expiration,inspiration
135,121.0,25,F,up,1.0688632000001237,0.6781708800216077,,psi_staircase,emotion,,120.36392901436103,120.36392901436103,25.71326925488699,649.6146833000003,1003,24,female,True,6495,6506,False,False,expiration,expiration
136,97.0,25,F,down,0.7016562999997404,1.1637131081883827,,psi_staircase,emotion,,102.38876106084959,102.38876106084959,26.14633372628729,652.1978997999995,1003,24,female,True,6521,6528,False,False,inspiration,inspiration
137,113.0,25,M,down,0.8574017999999342,0.9921262386125786,,psi_staircase,emotion,,114.01123255420406,114.01123255420406,23.003056417783352,654.2481212999992,1003,24,female,True,6542,6551,False,False,expiration,expiration
138,127.0,25,F,up,0.4991810000010446,1.6034335276931813,,psi_staircase,emotion,,123.15505271238727,123.15505271238727,23.86267166612523,657.0644109000003,1003,24,female,True,6570,6575,False,False,expiration,expiration
139,117.0,25,M,down,1.1202753000015946,1.198988083413431,,psi_staircase,emotion,,116.72664759921038,116.72664759921038,20.612160618334435,659.1143276999992,1003,24,female,True,6590,6601,False,False,inspiration,expiration
140,128.0,25,M,up,0.9166136999992888,0.8423739983259573,,psi_staircase,emotion,,122.2309869143983,122.2309869143983,20.83216394857295,661.4308863000006,1003,24,female,True,6613,6622,False,False,expiration,inspiration
141,113.0,25,F,up,0.7224000999995042,0.6241697133766775,,psi_staircase,emotion,,118.62736425730574,118.62736425730574,17.52430219955878,663.3141713999994,1003,24,female,True,6632,6639,False,False,peak,expiration
142,99.0,25,F,down,0.7731358999990334,1.7093387562211106,,psi_staircase,emotion,,113.2940091773718,113.2940091773718,23.91489830704409,666.0974040000001,1003,24,female,True,6660,6668,False,False,inspiration,inspiration
143,130.0,25,F,up,0.7032522000008612,1.3766978136461,,psi_staircase,emotion,,115.69706880286856,115.69706880286856,21.52499615988544,668.5972853000002,1003,24,female,True,6685,6692,False,False,expiration,inspiration
144,102.0,25,F,down,0.7773508000009315,1.932488933804176,,psi_staircase,emotion,,114.04094548765181,114.04094548765181,19.4061948943462,671.5971893999995,1003,24,female,True,6715,6723,False,False,expiration,expiration
145,128.0,25,F,up,0.8323892999997042,0.5917816534522882,,psi_staircase,emotion,,115.7039483156922,115.7039483156922,17.165391873909563,673.2971266000004,1003,24,female,True,6732,6740,False,False,inspiration,expiration
146,105.0,25,F,down,0.7532119999996212,1.2967348263586622,,psi_staircase,emotion,,114.59628060791269,114.59628060791269,15.2714993900026,675.7803630999988,1003,24,female,True,6757,6765,False,False,expiration,inspiration
147,125.0,25,M,up,0.8480029999991531,1.3797776260663301,,psi_staircase,emotion,,115.78857871975515,115.78857871975515,13.400555457201284,678.2635460000001,1003,24,female,True,6782,6790,False,False,expiration,expiration
148,107.0,25,M,down,0.8213948000011442,0.8826720709900324,,psi_staircase,emotion,,114.95798098257984,114.95798098257984,11.87603376900346,680.3301716999995,1003,24,female,True,6802,6810,False,False,inspiration,peak
149,109.0,25,M,up,0.9238071999989188,1.003640473704352,,psi_staircase,emotion,,115.82245734048199,115.82245734048199,10.443449431195768,682.4967844999992,1003,24,female,True,6824,6833,False,False,expiration,expiration
150,100.0,25,M,up,0.9601124000000708,0.9366924581893956,,psi_staircase,emotion,,113.40739643361415,113.40739643361415,14.362597296867188,684.7133747999998,1003,24,female,True,6846,6856,False,False,inspiration,expiration
151,91.0,25,F,down,0.6648341999989498,1.964552414978065,,psi_staircase,emotion,,110.23914918665669,110.23914918665669,21.812232451250704,687.9799217,1003,24,female,True,6879,6886,False,False,inspiration,inspiration
152,92.0,25,M,down,0.7890422000000399,1.5423198471119313,,psi_staircase,emotion,,111.15304958556732,111.15304958556732,20.158773771075566,690.5464921000003,1003,24,female,True,6905,6913,False,False,expiration,expiration
153,129.0,25,M,up,0.9597990999991453,0.989291926947194,,psi_staircase,emotion,,111.82568439845379,111.82568439845379,18.723909250469827,692.6797336999989,1003,24,female,True,6926,6936,False,False,inspiration,expiration
154,94.0,25,F,down,0.7372242000001279,0.8080969291763165,,psi_staircase,emotion,,111.19992798299009,111.19992798299009,17.38964170731299,694.7963287999993,1003,24,female,True,6947,6954,False,False,expiration,inspiration
155,127.0,25,M,up,0.7743807999995624,1.745719329542364,,psi_staircase,emotion,,111.72838786451722,111.72838786451722,16.187327477489646,697.6461658999997,1003,24,female,True,6976,6984,False,False,expiration,expiration
156,96.0,25,F,up,1.0407366999988878,1.014916964636242,,psi_staircase,emotion,,111.21618415462406,111.21618415462406,15.090210189281851,699.8128151999989,1003,24,female,True,6997,7007,False,False,inspiration,expiration
157,88.0,25,F,down,0.8005005000013625,0.5846884215294896,,psi_staircase,emotion,,108.75655066492331,108.75655066492331,20.54594650111038,701.796065999999,1003,24,female,True,7017,7025,False,False,expiration,inspiration
158,89.0,25,M,down,0.8298682999993616,0.7763093208974983,,psi_staircase,emotion,,109.31359888712952,109.31359888712952,19.355369583727775,703.7126621999997,1003,24,female,True,7036,7044,False,False,expiration,expiration
159,129.0,25,M,up,0.7842887000006158,0.4267169702739375,,psi_staircase,emotion,,109.7544992544354,109.7544992544354,18.315531518734513,705.3292504000002,1003,24,female,True,7052,7060,False,False,expiration,inspiration
160,91.0,25,F,down,0.8320521999994526,1.6523545136716549,,psi_staircase,emotion,,109.31999062015622,109.31999062015622,17.348983636499405,708.1125197999991,1003,24,female,True,7080,7088,False,False,expiration,expiration
161,127.0,25,M,up,0.7314778999989358,1.495013477789551,,psi_staircase,emotion,,109.6985169415426,109.6985169415426,16.48202965124381,710.7790705999997,1003,24,female,True,7107,7114,False,False,expiration,expiration
162,126.0,25,F,up,0.6951926999990974,1.1150260190693435,,psi_staircase,emotion,,109.31240533625493,109.31240533625493,15.678606422754994,712.9623336999994,1003,24,female,True,7129,7136,False,False,inspiration,inspiration
163,93.0,25,F,up,1.2738251999999193,0.9667570344057193,,psi_staircase,emotion,,108.98148135201755,108.98148135201755,14.980153082823735,714.9789086999989,1003,24,female,True,7149,7162,False,False,expiration,expiration
164,86.0,25,F,down,0.7780421999996179,1.290276798020615,,psi_staircase,emotion,,106.96044318287984,106.96044318287984,18.90649990080016,717.8954613999996,1003,24,female,True,7178,7186,False,False,expiration,expiration
165,87.0,25,M,down,0.7968461000000389,0.8473576271131296,,psi_staircase,emotion,,107.3445495080572,107.3445495080572,18.063654345967294,719.8787193999997,1003,24,female,True,7198,7206,False,False,expiration,inspiration
166,126.0,25,M,up,0.8526016999985586,0.9505143413308771,,psi_staircase,emotion,,107.6677079857494,107.6677079857494,17.326867251490807,721.9619892999998,1003,24,female,True,7219,7228,False,False,expiration,expiration
167,89.0,25,M,down,0.7180033000004187,0.5744593140346232,,psi_staircase,emotion,,107.34541050091087,107.34541050091087,16.655898749786253,723.7455642999994,1003,24,female,True,7237,7244,False,False,expiration,inspiration
168,125.0,25,F,up,0.7330296999989514,0.4093466185691337,,psi_staircase,emotion,,107.64218006514758,107.64218006514758,16.0390968979673,725.2285315999997,1003,24,female,True,7251,7258,False,False,peak,expiration
169,90.0,25,F,up,0.6533850999985589,0.483855182739889,,psi_staircase,emotion,,107.35105519672148,107.35105519672148,15.482186327621507,726.7951491000003,1003,24,female,True,7267,7274,False,False,expiration,inspiration
170,84.0,25,M,up,0.7078108999994583,0.8492702367303011,,psi_staircase,emotion,,105.66952827330542,105.66952827330542,18.71045691271755,728.6617432000003,1003,24,female,True,7286,7293,False,False,peak,expiration
171,78.0,25,F,down,0.8495736000004399,1.7622267571006172,,psi_staircase,emotion,,103.70027636610858,103.70027636610858,23.147349041991035,731.494970399999,1003,24,female,True,7314,7322,False,False,inspiration,peak
172,79.0,25,M,down,0.6817250999993121,0.6213522159195525,,psi_staircase,emotion,,104.07541045792568,104.07541045792568,22.335598180855865,733.3448509999997,1003,24,female,True,7333,7340,False,False,expiration,expiration
173,79.0,25,M,down,0.703707000000577,0.834729389655662,,psi_staircase,emotion,,104.40224878541794,104.40224878541794,21.596731227743078,735.1948470999997,1003,24,female,True,7351,7358,False,False,inspiration,inspiration
174,128.0,25,M,up,0.6598924999998417,0.4834779919441368,,psi_staircase,emotion,,104.67572401744663,104.67572401744663,20.93811263932196,736.7446540000002,1003,24,female,True,7367,7374,False,False,expiration,expiration
175,81.0,25,F,down,1.0465578999992429,1.7675073624843458,,psi_staircase,emotion,,104.39548998817541,104.39548998817541,20.312307452327953,739.5280075999998,1003,24,female,True,7394,7404,False,False,expiration,expiration
176,127.0,25,F,up,0.7142764000000171,0.5739725597026336,,psi_staircase,emotion,,104.65335196073835,104.65335196073835,19.73029968329036,741.5112687000002,1003,24,female,True,7414,7421,False,False,expiration,inspiration
177,82.0,25,M,down,0.7377163000001019,0.9591819652095424,,psi_staircase,emotion,,104.3959491547186,104.3959491547186,19.18673249440069,743.527843599999,1003,24,female,True,7434,7441,False,False,expiration,expiration
178,126.0,25,F,up,0.7371164000014687,1.072840429504331,,psi_staircase,emotion,,104.629957169955,104.629957169955,18.686016648486785,745.6944435999994,1003,24,female,True,7456,7463,False,False,inspiration,expiration
179,125.0,25,F,up,0.7402623999987554,0.7517558558953976,,psi_staircase,emotion,,104.38982449584677,104.38982449584677,18.214711636377913,747.5442944999995,1003,24,female,True,7475,7482,False,False,expiration,trough
180,84.0,25,M,down,0.6405928000003769,1.3805308154989735,,psi_staircase,emotion,,104.1633597401313,104.1633597401313,17.781479152900523,750.0109312000003,1003,24,female,True,7499,7505,False,False,expiration,expiration
181,123.0,25,M,up,0.7019978999996965,0.9757913765924562,,psi_staircase,emotion,,104.39400895200274,104.39400895200274,17.36332436850197,751.977536799999,1003,24,female,True,7519,7526,False,False,inspiration,inspiration
182,85.0,25,F,up,0.8225320000001375,1.4165050606738552,,psi_staircase,emotion,,104.15998460716564,104.15998460716564,16.97630189943467,754.4440331999996,1003,24,female,True,7544,7552,False,False,expiration,expiration
183,0.2146934650880827,25,down,down,1.2949664000007033,1.059183733320047,,experiment,cRDM,0.0,,,,759.6605968999993,1003,24,female,True,7596,7609,False,False,expiration,expiration
184,0.2146934650880827,25,up,up,0.9337510000004839,1.4116014379852115,,experiment,cRDM,0.0,,,,762.6438524999994,1003,24,female,True,7626,7635,False,False,inspiration,expiration
185,0.2146934650880827,25,down,down,0.9574558999993316,0.78846382235076,,experiment,cRDM,0.0,,,,764.6270401000003,1003,24,female,True,7646,7656,False,False,expiration,expiration
186,0.2146934650880827,25,up,up,0.8688150000016321,0.4898806410682449,,experiment,cRDM,0.0,,,,766.3437281999995,1003,24,female,True,7663,7672,False,False,inspiration,expiration
187,0.2146934650880827,25,down,down,0.8876815000003262,0.6603120603566491,,experiment,cRDM,0.0,,,,768.1269331999993,1003,24,female,True,7681,7690,False,False,expiration,expiration
188,0.2146934650880827,25,down,down,0.7182494999997289,0.8883544999543855,,experiment,cRDM,0.0,,,,770.1602365999988,1003,24,female,True,7701,7708,False,False,inspiration,expiration
189,0.2146934650880827,25,up,up,0.7487333000008219,1.0408497452886758,,experiment,cRDM,0.0,,,,772.1768154999991,1003,24,female,True,7721,7728,False,False,expiration,expiration
190,0.2146934650880827,25,down,down,0.8444220000001224,0.4597919168027499,,experiment,cRDM,0.0,,,,773.6600777999993,1003,24,female,True,7736,7744,False,False,inspiration,expiration
191,0.2146934650880827,25,up,up,0.7339988999992784,1.9442707883069168,,experiment,cRDM,0.0,,,,776.7265341999993,1003,24,female,True,7767,7774,False,False,inspiration,inspiration
192,0.2146934650880827,25,up,up,0.7276777999995829,1.993796070380713,,experiment,cRDM,0.0,,,,779.7098616000003,1003,24,female,True,7796,7803,False,False,expiration,inspiration
193,0.2146934650880827,25,down,down,0.6900786999995034,1.6652932800815428,,experiment,cRDM,0.0,,,,782.3764346999997,1003,24,female,True,7823,7830,False,False,expiration,expiration
194,0.2146934650880827,25,up,up,0.7969169999996666,1.6989381156844787,,experiment,cRDM,0.0,,,,785.0096321000002,1003,24,female,True,7849,7857,False,False,inspiration,expiration
195,0.2146934650880827,25,up,up,0.9222891000008532,0.7966644294681479,,experiment,cRDM,0.0,,,,786.8762604000003,1003,24,female,True,7868,7877,False,False,expiration,trough
196,0.2146934650880827,25,up,up,0.7240746000006766,1.8391169976302133,,experiment,cRDM,0.0,,,,789.9094738000003,1003,24,female,True,7898,7905,False,False,expiration,expiration
197,0.2146934650880827,25,down,up,0.8871557999991637,1.2185123836340983,,experiment,cRDM,0.0,,,,792.1093939999993,1003,24,female,True,7920,7929,False,False,inspiration,expiration
198,0.2146934650880827,25,down,up,0.75687040000048,1.284520247290757,,experiment,cRDM,0.0,,,,794.5427244999993,1003,24,female,True,7945,7953,False,False,expiration,expiration
199,0.2146934650880827,25,up,up,0.7637102999997296,1.8647230248743791,,experiment,cRDM,0.0,,,,797.4427904999992,1003,24,female,True,7974,7982,False,False,expiration,expiration
200,0.2146934650880827,25,up,down,1.1817243000004964,0.8249330739626541,,experiment,cRDM,0.0,,,,799.2757934000001,1003,24,female,True,7992,8004,False,False,inspiration,peak
201,0.2146934650880827,25,down,down,0.7584593999999925,0.5549099870985325,,experiment,cRDM,0.0,,,,801.2590739999997,1003,24,female,True,8012,8020,False,False,expiration,expiration
202,0.2146934650880827,25,down,up,0.9359121999987109,0.935571711630379,,experiment,cRDM,0.0,,,,803.2256548000005,1003,24,female,True,8031,8040,False,False,inspiration,expiration
203,0.2146934650880827,25,up,down,2.0730425999990985,1.0093497972611372,,experiment,cRDM,0.0,,,,805.442503299999,1003,24,female,True,8054,8075,False,False,expiration,inspiration
204,0.2146934650880827,25,down,down,1.0566963000001124,0.4886829160567972,,experiment,cRDM,0.0,,,,808.2588034,1003,24,female,True,8082,8093,False,False,expiration,expiration
205,0.2146934650880827,25,up,up,0.9265317000008508,1.8084629249552864,,experiment,cRDM,0.0,,,,811.3920166999997,1003,24,female,True,8113,8122,False,False,peak,expiration
206,0.2146934650880827,25,down,down,0.7869160999998712,0.4303961220146838,,experiment,cRDM,0.0,,,,813.0086078000003,1003,24,female,True,8129,8137,False,False,expiration,inspiration
207,0.2146934650880827,25,down,up,1.5359332000007269,1.250441285556565,,experiment,cRDM,0.0,,,,815.30854,1003,24,female,True,8152,8167,False,False,expiration,expiration
208,0.2146934650880827,25,up,down,0.7294167000000016,1.80633721227887,,experiment,cRDM,0.0,,,,818.9250558999993,1003,24,female,True,8188,8195,False,False,peak,expiration
209,0.2146934650880827,25,up,down,0.848260400000072,1.847540318313031,,experiment,cRDM,0.0,,,,821.758301599999,1003,24,female,True,8217,8225,False,False,inspiration,inspiration
210,0.2146934650880827,25,down,down,0.8976536999998643,1.8467679207073382,,experiment,cRDM,0.0,,,,824.7248507999992,1003,24,female,True,8246,8255,False,False,expiration,trough
211,0.2146934650880827,25,up,up,0.665772600001219,1.2371909750767651,,experiment,cRDM,0.0,,,,827.1247445999996,1003,24,female,True,8270,8277,False,False,expiration,expiration
212,0.2146934650880827,25,down,down,0.7464854000008927,1.9449874814039123,,experiment,cRDM,0.0,,,,830.0079872000006,1003,24,female,True,8299,8306,False,False,inspiration,peak
213,0.2146934650880827,25,up,up,0.6726515000009385,1.895883627485648,,experiment,cRDM,0.0,,,,832.9078802000002,1003,24,female,True,8328,8335,False,False,expiration,inspiration
214,0.2146934650880827,25,down,down,0.7954061000000365,0.6987791820927459,,experiment,cRDM,0.0,,,,834.5410919000004,1003,24,female,True,8345,8353,False,False,peak,expiration
215,0.2146934650880827,25,up,up,0.751404900000125,1.0854812833841203,,experiment,cRDM,0.0,,,,836.6910936000003,1003,24,female,True,8366,8374,False,False,expiration,inspiration
216,0.2146934650880827,25,down,down,0.7028468999997131,1.9482392505015447,,experiment,cRDM,0.0,,,,839.6576676999994,1003,24,female,True,8396,8403,False,False,expiration,expiration
217,0.2146934650880827,25,up,up,0.8709517000006599,1.7462304112660334,,experiment,cRDM,0.0,,,,842.3575519000004,1003,24,female,True,8423,8432,False,False,expiration,expiration
218,0.2146934650880827,25,down,,,0.4827905740041904,,experiment,cRDM,0.0,,,,843.9907937999997,1003,24,female,True,8439,0,False,False,inspiration,0
219,0.2146934650880827,25,up,up,1.1139401999989786,0.5756901091293487,,experiment,cRDM,0.0,,,,847.2405743999989,1003,24,female,True,8472,8483,False,False,inspiration,expiration
220,0.2146934650880827,25,down,down,1.1742358000010429,0.942428748769944,,experiment,cRDM,0.0,,,,849.5572677000001,1003,24,female,True,8495,8507,False,False,expiration,inspiration
221,0.2146934650880827,25,up,down,1.0436909000000014,1.4818754277020132,,experiment,cRDM,0.0,,,,852.4738216000004,1003,24,female,True,8524,8534,False,False,expiration,expiration
222,0.2146934650880827,25,down,down,0.9430236999996849,0.31334840182303325,,experiment,cRDM,0.0,,,,854.0904307000002,1003,24,female,True,8540,8549,False,False,trough,inspiration
223,0.2146934650880827,25,down,down,0.7294492000000901,0.30499819586332616,,experiment,cRDM,0.0,,,,855.6070215999989,1003,24,female,True,8555,8562,False,False,expiration,expiration
224,0.2146934650880827,25,up,up,0.6720982000006188,0.4401172597143518,,experiment,cRDM,0.0,,,,857.0403504000004,1003,24,female,True,8570,8577,False,False,expiration,expiration
225,0.2146934650880827,25,down,down,0.7391906000011659,0.90798715465728,,experiment,cRDM,0.0,,,,858.8902665000005,1003,24,female,True,8588,8595,False,False,inspiration,expiration
226,0.2146934650880827,25,up,up,0.6470974999992904,1.9275343758907837,,experiment,cRDM,0.0,,,,861.8234654999997,1003,24,female,True,8617,8623,False,False,inspiration,inspiration
227,0.2146934650880827,25,up,up,0.7883810999992421,1.9209550489757945,,experiment,cRDM,0.0,,,,864.6400665000001,1003,24,female,True,8646,8654,False,False,expiration,inspiration
228,0.2146934650880827,25,down,up,1.1969100999995137,1.9230813930942177,,experiment,cRDM,0.0,,,,867.6065816999999,1003,24,female,True,8675,8687,False,False,expiration,inspiration
229,0.2146934650880827,25,down,up,1.0602878999998209,0.6982547748113768,,experiment,cRDM,0.0,,,,869.7731867000003,1003,24,female,True,8697,8708,False,False,peak,expiration
230,0.2146934650880827,25,up,down,1.4455109999998967,0.5919966949169995,,experiment,cRDM,0.0,,,,871.6731096999993,1003,24,female,True,8716,8730,False,False,expiration,inspiration
231,0.2146934650880827,25,down,down,1.0001176000005216,0.5626598608372455,,experiment,cRDM,0.0,,,,873.9563942999994,1003,24,female,True,8739,8749,False,False,peak,expiration
232,0.2146934650880827,25,up,up,0.7428421000004164,0.9336136300915928,,experiment,cRDM,0.0,,,,876.1396540000004,1003,24,female,True,8761,8768,False,False,trough,inspiration
233,0.2146934650880827,25,up,down,0.92893450000156,0.491410730893449,,experiment,cRDM,0.0,,,,877.6395954,1003,24,female,True,8776,8785,False,False,expiration,expiration
234,0.2146934650880827,25,up,up,0.7720152000001691,1.1194519948488808,,experiment,cRDM,0.0,,,,879.9395015999999,1003,24,female,True,8799,8807,False,False,expiration,inspiration
235,0.2146934650880827,25,up,up,1.0708562999989226,0.6466125641237273,,experiment,cRDM,0.0,,,,881.6226437999994,1003,24,female,True,8816,8827,False,False,expiration,expiration
236,0.2146934650880827,25,up,up,0.9568962000012108,1.5974674584337862,,experiment,cRDM,0.0,,,,884.5726273,1003,24,female,True,8845,8855,False,False,inspiration,expiration
237,0.2146934650880827,25,down,down,1.1059485000005225,0.3269452788571167,,experiment,cRDM,0.0,,,,886.1225737999994,1003,24,female,True,8861,8872,False,False,expiration,inspiration
238,0.2146934650880827,25,down,up,0.7813224999990781,1.6342487963532717,,experiment,cRDM,0.0,,,,889.1391702999989,1003,24,female,True,8891,8899,False,False,expiration,expiration
239,0.2146934650880827,25,down,down,1.391798700000436,1.965229991687584,,experiment,cRDM,0.0,,,,892.1556922999989,1003,24,female,True,8921,8935,False,False,inspiration,expiration
240,0.2146934650880827,25,up,down,0.9320168000012928,0.8921980829680403,,experiment,cRDM,0.0,,,,894.7055684999997,1003,24,female,True,8946,8955,False,False,expiration,expiration
241,0.2146934650880827,25,down,down,0.9029601000002004,0.5171649061076652,,experiment,cRDM,0.0,,,,896.4225769000003,1003,24,female,True,8964,8973,False,False,expiration,expiration
242,0.2146934650880827,25,down,up,1.3987261000002036,1.2995292798271263,,experiment,cRDM,0.0,,,,898.8887658999993,1003,24,female,True,8988,9002,False,False,inspiration,expiration
243,0.2146934650880827,25,down,down,0.8731384000002436,1.410628104808507,,experiment,cRDM,0.0,,,,901.9553533999988,1003,24,female,True,9019,9028,False,False,expiration,inspiration
244,0.2146934650880827,25,up,up,0.802167300000292,1.6667250158580835,,experiment,cRDM,0.0,,,,904.7553312999988,1003,24,female,True,9047,9055,False,False,expiration,expiration
245,0.2146934650880827,25,down,down,0.9633478000014292,0.6889773827733825,,experiment,cRDM,0.0,,,,906.505138999999,1003,24,female,True,9064,9074,False,False,expiration,inspiration
246,0.2146934650880827,25,up,up,1.0937220999985584,0.6416055034992032,,experiment,cRDM,0.0,,,,908.3717710999989,1003,24,female,True,9083,9094,False,False,expiration,expiration
247,0.2146934650880827,25,up,up,0.7923805999998876,1.8141930986769692,,experiment,cRDM,0.0,,,,911.5381409,1003,24,female,True,9115,9123,False,False,inspiration,expiration
248,0.2146934650880827,25,down,down,0.9365670000006504,1.3692523998853592,,experiment,cRDM,0.0,,,,913.9549437999997,1003,24,female,True,9139,9148,False,False,expiration,trough
249,0.2146934650880827,25,up,up,0.9710104000005232,0.9088007242680044,,experiment,cRDM,0.0,,,,916.0714778,1003,24,female,True,9160,9170,False,False,inspiration,expiration
250,0.2146934650880827,25,down,down,1.1064546999987217,1.7845649804937258,,experiment,cRDM,0.0,,,,919.0880285999992,1003,24,female,True,9190,9201,False,False,inspiration,inspiration
251,0.2146934650880827,25,up,up,0.9762394999997924,0.8137454187550737,,experiment,cRDM,0.0,,,,921.2712732999988,1003,24,female,True,9212,9222,False,False,expiration,expiration
252,0.2146934650880827,25,down,down,0.6789516000008007,1.1018698209812008,,experiment,cRDM,0.0,,,,923.6045089,1003,24,female,True,9235,9242,False,False,inspiration,expiration
253,0.2146934650880827,25,up,down,1.1657252999993943,1.5405181071842395,,experiment,cRDM,0.0,,,,926.0877583,1003,24,female,True,9260,9272,False,False,expiration,inspiration
254,0.2146934650880827,25,down,up,0.8200082000003022,1.2209697793984657,,experiment,cRDM,0.0,,,,928.7375764999997,1003,24,female,True,9287,9295,False,False,expiration,expiration
255,0.2146934650880827,25,down,up,1.1725294000007125,0.36835035663407617,,experiment,cRDM,0.0,,,,930.1709222999997,1003,24,female,True,9301,9313,False,False,inspiration,expiration
256,0.2146934650880827,25,down,down,1.0092771999989054,1.141034795965546,,experiment,cRDM,0.0,,,,932.7542063999989,1003,24,female,True,9327,9337,False,False,expiration,inspiration
257,0.2146934650880827,25,down,down,0.7430743999993865,1.1107613059708594,,experiment,cRDM,0.0,,,,935.1374115,1003,24,female,True,9351,9358,False,False,expiration,expiration
258,0.2146934650880827,25,down,up,1.3139080000000831,1.9772396244734816,,experiment,cRDM,0.0,,,,938.1206265,1003,24,female,True,9380,9393,False,False,expiration,expiration
259,0.2146934650880827,25,up,up,0.7965889000006428,1.1118107170025815,,experiment,cRDM,0.0,,,,940.8038701999994,1003,24,female,True,9407,9415,False,False,inspiration,expiration
260,0.2146934650880827,25,up,up,0.950312800001484,0.6322054853604426,,experiment,cRDM,0.0,,,,942.4871681000003,1003,24,female,True,9424,9434,False,False,expiration,inspiration
261,0.2146934650880827,25,up,up,0.6657439999999042,1.598576267187022,,experiment,cRDM,0.0,,,,945.3037446999988,1003,24,female,True,9452,9459,False,False,expiration,expiration
262,0.2146934650880827,25,up,up,0.7195097999992868,0.30874440228357275,,experiment,cRDM,0.0,,,,946.5369749999992,1003,24,female,True,9465,9472,False,False,expiration,inspiration
263,110.0,25,M,up,0.6418269999994664,0.6559538192331129,,experiment,emotion,0.0,,,,951.1366524999994,1003,24,female,True,9511,9517,False,False,expiration,expiration
264,95.0,25,M,down,0.7340729999996256,1.042267347418809,,experiment,emotion,0.0,,,,953.1034122999989,1003,24,female,True,9530,9537,False,False,expiration,inspiration
265,105.0,25,F,up,0.7128240000001824,1.0655782272326857,,experiment,emotion,0.0,,,,955.1866601999992,1003,24,female,True,9551,9558,False,False,expiration,expiration
266,110.0,25,F,down,0.7091483999993216,1.174222596345298,,experiment,emotion,0.0,,,,957.3532844,1003,24,female,True,9573,9580,False,False,inspiration,peak
267,105.0,25,M,up,0.7582364000008965,0.668721146237272,,experiment,emotion,0.0,,,,959.0032080999989,1003,24,female,True,9589,9597,False,False,expiration,expiration
268,100.0,25,F,down,0.5354059999990568,1.794915042148164,,experiment,emotion,0.0,,,,961.8530964,1003,24,female,True,9618,9623,False,False,expiration,expiration
269,95.0,25,M,down,1.1190987000009045,0.8783415348930173,,experiment,emotion,0.0,,,,963.536397599999,1003,24,female,True,9635,9646,False,False,expiration,inspiration
270,100.0,25,M,up,0.6042617999992217,1.7616285198856458,,experiment,emotion,0.0,,,,966.6862524999997,1003,24,female,True,9666,9672,False,False,expiration,inspiration
271,110.0,25,F,up,0.8580077000005986,1.4728490016497071,,experiment,emotion,0.0,,,,969.0194904999988,1003,24,female,True,9689,9698,False,False,expiration,trough
272,100.0,25,F,down,0.6820454999997309,1.0619897012180206,,experiment,emotion,0.0,,,,971.2194314999997,1003,24,female,True,9711,9718,False,False,peak,expiration
273,105.0,25,F,up,0.6964805999996315,1.443886156141819,,experiment,emotion,0.0,,,,973.6359938000003,1003,24,female,True,9736,9743,False,False,inspiration,inspiration
274,110.0,25,F,up,0.8298930000000837,1.7040046362947323,,experiment,emotion,0.0,,,,976.3025756999997,1003,24,female,True,9762,9770,False,False,expiration,expiration
275,105.0,25,F,up,0.6983502000002773,1.3570603454873895,,experiment,emotion,0.0,,,,978.7691419999992,1003,24,female,True,9787,9794,False,False,inspiration,inspiration
276,95.0,25,F,up,1.4957685000008496,1.8530281741872543,,experiment,emotion,0.0,,,,981.5857044999992,1003,24,female,True,9815,9830,False,False,inspiration,expiration
277,100.0,25,M,down,1.0365617999996175,1.345415950942271,,experiment,emotion,0.0,,,,984.7189008999994,1003,24,female,True,9846,9856,False,False,inspiration,expiration
278,95.0,25,M,down,1.4380055999990873,0.3083821753028504,,experiment,emotion,0.0,,,,986.3354514999992,1003,24,female,True,9863,9877,False,False,expiration,expiration
279,110.0,25,M,up,0.6874160000006668,1.6864079476096998,,experiment,emotion,0.0,,,,989.7520700999994,1003,24,female,True,9897,9904,False,False,expiration,expiration
280,95.0,25,M,down,0.7158227000018087,1.2563907602586184,,experiment,emotion,0.0,,,,991.9686432999988,1003,24,female,True,9919,9926,False,False,inspiration,inspiration
281,105.0,25,F,down,0.9819332999995822,0.7729080930128601,,experiment,emotion,0.0,,,,993.7185670999988,1003,24,female,True,9936,9946,False,False,expiration,expiration
282,105.0,25,M,down,1.4539641999999733,0.6996074233282576,,experiment,emotion,0.0,,,,995.6685063999994,1003,24,female,True,9956,9971,False,False,inspiration,expiration
283,100.0,25,M,up,1.9114683000007064,1.0423511677607908,,experiment,emotion,0.0,,,,998.4350250999997,1003,24,female,True,9984,10003,False,False,expiration,expiration
284,100.0,25,F,down,1.3774952000003395,0.5725877941331661,,experiment,emotion,0.0,,,,1001.1849819,1003,24,female,True,10011,10025,False,False,expiration,trough
285,95.0,25,M,down,0.6972952999985864,1.3349745320307258,,experiment,emotion,0.0,,,,1004.1682038,1003,24,female,True,10041,10048,False,False,expiration,expiration
286,110.0,25,F,down,0.6417259000008926,1.9198695575497704,,experiment,emotion,0.0,,,,1007.0847692999997,1003,24,female,True,10070,10076,False,False,peak,expiration
287,105.0,25,F,down,0.7048180000001594,0.6750160193869179,,experiment,emotion,0.0,,,,1008.6847046000003,1003,24,female,True,10086,10093,False,False,expiration,expiration
288,95.0,25,M,down,0.5382589999990159,0.3892140517358845,,experiment,emotion,0.0,,,,1010.0512915999988,1003,24,female,True,10100,10105,False,False,inspiration,inspiration
289,110.0,25,M,down,1.444557699998768,1.0607666701466618,,experiment,emotion,0.0,,,,1011.9179065999997,1003,24,female,True,10118,10132,False,False,expiration,expiration
290,110.0,25,F,down,1.0633440000001428,1.9630811327958888,,experiment,emotion,0.0,,,,1015.6011156999994,1003,24,female,True,10155,10166,False,False,expiration,inspiration
291,100.0,25,M,down,0.6350886000000173,1.5483892501439327,,experiment,emotion,0.0,,,,1018.4843311999994,1003,24,female,True,10184,10190,False,False,expiration,expiration
292,95.0,25,F,down,0.7862425000002986,1.4597559222561374,,experiment,emotion,0.0,,,,1020.8342797999994,1003,24,female,True,10208,10216,False,False,inspiration,inspiration
293,100.0,25,F,up,1.3770136000002822,1.3279684775356495,,experiment,emotion,0.0,,,,1023.2174569999988,1003,24,female,True,10232,10246,False,False,expiration,inspiration
294,105.0,25,F,down,1.3934205000005022,1.4938093042960718,,experiment,emotion,0.0,,,,1026.3840523,1003,24,female,True,10263,10277,False,False,expiration,expiration
295,95.0,25,M,down,0.8090192999989085,1.4714350728909302,,experiment,emotion,0.0,,,,1029.500619999999,1003,24,female,True,10294,10302,False,False,expiration,expiration
296,110.0,25,M,up,0.8555815999989136,0.3953098858460712,,experiment,emotion,0.0,,,,1030.9838865999989,1003,24,female,True,10309,10318,False,False,expiration,inspiration
297,105.0,25,M,up,0.6507204999998066,1.4697626732475313,,experiment,emotion,0.0,,,,1033.5837727999988,1003,24,female,True,10335,10342,False,False,expiration,expiration
298,110.0,25,F,up,0.7877539000000979,0.5838879308664202,,experiment,emotion,0.0,,,,1035.0837186999997,1003,24,female,True,10350,10358,False,False,trough,inspiration
299,95.0,25,F,down,0.6894606999994721,0.4277868899528175,,experiment,emotion,0.0,,,,1036.5670059000004,1003,24,female,True,10365,10372,False,False,expiration,expiration
300,105.0,25,M,down,0.84687379999923,1.7615918481538508,,experiment,emotion,0.0,,,,1039.2835655999988,1003,24,female,True,10392,10400,False,False,inspiration,inspiration
301,100.0,25,F,down,0.7239743999998609,1.6519307766041094,,experiment,emotion,0.0,,,,1042.0834720000003,1003,24,female,True,10420,10427,False,False,trough,inspiration
302,100.0,25,M,down,0.6670778999996401,1.0059510252688204,,experiment,emotion,0.0,,,,1044.0833855,1003,24,female,True,10440,10447,False,False,expiration,expiration
303,105.0,25,M,down,0.6892819000004238,1.309707804743412,,experiment,emotion,0.0,,,,1046.3333108999998,1003,24,female,True,10463,10470,False,False,inspiration,peak
304,110.0,25,M,down,0.7202634000004764,0.7822173522766773,,experiment,emotion,0.0,,,,1048.0832365000006,1003,24,female,True,10480,10487,False,False,expiration,expiration
305,100.0,25,F,down,0.932655500000692,1.6168451373579331,,experiment,emotion,0.0,,,,1050.6998052999988,1003,24,female,True,10506,10515,False,False,inspiration,expiration
306,95.0,25,F,down,0.7290979999997944,1.7439820444433098,,experiment,emotion,0.0,,,,1053.6663676999997,1003,24,female,True,10536,10543,False,False,inspiration,inspiration
307,95.0,25,M,down,0.6928539999989879,0.3891316494041357,,experiment,emotion,0.0,,,,1055.0496652000004,1003,24,female,True,10550,10557,False,False,expiration,expiration
308,100.0,25,F,down,0.7989136999985931,1.3826939152512066,,experiment,emotion,0.0,,,,1057.3995443999993,1003,24,female,True,10573,10581,False,False,inspiration,peak
309,110.0,25,F,down,0.7490476999992097,1.824299159259094,,experiment,emotion,0.0,,,,1060.2994344,1003,24,female,True,10602,10609,False,False,expiration,inspiration
310,105.0,25,M,down,0.7924846999994771,0.975943566914686,,experiment,emotion,0.0,,,,1062.3159641000002,1003,24,female,True,10623,10631,False,False,expiration,expiration
311,95.0,25,M,down,1.0698544999995647,1.8417970515562527,,experiment,emotion,0.0,,,,1065.2326226000002,1003,24,female,True,10652,10663,False,False,inspiration,inspiration
312,110.0,25,F,up,0.7516363000013371,1.0472142408025142,,experiment,emotion,0.0,,,,1067.6158173999993,1003,24,female,True,10676,10684,False,False,expiration,expiration
313,105.0,25,M,up,0.8067133000004105,1.4755802178311899,,experiment,emotion,0.0,,,,1070.1157079000004,1003,24,female,True,10701,10709,False,False,inspiration,inspiration
314,105.0,25,F,up,0.6464580000010756,0.7078016113660911,,experiment,emotion,0.0,,,,1071.8990369000003,1003,24,female,True,10718,10724,False,False,inspiration,expiration
315,95.0,25,F,down,1.043532800000321,1.4772528686095785,,experiment,emotion,0.0,,,,1074.2989180000004,1003,24,female,True,10742,10752,False,False,expiration,inspiration
316,100.0,25,F,down,0.6549795999999333,1.83884223984782,,experiment,emotion,0.0,,,,1077.465502699999,1003,24,female,True,10774,10781,False,False,expiration,expiration
317,110.0,25,M,up,0.691362499999741,1.0367894481598978,,experiment,emotion,0.0,,,,1079.4321005000004,1003,24,female,True,10794,10801,False,False,inspiration,inspiration
318,100.0,25,M,up,0.7421506000009686,1.2790088031919185,,experiment,emotion,0.0,,,,1081.6653258999997,1003,24,female,True,10816,10823,False,False,expiration,expiration
319,100.0,25,F,down,0.8635875999989366,1.0403964944765232,,experiment,emotion,0.0,,,,1083.7319183,1003,24,female,True,10837,10846,False,False,inspiration,expiration
320,100.0,25,F,up,0.6789633000007598,1.2259921259455284,,experiment,emotion,0.0,,,,1086.0984905999994,1003,24,female,True,10860,10867,False,False,expiration,inspiration
321,110.0,25,M,up,0.6554022999989684,0.3687767233396159,,experiment,emotion,0.0,,,,1087.4150472,1003,24,female,True,10874,10881,False,False,inspiration,expiration
322,105.0,25,M,up,0.7916867999992974,0.8681426227584292,,experiment,emotion,0.0,,,,1089.2317306000002,1003,24,female,True,10892,10900,False,False,expiration,expiration
323,95.0,25,M,up,0.8835135000008449,1.7060111297660658,,experiment,emotion,0.0,,,,1092.0149755000002,1003,24,female,True,10920,10929,False,False,expiration,expiration
324,95.0,25,M,down,0.8946030000006431,1.0934679658271622,,experiment,emotion,0.0,,,,1094.2648545999998,1003,24,female,True,10942,10951,False,False,inspiration,peak
325,105.0,25,M,up,0.9173723000003521,1.3186097635440606,,experiment,emotion,0.0,,,,1096.7480976999998,1003,24,female,True,10967,10976,False,False,expiration,expiration
326,110.0,25,F,up,0.7487499999988358,0.6320042713657149,,experiment,emotion,0.0,,,,1098.5647045000003,1003,24,female,True,10985,10992,False,False,inspiration,inspiration
327,110.0,25,F,up,0.7121761999987939,1.798895615025242,,experiment,emotion,0.0,,,,1101.3812577999997,1003,24,female,True,11013,11020,False,False,expiration,trough
328,95.0,25,M,up,0.6606090999994194,1.1222954385929098,,experiment,emotion,0.0,,,,1103.4978379000004,1003,24,female,True,11034,11041,False,False,expiration,expiration
329,110.0,25,F,up,0.6540010000007896,0.6417035992414054,,experiment,emotion,0.0,,,,1105.0644715,1003,24,female,True,11050,11057,False,False,expiration,expiration
330,100.0,25,F,up,1.0335770000001503,0.3755201735875997,,experiment,emotion,0.0,,,,1106.3810990999993,1003,24,female,True,11063,11073,False,False,inspiration,expiration
331,105.0,25,F,up,0.7517994000008912,0.8967273806388552,,experiment,emotion,0.0,,,,1108.5976386000002,1003,24,female,True,11085,11093,False,False,expiration,expiration
332,100.0,25,M,up,0.937859199999366,1.7436921813297432,,experiment,emotion,0.0,,,,1111.3475688,1003,24,female,True,11113,11122,False,False,expiration,expiration
333,95.0,25,F,down,1.062999300000229,1.6375230974787338,,experiment,emotion,0.0,,,,1114.1974517,1003,24,female,True,11141,11152,False,False,inspiration,expiration
334,105.0,25,F,down,0.6690077999992354,0.6105640909368735,,experiment,emotion,0.0,,,,1116.1473901999998,1003,24,female,True,11161,11168,False,False,expiration,inspiration
335,100.0,25,F,up,0.6407989999988786,0.34831782254309324,,experiment,emotion,0.0,,,,1117.4306779,1003,24,female,True,11174,11180,False,False,inspiration,expiration
336,105.0,25,M,down,0.9638448000005156,1.8297832357814632,,experiment,emotion,0.0,,,,1120.1805786999994,1003,24,female,True,11201,11211,False,False,trough,inspiration
337,95.0,25,M,down,1.0480147999987819,1.7059069084429148,,experiment,emotion,0.0,,,,1123.1304674000003,1003,24,female,True,11231,11241,False,False,expiration,inspiration
338,110.0,25,F,up,0.7119065999995655,1.4569126664572185,,experiment,emotion,0.0,,,,1125.9135420999992,1003,24,female,True,11259,11266,False,False,expiration,expiration
339,105.0,25,M,up,0.7218345999990561,1.5600606474258607,,experiment,emotion,0.0,,,,1128.4635951,1003,24,female,True,11284,11291,False,False,expiration,expiration
340,110.0,25,F,up,0.6356293999997433,0.7408464611646639,,experiment,emotion,0.0,,,,1130.1968537999999,1003,24,female,True,11301,11307,False,False,expiration,inspiration
341,95.0,25,M,up,0.7866541000003053,1.4402535647803718,,experiment,emotion,0.0,,,,1132.546773,1003,24,female,True,11325,11333,False,False,expiration,expiration
342,100.0,25,M,down,0.91942729999937,1.5270880975633403,,experiment,emotion,0.0,,,,1135.1300243000005,1003,24,female,True,11351,11360,False,False,inspiration,expiration
343,0.2146934650880827,25,up,up,0.7386121999988973,1.6954243328401213,,experiment,cRDM,1.0,,,,1140.3798143999993,1003,24,female,True,11403,11410,False,False,expiration,expiration
344,0.2146934650880827,25,up,up,1.4350592000009783,1.1239689541519209,,experiment,cRDM,1.0,,,,1142.496382899999,1003,24,female,True,11424,11438,False,False,inspiration,expiration
345,0.2146934650880827,25,down,down,0.7837884999989909,1.0317575787714452,,experiment,cRDM,1.0,,,,1145.2296494000002,1003,24,female,True,11452,11460,False,False,trough,inspiration
346,0.2146934650880827,25,down,up,0.8791996999989351,1.3625174541077505,,experiment,cRDM,1.0,,,,1147.6462413999998,1003,24,female,True,11476,11485,False,False,expiration,expiration
347,0.2146934650880827,25,up,up,0.7309395000011136,0.6022079426228839,,experiment,cRDM,1.0,,,,1149.3794915,1003,24,female,True,11493,11500,False,False,inspiration,inspiration
348,0.2146934650880827,25,down,up,0.7403649999996559,1.5853923359145132,,experiment,cRDM,1.0,,,,1151.9460765000003,1003,24,female,True,11519,11526,False,False,expiration,trough
349,0.2146934650880827,25,up,up,0.8361004999987927,1.034674468686522,,experiment,cRDM,1.0,,,,1153.9793410000002,1003,24,female,True,11539,11547,False,False,expiration,expiration
350,0.2146934650880827,25,up,down,1.4618812000007892,1.6857340582367577,,experiment,cRDM,1.0,,,,1156.7625659000005,1003,24,female,True,11567,11582,False,False,inspiration,expiration
351,0.2146934650880827,25,down,,,0.6550277090966903,,experiment,cRDM,1.0,,,,1159.1458252999998,1003,24,female,True,11591,0,False,False,expiration,0
352,0.2146934650880827,25,down,up,1.2457867000011902,0.6184090076232933,,experiment,cRDM,1.0,,,,1162.4456656999992,1003,24,female,True,11624,11636,False,False,expiration,inspiration
353,0.2146934650880827,25,down,up,0.9272829999990791,0.9694495725530649,,experiment,cRDM,1.0,,,,1164.9121498000004,1003,24,female,True,11649,11658,False,False,expiration,expiration
354,0.2146934650880827,25,down,down,0.6669196000002557,0.8578722426477186,,experiment,cRDM,1.0,,,,1166.9455200999998,1003,24,female,True,11669,11676,False,False,inspiration,inspiration
355,0.2146934650880827,25,down,up,0.6887134999997215,1.8048894640386528,,experiment,cRDM,1.0,,,,1169.6787456000004,1003,24,female,True,11696,11703,False,False,expiration,trough
356,0.2146934650880827,25,down,up,0.6830668000002333,0.6089995171710705,,experiment,cRDM,1.0,,,,1171.2453741999998,1003,24,female,True,11712,11719,False,False,inspiration,expiration
357,0.2146934650880827,25,up,up,0.7081735000010667,1.9637309884993817,,experiment,cRDM,1.0,,,,1174.1452609999994,1003,24,female,True,11741,11748,False,False,inspiration,expiration
358,0.2146934650880827,25,up,up,0.7740073000004486,1.7134211789460394,,experiment,cRDM,1.0,,,,1176.8284322,1003,24,female,True,11768,11776,False,False,expiration,inspiration
359,0.2146934650880827,25,up,up,0.6673737999990408,1.2885513652354657,,experiment,cRDM,1.0,,,,1179.145086999999,1003,24,female,True,11791,11798,False,False,expiration,expiration
360,0.2146934650880827,25,up,up,0.6530665999998746,0.5983043195866995,,experiment,cRDM,1.0,,,,1180.6783211000004,1003,24,female,True,11806,11813,False,False,expiration,inspiration
361,0.2146934650880827,25,down,down,0.932866400000421,1.4553470428251,,experiment,cRDM,1.0,,,,1183.0615684999993,1003,24,female,True,11830,11839,False,False,expiration,expiration
362,0.2146934650880827,25,up,up,0.8349355999998807,0.4992524926739516,,experiment,cRDM,1.0,,,,1184.7615088999992,1003,24,female,True,11847,11855,False,False,expiration,inspiration
363,0.2146934650880827,25,up,up,0.8403123999996751,0.5241655591864869,,experiment,cRDM,1.0,,,,1186.3781199999996,1003,24,female,True,11863,11871,False,False,peak,expiration
364,0.2146934650880827,25,down,down,0.7543473999994603,0.44543351194334735,,experiment,cRDM,1.0,,,,1187.9280849999996,1003,24,female,True,11879,11887,False,False,expiration,expiration
365,0.2146934650880827,25,up,up,0.8431639999998879,1.9631283726409203,,experiment,cRDM,1.0,,,,1190.9112664000004,1003,24,female,True,11908,11916,False,False,expiration,expiration
366,0.2146934650880827,25,down,down,0.9102624000006472,1.2898417802125697,,experiment,cRDM,1.0,,,,1193.3111749000002,1003,24,female,True,11932,11941,False,False,inspiration,peak
367,0.2146934650880827,25,down,down,1.2933981999995012,1.41332517503697,,experiment,cRDM,1.0,,,,1195.9110194999996,1003,24,female,True,11959,11972,False,False,expiration,inspiration
368,0.2146934650880827,25,up,up,1.019128300000375,1.924769396963448,,experiment,cRDM,1.0,,,,1199.3943051999995,1003,24,female,True,11993,12003,False,False,expiration,expiration
369,0.2146934650880827,25,up,down,1.055891199999678,1.5565326393863157,,experiment,cRDM,1.0,,,,1202.2275635999995,1003,24,female,True,12022,12033,False,False,expiration,expiration
370,0.2146934650880827,25,down,down,0.8856475000011415,1.7112420241078543,,experiment,cRDM,1.0,,,,1205.260745399999,1003,24,female,True,12052,12061,False,False,inspiration,expiration
371,0.2146934650880827,25,up,up,0.8081154000010429,0.8649801445186003,,experiment,cRDM,1.0,,,,1207.277324499999,1003,24,female,True,12072,12080,False,False,expiration,trough
372,0.2146934650880827,25,down,down,0.7501647000008234,1.4199178333090396,,experiment,cRDM,1.0,,,,1209.7772506,1003,24,female,True,12097,12105,False,False,expiration,expiration
373,0.2146934650880827,25,down,up,1.5829245000004448,0.9179098247931898,,experiment,cRDM,1.0,,,,1211.7105066000004,1003,24,female,True,12117,12133,False,False,inspiration,expiration
374,0.2146934650880827,25,down,down,1.1543466999992231,1.91501552306319,,experiment,cRDM,1.0,,,,1215.4770950000004,1003,24,female,True,12154,12166,False,False,inspiration,expiration
375,0.2146934650880827,25,up,up,1.027836199999001,1.4568233282982468,,experiment,cRDM,1.0,,,,1218.3436198,1003,24,female,True,12183,12193,False,False,inspiration,peak
376,0.2146934650880827,25,up,up,0.8995842000003904,0.8938841336795511,,experiment,cRDM,1.0,,,,1220.5268748,1003,24,female,True,12205,12214,False,False,expiration,inspiration
377,0.2146934650880827,25,up,up,1.0273123999995732,1.277132257348914,,experiment,cRDM,1.0,,,,1222.9600941999995,1003,24,female,True,12229,12239,False,False,expiration,expiration
378,0.2146934650880827,25,down,,,1.01162995171104,,experiment,cRDM,1.0,,,,1225.2599929999994,1003,24,female,True,12252,0,False,False,inspiration,0
379,0.2146934650880827,25,down,down,1.0176372000005358,1.2636014770008033,,experiment,cRDM,1.0,,,,1229.209788,1003,24,female,True,12292,12302,False,False,expiration,expiration
380,0.2146934650880827,25,up,up,0.8129693999999291,0.4868232458323516,,experiment,cRDM,1.0,,,,1230.976455099999,1003,24,female,True,12309,12317,False,False,inspiration,inspiration
381,0.2146934650880827,25,down,down,0.8276781000004121,1.0984103204973372,,experiment,cRDM,1.0,,,,1233.1597442999991,1003,24,female,True,12331,12339,False,False,expiration,expiration
382,0.2146934650880827,25,up,up,0.6354138999995484,0.3265325603612745,,experiment,cRDM,1.0,,,,1234.5929880999993,1003,24,female,True,12345,12351,False,False,inspiration,inspiration
383,0.2146934650880827,25,up,down,0.8752705000006245,0.4364500591021076,,experiment,cRDM,1.0,,,,1235.9261513999988,1003,24,female,True,12359,12368,False,False,expiration,expiration
384,0.2146934650880827,25,up,,,1.0404802116765022,,experiment,cRDM,1.0,,,,1238.1095164999988,1003,24,female,True,12380,0,False,False,inspiration,0
385,0.2146934650880827,25,down,down,0.8430895999990753,0.8227622091183713,,experiment,cRDM,1.0,,,,1241.6093585,1003,24,female,True,12416,12424,False,False,expiration,inspiration
386,0.2146934650880827,25,down,down,0.9574654000007286,1.9135030542307685,,experiment,cRDM,1.0,,,,1244.6259821000006,1003,24,female,True,12446,12456,False,False,expiration,inspiration
387,0.2146934650880827,25,up,up,0.6625254999999015,0.7817490229139321,,experiment,cRDM,1.0,,,,1246.6259090999993,1003,24,female,True,12466,12473,False,False,inspiration,expiration
388,0.2146934650880827,25,down,down,0.6075519999994867,0.3738937910349259,,experiment,cRDM,1.0,,,,1247.9258883000002,1003,24,female,True,12479,12485,False,False,expiration,expiration
389,0.2146934650880827,25,down,down,0.8787275999984558,0.5302469374609092,,experiment,cRDM,1.0,,,,1249.3256710000005,1003,24,female,True,12493,12502,False,False,inspiration,inspiration
390,0.2146934650880827,25,up,up,0.6931107000000338,1.5336780724140315,,experiment,cRDM,1.0,,,,1251.9923263,1003,24,female,True,12519,12526,False,False,expiration,expiration
391,0.2146934650880827,25,up,up,0.6348159999997733,1.1773468161679568,,experiment,cRDM,1.0,,,,1254.1256249999988,1003,24,female,True,12541,12547,False,False,inspiration,expiration
392,0.2146934650880827,25,down,down,1.0288354999993317,0.8007770811609791,,experiment,cRDM,1.0,,,,1255.8255845000006,1003,24,female,True,12558,12568,False,False,expiration,inspiration
393,0.2146934650880827,25,up,up,0.903318600001512,1.6310859916521665,,experiment,cRDM,1.0,,,,1258.7421042999995,1003,24,female,True,12587,12596,False,False,expiration,expiration
394,0.2146934650880827,25,down,up,0.6757859999997889,1.4985605042604269,,experiment,cRDM,1.0,,,,1261.408692699999,1003,24,female,True,12614,12621,False,False,inspiration,expiration
395,0.2146934650880827,25,down,down,1.2045391999999993,0.4463187726459631,,experiment,cRDM,1.0,,,,1262.7919363,1003,24,female,True,12627,12639,False,False,expiration,expiration
396,0.2146934650880827,25,down,down,0.8699058999991394,0.8083614116325819,,experiment,cRDM,1.0,,,,1265.0585281000006,1003,24,female,True,12650,12659,False,False,inspiration,expiration
397,0.2146934650880827,25,up,down,0.8926294000011694,0.8498332118287268,,experiment,cRDM,1.0,,,,1267.0417894999991,1003,24,female,True,12670,12679,False,False,expiration,inspiration
398,0.2146934650880827,25,up,up,0.7724008999994112,1.8780694780209541,,experiment,cRDM,1.0,,,,1270.0750176999989,1003,24,female,True,12700,12708,False,False,expiration,expiration
399,0.2146934650880827,25,down,down,0.8598458999986178,1.5741014295403486,,experiment,cRDM,1.0,,,,1272.6915733999995,1003,24,female,True,12726,12735,False,False,expiration,expiration
400,0.2146934650880827,25,down,up,0.8075172000008024,1.2105443608252116,,experiment,cRDM,1.0,,,,1275.0248580999996,1003,24,female,True,12750,12758,False,False,inspiration,inspiration
401,0.2146934650880827,25,up,down,0.8486648999987665,0.9785379662733378,,experiment,cRDM,1.0,,,,1277.0747831999995,1003,24,female,True,12770,12778,False,False,expiration,expiration
402,0.2146934650880827,25,up,up,0.7117069000014453,0.4858853364057392,,experiment,cRDM,1.0,,,,1278.6747118999992,1003,24,female,True,12786,12793,False,False,inspiration,inspiration
403,0.2146934650880827,25,up,up,2.286857200000668,1.8788193435211036,,experiment,cRDM,1.0,,,,1281.5246009999992,1003,24,female,True,12815,12838,False,True,expiration,expiration
404,0.2146934650880827,25,up,up,1.0673258000006172,1.7684945963561378,,experiment,cRDM,1.0,,,,1285.8410882999995,1003,24,female,True,12858,12869,True,True,inspiration,inspiration
405,0.2146934650880827,25,up,up,0.6714530999997805,0.6150593883097375,,experiment,cRDM,1.0,,,,1287.7910064999996,1003,24,female,True,12877,12884,True,True,expiration,inspiration
406,0.2146934650880827,25,down,up,0.6618581000002449,1.9740165480319716,,experiment,cRDM,1.0,,,,1290.7075759000002,1003,24,female,True,12907,12914,True,True,expiration,expiration
407,0.2146934650880827,25,down,down,0.893935899999633,1.8087214233789997,,experiment,cRDM,1.0,,,,1293.457472,1003,24,female,True,12934,12943,False,False,expiration,expiration
408,0.2146934650880827,25,up,up,0.6933752000004461,1.5564081611972251,,experiment,cRDM,1.0,,,,1296.1740382999994,1003,24,female,True,12961,12968,False,False,inspiration,expiration
409,0.2146934650880827,25,down,down,0.9577953000007255,1.669848006922266,,experiment,cRDM,1.0,,,,1298.790614399999,1003,24,female,True,12987,12997,False,False,expiration,inspiration
410,0.2146934650880827,25,down,up,0.802564399999028,0.9576188570354132,,experiment,cRDM,1.0,,,,1300.9738765999991,1003,24,female,True,13009,13017,False,False,expiration,expiration
411,0.2146934650880827,25,down,down,0.9669567000000824,0.9628364028433058,,experiment,cRDM,1.0,,,,1302.9904574999998,1003,24,female,True,13029,13039,False,False,trough,inspiration
412,0.2146934650880827,25,up,up,0.7414946000008058,1.68927346001372,,experiment,cRDM,1.0,,,,1305.9068828,1003,24,female,True,13059,13066,False,False,expiration,trough
413,0.2146934650880827,25,down,up,1.371488999999201,1.3104443178275726,,experiment,cRDM,1.0,,,,1308.2069534000002,1003,24,female,True,13082,13096,False,False,expiration,expiration
414,0.2146934650880827,25,down,down,0.6409929000001284,1.3314929153239752,,experiment,cRDM,1.0,,,,1311.1734865999988,1003,24,female,True,13111,13117,False,False,inspiration,expiration
415,0.2146934650880827,25,down,down,1.1556297999995877,1.4431553276530666,,experiment,cRDM,1.0,,,,1313.5067708999995,1003,24,female,True,13135,13147,False,False,expiration,inspiration
416,0.2146934650880827,25,up,up,0.7317789000007906,1.538839399060932,,experiment,cRDM,1.0,,,,1316.4566424000004,1003,24,female,True,13164,13171,False,False,expiration,expiration
417,0.2146934650880827,25,up,up,0.6851910999994288,1.356823708358638,,experiment,cRDM,1.0,,,,1318.8232145999993,1003,24,female,True,13188,13195,False,False,inspiration,expiration
418,0.2146934650880827,25,down,up,0.7392337000001135,0.9143036191051128,,experiment,cRDM,1.0,,,,1320.6731490000002,1003,24,female,True,13206,13213,False,False,expiration,expiration
419,0.2146934650880827,25,up,up,0.6663339999995515,0.9029211697057962,,experiment,cRDM,1.0,,,,1322.573061699999,1003,24,female,True,13225,13232,False,False,inspiration,inspiration
420,0.2146934650880827,25,down,up,0.6377883999994083,0.6984399083257242,,experiment,cRDM,1.0,,,,1324.1896734999993,1003,24,female,True,13241,13247,False,False,expiration,expiration
421,0.2146934650880827,25,up,up,0.7171471999990899,1.3609134279230282,,experiment,cRDM,1.0,,,,1326.4562533999995,1003,24,female,True,13264,13271,False,False,expiration,expiration
422,0.2146934650880827,25,up,up,0.575396100000944,1.967295754549212,,experiment,cRDM,1.0,,,,1329.4059875000005,1003,24,female,True,13294,13300,False,False,expiration,expiration
423,110.0,25,M,up,0.7376354999996693,1.3987781421606678,,experiment,emotion,1.0,,,,1347.9887662,1003,24,female,True,13479,13486,False,False,expiration,expiration
424,95.0,25,M,down,0.6300339999997959,0.9264143900411594,,experiment,emotion,1.0,,,,1349.9553947999993,1003,24,female,True,13499,13505,False,False,inspiration,expiration
425,105.0,25,F,down,0.5437846000004356,0.4144315137416335,,experiment,emotion,1.0,,,,1351.2886504999988,1003,24,female,True,13512,13517,False,False,expiration,expiration
426,110.0,25,F,up,0.7488036999984615,1.9481143141111408,,experiment,emotion,1.0,,,,1354.0385896999996,1003,24,female,True,13540,13547,False,False,peak,expiration
427,105.0,25,M,down,0.5922859000002063,1.8524516953155732,,experiment,emotion,1.0,,,,1356.9051106999996,1003,24,female,True,13569,13575,False,False,inspiration,inspiration
428,100.0,25,F,up,0.6180400999983249,1.5276160530933405,,experiment,emotion,1.0,,,,1359.2883772000005,1003,24,female,True,13592,13598,False,False,expiration,expiration
429,95.0,25,M,down,0.5854768999997759,1.49063006016461,,experiment,emotion,1.0,,,,1361.6549448999995,1003,24,female,True,13616,13622,True,True,inspiration,expiration
430,100.0,25,M,down,0.977205999999569,1.8874768993936104,,experiment,emotion,1.0,,,,1364.3881958999993,1003,24,female,True,13643,13653,True,True,expiration,inspiration
431,110.0,25,F,down,0.6129321999997046,0.4312207020061527,,experiment,emotion,1.0,,,,1366.0714688999994,1003,24,female,True,13660,13666,True,True,expiration,expiration
432,100.0,25,F,up,0.7003727000010258,1.7701955793670368,,experiment,emotion,1.0,,,,1368.7380460000004,1003,24,female,True,13687,13694,True,True,inspiration,expiration
433,105.0,25,F,down,0.6991170999990572,0.9569192974724294,,experiment,emotion,1.0,,,,1370.6712886000005,1003,24,female,True,13706,13713,True,True,expiration,expiration
434,110.0,25,F,down,0.8793249999998807,1.9932993378297568,,experiment,emotion,1.0,,,,1373.6210570999992,1003,24,female,True,13736,13745,True,True,expiration,expiration
435,105.0,25,F,down,0.6389930000004824,0.8333236015705592,,experiment,emotion,1.0,,,,1375.604414899999,1003,24,female,True,13755,13761,True,True,inspiration,inspiration
436,95.0,25,F,down,1.1067425000001094,1.3471835666926235,,experiment,emotion,1.0,,,,1377.8876650999994,1003,24,female,True,13778,13789,True,True,expiration,inspiration
437,100.0,25,M,down,2.0258365000008784,1.7613278216579304,,experiment,emotion,1.0,,,,1381.0375784999994,1003,24,female,True,13810,13830,True,True,expiration,expiration
438,95.0,25,M,up,1.1179131000008056,0.3467565667352279,,experiment,emotion,1.0,,,,1383.6874735,1003,24,female,True,13836,13847,True,True,expiration,expiration
439,110.0,25,M,up,0.58769410000059,1.1763558849955469,,experiment,emotion,1.0,,,,1386.2706992999995,1003,24,female,True,13862,13868,True,True,inspiration,expiration
440,95.0,25,M,down,0.7257456000006641,1.0890275984221371,,experiment,emotion,1.0,,,,1388.2206413000006,1003,24,female,True,13882,13889,True,True,expiration,expiration
441,105.0,25,F,down,0.7228230000000622,1.290831090434805,,experiment,emotion,1.0,,,,1390.5205724999994,1003,24,female,True,13905,13912,False,False,inspiration,expiration
442,105.0,25,M,down,0.4585795999992115,1.0377170443789014,,experiment,emotion,1.0,,,,1392.5538095999998,1003,24,female,True,13925,13930,False,False,expiration,expiration
443,100.0,25,M,down,0.6377603000000818,1.015850279796211,,experiment,emotion,1.0,,,,1394.303662799999,1003,24,female,True,13943,13949,False,False,inspiration,expiration
444,100.0,25,F,down,0.6273538000004919,0.722093187612866,,experiment,emotion,1.0,,,,1395.9370376999993,1003,24,female,True,13959,13965,False,False,expiration,expiration
445,95.0,25,M,down,0.430483699999968,1.3541573673310812,,experiment,emotion,1.0,,,,1398.1869112000006,1003,24,female,True,13981,13985,False,False,inspiration,inspiration
446,110.0,25,F,up,0.9175226999996084,1.5835518881841282,,experiment,emotion,1.0,,,,1400.4868260000005,1003,24,female,True,14004,14013,False,False,expiration,inspiration
447,105.0,25,F,up,0.6869983999986289,0.5366966870482173,,experiment,emotion,1.0,,,,1402.2033933000002,1003,24,female,True,14022,14029,False,False,inspiration,expiration
448,95.0,25,M,down,0.9259884000002784,0.4569437671949458,,experiment,emotion,1.0,,,,1403.6034234,1003,24,female,True,14036,14045,False,False,expiration,expiration
449,110.0,25,M,up,0.7573666000007506,0.6733449099956456,,experiment,emotion,1.0,,,,1405.4700025000002,1003,24,female,True,14054,14062,False,False,inspiration,inspiration
450,110.0,25,F,up,0.6758922000008171,1.5865802237057791,,experiment,emotion,1.0,,,,1408.0865694000006,1003,24,female,True,14080,14087,False,False,expiration,expiration
451,100.0,25,M,up,1.0305542999994939,0.3762277277437888,,experiment,emotion,1.0,,,,1409.4198631999989,1003,24,female,True,14094,14104,False,False,inspiration,expiration
452,95.0,25,F,down,0.6915498999987904,1.6142775698351193,,experiment,emotion,1.0,,,,1412.3197579999994,1003,24,female,True,14123,14130,False,False,expiration,inspiration
453,100.0,25,F,down,0.7551277000002301,0.9045716057125625,,experiment,emotion,1.0,,,,1414.1863197000002,1003,24,female,True,14141,14149,False,False,expiration,expiration
454,105.0,25,F,down,0.8881657999991148,0.9791358516124502,,experiment,emotion,1.0,,,,1416.1862612000007,1003,24,female,True,14161,14170,False,False,inspiration,inspiration
455,95.0,25,M,down,0.8313115000000835,1.4306053729244703,,experiment,emotion,1.0,,,,1418.7861432999996,1003,24,female,True,14187,14195,False,False,expiration,trough
456,110.0,25,M,up,0.7752902000011089,0.3709548922883733,,experiment,emotion,1.0,,,,1420.2361265,1003,24,female,True,14202,14210,False,False,inspiration,expiration
457,105.0,25,M,up,0.847710799998822,1.4576809834276083,,experiment,emotion,1.0,,,,1422.752695699999,1003,24,female,True,14227,14235,False,False,expiration,inspiration
458,110.0,25,F,up,0.6612543999999616,0.5364887298454641,,experiment,emotion,1.0,,,,1424.4191243999994,1003,24,female,True,14244,14251,False,False,expiration,expiration
459,95.0,25,F,up,0.7581916000017372,1.066615901661164,,experiment,emotion,1.0,,,,1426.4191979999994,1003,24,female,True,14264,14272,False,False,inspiration,inspiration
460,105.0,25,M,up,0.9733773999996628,1.9304226305913113,,experiment,emotion,1.0,,,,1429.3691082000007,1003,24,female,True,14293,14303,False,False,expiration,expiration
461,100.0,25,F,down,0.6163639999995212,1.0461733987207271,,experiment,emotion,1.0,,,,1431.6690230000006,1003,24,female,True,14316,14322,False,False,expiration,inspiration
462,100.0,25,M,up,0.6411956000010832,1.2499392618318637,,experiment,emotion,1.0,,,,1433.802248599999,1003,24,female,True,14338,14344,False,False,expiration,expiration
463,105.0,25,M,down,0.6871931000005134,1.087973977907548,,experiment,emotion,1.0,,,,1435.8021915999998,1003,24,female,True,14358,14365,False,False,inspiration,inspiration
464,110.0,25,M,up,0.8622795999999653,1.89808667290726,,experiment,emotion,1.0,,,,1438.6521035999995,1003,24,female,True,14386,14395,False,False,expiration,expiration
465,100.0,25,F,down,0.5901680000006309,1.906589215020194,,experiment,emotion,1.0,,,,1441.6852199999994,1003,24,female,True,14417,14423,False,False,expiration,expiration
466,95.0,25,F,up,1.1685701999995215,0.3505845133689493,,experiment,emotion,1.0,,,,1442.9018856999994,1003,24,female,True,14429,14441,False,False,expiration,inspiration
467,95.0,25,M,down,0.7208798999999999,1.4183628285539551,,experiment,emotion,1.0,,,,1445.768512999999,1003,24,female,True,14457,14464,False,False,expiration,expiration
468,100.0,25,F,down,0.8412432000004628,0.8729708558399998,,experiment,emotion,1.0,,,,1447.6351190999994,1003,24,female,True,14476,14484,False,False,inspiration,inspiration
469,110.0,25,F,up,0.6680438999992475,0.871132548047195,,experiment,emotion,1.0,,,,1449.6183583999994,1003,24,female,True,14496,14503,False,False,expiration,expiration
470,105.0,25,M,down,1.1374719999985246,0.7188199755293107,,experiment,emotion,1.0,,,,1451.2849437000007,1003,24,female,True,14512,14523,False,False,expiration,inspiration
471,95.0,25,M,down,0.8788167000002431,1.3581877906945723,,experiment,emotion,1.0,,,,1454.0515264999995,1003,24,female,True,14540,14549,False,False,expiration,trough
472,110.0,25,F,up,0.8335760000009032,0.6233121820044596,,experiment,emotion,1.0,,,,1455.8347971000005,1003,24,female,True,14558,14566,False,False,inspiration,expiration
473,105.0,25,M,up,0.9543732000001909,1.4909395869193718,,experiment,emotion,1.0,,,,1458.4180326999995,1003,24,female,True,14584,14594,False,False,trough,inspiration
474,105.0,25,F,up,0.6307852999998431,1.6798492644344618,,experiment,emotion,1.0,,,,1461.3345983999989,1003,24,female,True,14613,14619,False,False,expiration,expiration
475,95.0,25,F,down,0.7671811999989586,1.3173440438783388,,experiment,emotion,1.0,,,,1463.5512089999993,1003,24,female,True,14635,14643,False,False,expiration,expiration
476,100.0,25,F,down,0.8532998999999108,1.5994744038062414,,experiment,emotion,1.0,,,,1466.2011139999993,1003,24,female,True,14662,14671,False,False,inspiration,peak
477,110.0,25,M,up,0.6677266000006057,1.2886390119974058,,experiment,emotion,1.0,,,,1468.6176527999994,1003,24,female,True,14686,14693,False,False,expiration,trough
478,100.0,25,M,down,0.8281120000010559,1.1279348709493089,,experiment,emotion,1.0,,,,1470.6842675999994,1003,24,female,True,14706,14714,False,False,expiration,expiration
479,100.0,25,F,down,0.8652620000011666,1.7023494300041944,,experiment,emotion,1.0,,,,1473.4841201,1003,24,female,True,14734,14743,False,False,inspiration,inspiration
480,100.0,25,F,down,0.8263521999997465,1.3589720129024818,,experiment,emotion,1.0,,,,1475.9840267999991,1003,24,female,True,14759,14767,False,False,expiration,expiration
481,110.0,25,M,up,0.9684410999998364,1.005918637038472,,experiment,emotion,1.0,,,,1478.0839479999993,1003,24,female,True,14780,14790,False,False,peak,expiration
482,105.0,25,M,up,1.8118605999989088,1.7299325093556377,,experiment,emotion,1.0,,,,1481.0505436999995,1003,24,female,True,14810,14828,False,False,inspiration,expiration
483,95.0,25,M,down,0.6407120000003488,1.4384190307743363,,experiment,emotion,1.0,,,,1484.583717899999,1003,24,female,True,14845,14851,False,False,inspiration,expiration
484,95.0,25,M,down,0.7022548000004463,1.8019071370433883,,experiment,emotion,1.0,,,,1487.3001282000007,1003,24,female,True,14873,14880,False,False,expiration,inspiration
485,105.0,25,M,up,0.9058896000005916,1.2080605102089594,,experiment,emotion,1.0,,,,1489.4835246999994,1003,24,female,True,14894,14903,False,False,expiration,expiration
486,110.0,25,F,down,0.8306251999983942,1.7973666906637529,,experiment,emotion,1.0,,,,1492.4667750999995,1003,24,female,True,14924,14932,False,False,expiration,expiration
487,110.0,25,F,up,0.9206914999995206,1.0927231621272608,,experiment,emotion,1.0,,,,1494.6666865999994,1003,24,female,True,14946,14955,False,False,expiration,inspiration
488,95.0,25,M,down,1.0394431999993683,1.6936298979589668,,experiment,emotion,1.0,,,,1497.5499435000004,1003,24,female,True,14975,14985,False,False,expiration,inspiration
489,110.0,25,F,up,0.6555183999989822,0.3929329942660697,,experiment,emotion,1.0,,,,1499.2498522000005,1003,24,female,True,14992,14999,False,False,inspiration,expiration
490,100.0,25,F,up,1.1649856000003638,1.171005607422387,,experiment,emotion,1.0,,,,1501.3664274999994,1003,24,female,True,15013,15025,False,False,expiration,inspiration
491,105.0,25,F,up,0.7283663999987766,0.836410047317734,,experiment,emotion,1.0,,,,1503.6330247000005,1003,24,female,True,15036,15043,False,False,expiration,expiration
492,100.0,25,M,up,0.885841100000107,1.856724379099372,,experiment,emotion,1.0,,,,1506.4995323999995,1003,24,female,True,15065,15074,False,False,inspiration,inspiration
493,95.0,25,F,up,0.7898628000002645,0.8972117511097766,,experiment,emotion,1.0,,,,1508.5495042000002,1003,24,female,True,15085,15093,False,False,expiration,expiration
494,105.0,25,F,up,0.8056395999992674,1.2289663867846534,,experiment,emotion,1.0,,,,1510.8327541,1003,24,female,True,15108,15116,False,False,inspiration,expiration
495,100.0,25,F,up,0.7824539000012009,1.81267064632776,,experiment,emotion,1.0,,,,1513.7159173,1003,24,female,True,15137,15145,False,False,expiration,expiration
496,105.0,25,M,up,1.1698271999994176,1.6594017126307403,,experiment,emotion,1.0,,,,1516.4325427999993,1003,24,female,True,15164,15176,False,False,expiration,expiration
497,95.0,25,M,down,0.8492177000007359,1.2443773812423282,,experiment,emotion,1.0,,,,1519.0991544999995,1003,24,female,True,15191,15199,False,False,inspiration,expiration
498,110.0,25,F,up,0.9089987999996084,1.3977146980416435,,experiment,emotion,1.0,,,,1521.632370199999,1003,24,female,True,15216,15225,False,False,expiration,trough
499,105.0,25,M,up,1.6757507999991503,0.4506478237202624,,experiment,emotion,1.0,,,,1523.2656308999995,1003,24,female,True,15232,15249,False,False,inspiration,expiration
500,110.0,25,F,up,0.7192054000006465,1.825762303707744,,experiment,emotion,1.0,,,,1527.0321468999994,1003,24,female,True,15270,15277,False,False,inspiration,expiration
501,95.0,25,M,down,0.7296107000001939,0.7166777303686542,,experiment,emotion,1.0,,,,1528.7487554999989,1003,24,female,True,15287,15294,False,False,expiration,expiration
502,100.0,25,M,down,0.9980431999993016,1.944060718003952,,experiment,emotion,1.0,,,,1531.7153244,1003,24,female,True,15317,15327,False,False,expiration,expiration
503,0.2146934650880827,25,up,up,0.7815439000005426,0.8198322325659384,,experiment,cRDM,2.0,,,,1536.2318156,1003,24,female,True,15362,15370,False,False,expiration,expiration
504,0.2146934650880827,25,up,down,1.0752657999983055,1.1494226059749424,,experiment,cRDM,2.0,,,,1538.4151294000005,1003,24,female,True,15384,15395,False,False,inspiration,expiration
505,0.2146934650880827,25,down,down,1.0029056999992465,1.8247314709460487,,experiment,cRDM,2.0,,,,1541.5816030999995,1003,24,female,True,15415,15425,False,False,inspiration,expiration
506,0.2146934650880827,25,down,down,0.9821582000004128,0.603652466271016,,experiment,cRDM,2.0,,,,1543.4482219,1003,24,female,True,15434,15444,False,False,expiration,inspiration
507,0.2146934650880827,25,up,up,0.7159226999992825,1.7372786316073785,,experiment,cRDM,2.0,,,,1546.4314372999993,1003,24,female,True,15464,15471,False,False,expiration,expiration
508,0.2146934650880827,25,down,down,0.7154421999985061,1.4440443429996686,,experiment,cRDM,2.0,,,,1548.8480172,1003,24,female,True,15488,15495,False,False,inspiration,expiration
509,0.2146934650880827,25,up,up,0.5810853999992105,1.0176085766781358,,experiment,cRDM,2.0,,,,1550.8312759,1003,24,female,True,15508,15514,False,False,expiration,inspiration
510,0.2146934650880827,25,up,down,0.9008905999999116,1.6908290703159998,,experiment,cRDM,2.0,,,,1553.3645058999994,1003,24,female,True,15533,15542,False,False,expiration,expiration
511,0.2146934650880827,25,down,down,0.7836088000003656,1.313326670193703,,experiment,cRDM,2.0,,,,1555.8477583000006,1003,24,female,True,15558,15566,False,False,inspiration,expiration
512,0.2146934650880827,25,down,down,1.1717521999999008,1.2967956214426373,,experiment,cRDM,2.0,,,,1558.1976096,1003,24,female,True,15582,15594,False,False,trough,inspiration
513,0.2146934650880827,25,down,down,1.2954724999999598,1.2091793637148276,,experiment,cRDM,2.0,,,,1560.8309303000005,1003,24,female,True,15608,15621,False,False,expiration,inspiration
514,0.2146934650880827,25,down,down,1.5065351000012015,0.3254203654857473,,experiment,cRDM,2.0,,,,1562.7308247,1003,24,female,True,15627,15642,False,False,inspiration,expiration
515,0.2146934650880827,25,down,up,0.7013764999992418,1.4070630462760978,,experiment,cRDM,2.0,,,,1565.9140628000007,1003,24,female,True,15659,15666,False,False,inspiration,inspiration
516,0.2146934650880827,25,down,up,2.0973995000003924,0.4375016342907849,,experiment,cRDM,2.0,,,,1567.3139565,1003,24,female,True,15673,15694,False,False,expiration,inspiration
517,0.2146934650880827,25,up,down,1.5288882999993805,1.900650857495532,,experiment,cRDM,2.0,,,,1571.5804522,1003,24,female,True,15716,15731,False,False,expiration,inspiration
518,0.2146934650880827,25,up,up,0.7661330999999336,1.4061630692100713,,experiment,cRDM,2.0,,,,1574.7802859999995,1003,24,female,True,15748,15756,False,False,expiration,expiration
519,0.2146934650880827,25,up,down,0.7516945999996096,0.5609705228084501,,experiment,cRDM,2.0,,,,1576.3636594999991,1003,24,female,True,15763,15771,False,False,inspiration,inspiration
520,0.2146934650880827,25,up,up,0.6608265999984724,0.9934524070466936,,experiment,cRDM,2.0,,,,1578.363579499999,1003,24,female,True,15783,15790,False,False,expiration,expiration
521,0.2146934650880827,25,down,up,1.150941399999283,0.7303522273945606,,experiment,cRDM,2.0,,,,1580.0134223999994,1003,24,female,True,15800,15812,False,False,inspiration,expiration
522,0.2146934650880827,25,up,up,1.192941299999802,1.8382152653279316,,experiment,cRDM,2.0,,,,1583.2633869,1003,24,female,True,15832,15844,False,False,inspiration,expiration
523,0.2146934650880827,25,up,up,0.7463668000000325,1.9615676836665557,,experiment,cRDM,2.0,,,,1586.6799962999994,1003,24,female,True,15867,15874,False,False,inspiration,expiration
524,0.2146934650880827,25,down,up,0.6878962000009778,1.1959914232448778,,experiment,cRDM,2.0,,,,1588.8964619999988,1003,24,female,True,15889,15896,False,False,expiration,inspiration
525,0.2146934650880827,25,up,up,0.8958586999997351,0.4443879662898701,,experiment,cRDM,2.0,,,,1590.296488599999,1003,24,female,True,15903,15912,False,False,inspiration,expiration
526,0.2146934650880827,25,down,up,0.9600207000003138,1.9329756009322232,,experiment,cRDM,2.0,,,,1593.3963306000005,1003,24,female,True,15934,15944,False,False,inspiration,peak
527,0.2146934650880827,25,down,up,0.6931019999992714,1.9244381275325435,,experiment,cRDM,2.0,,,,1596.5462410999992,1003,24,female,True,15965,15972,False,False,expiration,inspiration
528,0.2146934650880827,25,up,up,1.0561443000005966,1.2489020344667123,,experiment,cRDM,2.0,,,,1598.7461623999989,1003,24,female,True,15987,15998,False,False,expiration,expiration
529,0.2146934650880827,25,up,up,0.7576281999990897,0.5047194019865278,,experiment,cRDM,2.0,,,,1600.5627514999994,1003,24,female,True,16005,16013,False,False,expiration,inspiration
530,0.2146934650880827,25,down,down,0.8596616000013455,1.924313481938356,,experiment,cRDM,2.0,,,,1603.5126879999991,1003,24,female,True,16035,16044,False,False,expiration,expiration
531,0.2146934650880827,25,up,up,1.0267440999996325,0.4194427797544045,,experiment,cRDM,2.0,,,,1605.0626099,1003,24,female,True,16050,16060,False,False,trough,inspiration
532,0.2146934650880827,25,down,up,0.9267882999993162,0.8528826297401517,,experiment,cRDM,2.0,,,,1607.212560599999,1003,24,female,True,16072,16081,False,False,expiration,expiration
533,0.2146934650880827,25,down,up,1.3583390000003421,1.3178730384413453,,experiment,cRDM,2.0,,,,1609.7290821999993,1003,24,female,True,16097,16111,False,False,inspiration,expiration
