,stimLvl,stimTime,rand,response,rt,precedingITI,trialNumber,trialType,stimuli,block,estIntens,estThres,estSlope,trialStart,subject,age,gender,headRest,onset,responsI,manBadOnset,manBadRespons,onset_phase,respons_phase
0,0.9,100,down,,,1.8893444919886595,,introTrial,cRDM,,,,,261.09608110000045,1004,23,female,True,2610,0,False,False,inspiration,0
1,150.0,100,F,,,1.9716350998355257,,introTrial,emotion,,,,,267.0291748,1004,23,female,True,2669,0,False,False,inspiration,0
2,200.0,25,F,up,0.5775087000001804,0.6682456897356751,,tutorial,emotion,,,,,302.3445197000001,1004,23,female,True,3022,3028,False,False,inspiration,expiration
3,200.0,25,F,up,0.4258910000007745,0.4584152345051911,,tutorial,emotion,,,,,303.6611231000006,1004,23,female,True,3035,3039,False,False,expiration,trough
4,200.0,25,M,up,0.3335106000013184,0.4340380082217237,,tutorial,emotion,,,,,304.8110954000004,1004,23,female,True,3047,3050,False,False,inspiration,expiration
5,0.0,25,M,down,0.40025840000089374,1.149937008234531,,tutorial,emotion,,,,,306.6775787000006,1004,23,female,True,3066,3070,False,False,inspiration,inspiration
6,0.0,25,F,down,0.4167968000001565,0.7846971419050374,,tutorial,emotion,,,,,308.16096209999887,1004,23,female,True,3080,3084,False,False,expiration,expiration
7,200.0,25,M,up,0.3501376000003802,1.127326195901777,,tutorial,emotion,,,,,309.9775841999999,1004,23,female,True,3099,3103,False,False,inspiration,expiration
8,0.0,25,M,down,0.36684280000008573,0.3963926846881868,,tutorial,emotion,,,,,311.0775508999996,1004,23,female,True,3110,3114,False,False,expiration,inspiration
9,200.0,25,F,up,0.4825748000002932,1.9970581529918718,,tutorial,emotion,,,,,313.77743199999895,1004,23,female,True,3137,3142,False,False,expiration,inspiration
10,0.0,25,M,down,0.4466379999994388,0.7213757319225287,,tutorial,emotion,,,,,315.2773791,1004,23,female,True,3152,3156,False,False,expiration,expiration
11,0.0,25,F,down,0.5761022000006051,1.7942006271432906,,tutorial,emotion,,,,,317.7939406000005,1004,23,female,True,3177,3183,False,False,expiration,expiration
12,0.9,25,up,up,0.4483751000007032,1.4218888754950771,,tutorial,cRDM,,,,,324.84367389999903,1004,23,female,True,3247,3251,False,False,expiration,expiration
13,0.9,25,up,up,0.4350636999988637,1.4143296858162864,,tutorial,cRDM,,,,,326.9769379999998,1004,23,female,True,3269,3273,False,False,inspiration,inspiration
14,0.9,25,down,down,0.3338017999994918,1.8135552768057768,,tutorial,cRDM,,,,,329.5101804999995,1004,23,female,True,3294,3297,False,False,inspiration,inspiration
15,0.9,25,down,down,0.4586132000004,0.9301998520629926,,tutorial,cRDM,,,,,331.14341889999923,1004,23,female,True,3310,3315,False,False,expiration,inspiration
16,0.9,25,up,up,0.4956684999997378,0.7746449031506224,,tutorial,cRDM,,,,,332.6433734000002,1004,23,female,True,3325,3330,False,False,peak,expiration
17,0.9,25,down,down,0.4703675000000658,1.5205002934668532,,tutorial,cRDM,,,,,334.9266487999994,1004,23,female,True,3348,3353,False,False,peak,expiration
18,0.9,25,up,up,0.30047599999852537,1.1184475020673526,,tutorial,cRDM,,,,,336.7932335000005,1004,23,female,True,3367,3370,False,False,inspiration,inspiration
19,0.9,25,up,up,0.33384279999881983,1.6289770348094488,,tutorial,cRDM,,,,,339.12648850000005,1004,23,female,True,3390,3393,False,False,inspiration,inspiration
20,0.9,25,down,down,0.4171399000006204,0.6329056579275671,,tutorial,cRDM,,,,,340.4430974000006,1004,23,female,True,3403,3407,False,False,expiration,expiration
21,0.9,25,down,down,0.4486458999999741,1.9881960967290984,,tutorial,cRDM,,,,,343.1263397999992,1004,23,female,True,3430,3434,False,False,expiration,expiration
22,100.0,25,M,,,1.035841411847658,,psi_staircase_training,emotion,,100.0,100.0,25.00050000000001,352.97580960000056,1004,23,female,True,3529,0,False,False,expiration,0
23,100.0,25,F,down,0.4878688999997394,1.035841411847658,,psi_staircase_training,emotion,,100.0,100.0,25.00050000000001,356.7091686000004,1004,23,female,True,3566,3571,False,False,inspiration,inspiration
24,145.0,25,M,up,0.4802297999995062,0.5728290801874879,,psi_staircase_training,emotion,,145.25719053245996,145.25719053245996,25.000500000000283,358.12579519999963,1004,23,female,True,3580,3585,False,False,expiration,expiration
25,121.0,25,F,up,0.4484594999994442,0.5224480775466692,,psi_staircase_training,emotion,,120.36392901436103,120.36392901436103,25.71326925488699,359.475617099999,1004,23,female,True,3594,3598,False,False,inspiration,inspiration
26,97.0,25,F,down,0.5674400000007154,1.2000966118250942,,psi_staircase_training,emotion,,102.38876106084959,102.38876106084959,26.14633372628729,361.4756517000005,1004,23,female,True,3614,3620,False,False,expiration,inspiration
27,113.0,25,M,up,0.3835183999999572,1.5546481824759246,,psi_staircase_training,emotion,,114.01123255420406,114.01123255420406,23.003056417783352,363.9588851999997,1004,23,female,True,3639,3643,False,False,expiration,inspiration
28,105.0,25,F,up,0.5001938000004884,1.6599680535112118,,psi_staircase_training,emotion,,104.94359593877377,104.94359593877377,22.15060322358215,366.37575449999895,1004,23,female,True,3663,3668,False,False,expiration,inspiration
29,92.0,25,M,down,0.4546037000000069,0.4816216542733135,,psi_staircase_training,emotion,,97.32104229908207,97.32104229908207,23.933073614490553,367.7254315999999,1004,23,female,True,3676,3681,False,False,expiration,expiration
30,95.0,25,F,down,0.569193000001178,1.6708847931354902,,psi_staircase_training,emotion,,102.844886035729,102.844886035729,20.021669804154055,370.19200420000016,1004,23,female,True,3701,3707,False,False,expiration,expiration
31,108.0,25,F,down,0.3835292999992817,0.6389855183501945,,psi_staircase_training,emotion,,105.64949659566051,105.64949659566051,16.907117635955938,371.7752464000005,1004,23,female,True,3717,3721,False,False,inspiration,inspiration
32,122.0,25,M,up,0.4184977000004437,1.2062560588611446,,psi_staircase_training,emotion,,111.13896522524436,111.13896522524436,22.52743651147554,373.75852339999983,1004,23,female,True,3736,3740,False,False,expiration,expiration
33,120.0,25,F,up,0.3669592999995075,0.5474774482315379,,psi_staircase_training,emotion,,108.34048536338419,108.34048536338419,19.767648454571606,375.0750513000002,1004,23,female,True,3750,3754,False,False,inspiration,expiration
34,95.0,25,F,up,0.3668369000006351,0.33964941590056963,,psi_staircase_training,emotion,,106.5402257177467,106.5402257177467,17.423382774665928,376.15846359999887,1004,23,female,True,3761,3765,False,False,expiration,trough
35,84.0,25,F,down,0.4943223999998736,1.80194645161902,,psi_staircase_training,emotion,,101.55822058451528,101.55822058451528,25.58289414549214,378.7416782999989,1004,23,female,True,3786,3791,False,False,expiration,trough
36,85.0,25,M,down,0.3668711999998777,0.6093223697861594,,psi_staircase_training,emotion,,103.44258744773305,103.44258744773305,23.529502283805808,380.2082876999994,1004,23,female,True,3801,3805,False,False,inspiration,expiration
37,121.0,25,M,up,0.5081474999988131,1.7841729370393908,,psi_staircase_training,emotion,,104.76191777170656,104.76191777170656,21.723377184209518,382.77486970000064,1004,23,female,True,3827,3832,False,False,expiration,expiration
38,87.0,25,F,down,0.4782230000000709,1.2895010974924617,,psi_staircase_training,emotion,,103.53958525429485,103.53958525429485,19.959780161435013,384.9248114000002,1004,23,female,True,3848,3853,False,False,inspiration,expiration
39,119.0,25,F,up,0.5602760000001581,0.4166086420528333,,psi_staircase_training,emotion,,104.50929617341014,104.50929617341014,18.316238239103946,386.17474829999986,1004,23,female,True,3861,3867,False,False,expiration,inspiration
40,89.0,25,M,down,0.4846386999997776,0.3875713317896909,,psi_staircase_training,emotion,,103.58122857756334,103.58122857756334,16.76206484463651,387.49136749999883,1004,23,female,True,3874,3879,False,False,inspiration,expiration
41,117.0,25,M,up,0.5873895000004268,1.9414448794049668,,psi_staircase_training,emotion,,104.3115121429682,104.3115121429682,15.381484224558966,390.2745871000006,1004,23,female,True,3902,3908,False,False,expiration,expiration
42,91.0,25,M,down,0.4898408000008203,1.2165362038820682,,psi_staircase_training,emotion,,103.58127569693545,103.58127569693545,14.105433294209723,392.44115529999914,1004,23,female,True,3923,3928,False,False,inspiration,expiration
43,115.0,25,M,up,0.5099945999991178,1.8073734614995904,,psi_staircase_training,emotion,,104.16305996788866,104.16305996788866,13.01138328828054,395.0910824999992,1004,23,female,True,3950,3955,False,False,expiration,expiration
44,113.0,25,F,up,0.5073406999999861,1.153008171856884,,psi_staircase_training,emotion,,103.55376108761787,103.55376108761787,12.009324277081847,397.1076792000004,1004,23,female,True,3970,3975,False,False,inspiration,expiration
45,95.0,25,F,down,0.4432221999995818,1.8747995952091272,,psi_staircase_training,emotion,,103.00641498048289,103.00641498048289,11.183005543768957,399.85782920000014,1004,23,female,True,3998,4002,False,False,peak,expiration
46,103.0,25,F,up,0.5205213000008371,0.9489751894778806,,psi_staircase_training,emotion,,103.6172090953982,103.6172090953982,10.389670287020833,401.6075022999994,1004,23,female,True,4015,4020,False,False,inspiration,inspiration
47,111.0,25,M,up,0.5275701999999001,1.5163589704693758,,psi_staircase_training,emotion,,102.336063192362,102.336063192362,10.581759848880113,404.00742100000025,1004,23,female,True,4039,4044,False,False,inspiration,inspiration
48,93.0,25,M,up,0.7806762000000163,0.7008889223638118,,psi_staircase_training,emotion,,101.91378072598795,101.91378072598795,9.930929462293774,405.60735029999887,1004,23,female,True,4055,4063,False,False,expiration,expiration
49,87.0,25,F,down,0.4451516000008269,1.6743443631973092,,psi_staircase_training,emotion,,100.07487954264136,100.07487954264136,12.896540330206074,408.4238714000003,1004,23,female,True,4083,4087,False,False,expiration,expiration
50,88.0,25,F,up,0.6822114999995392,1.39432530022304,,psi_staircase_training,emotion,,100.48056654191221,100.48056654191221,12.040430761558268,410.6238159000004,1004,23,female,True,4105,4112,False,False,expiration,expiration
51,81.0,25,M,down,0.6805966000010812,1.28581996741663,,psi_staircase_training,emotion,,98.58387391989012,98.58387391989012,16.135573018508204,412.94040999999925,1004,23,female,True,4128,4135,False,False,expiration,expiration
52,82.0,25,M,down,0.4217143000005308,1.4599641697716732,,psi_staircase_training,emotion,,98.99689638915842,98.99689638915842,15.157292589444273,415.4403017999994,1004,23,female,True,4153,4157,False,False,expiration,expiration
53,0.29,25,up,up,0.5189440000012837,1.3679928953705858,,psi_staircase_training,cRDM,,0.25,0.25693124029946324,0.10500000000000002,422.1400620999994,1004,23,female,True,4220,4225,False,False,inspiration,expiration
54,0.25,25,up,up,0.7266725999998016,0.4940556471997506,,psi_staircase_training,cRDM,,0.21910266653183127,0.2260132002683493,0.10468632033873933,423.42336830000016,1004,23,female,True,4233,4240,False,False,expiration,inspiration
55,0.21,25,down,up,0.4525320999982796,1.5386546030656596,,psi_staircase_training,cRDM,,0.1900540959403307,0.19684979615540016,0.10294672984249993,425.95653549999946,1004,23,female,True,4259,4264,False,False,expiration,trough
56,0.32,25,down,down,0.41711600000053295,0.5567379494539548,,psi_staircase_training,cRDM,,0.28193877959813873,0.2893209636160949,0.11183125795615867,427.2398642999997,1004,23,female,True,4271,4275,False,False,inspiration,expiration
57,0.29,25,up,up,0.4584451999999146,0.9539690834577974,,psi_staircase_training,cRDM,,0.25942687694212696,0.2667634756990502,0.11114069577656796,428.90648359999983,1004,23,female,True,4288,4293,False,False,inspiration,inspiration
58,0.27,25,down,down,0.38386179999906733,0.8604689790976942,,psi_staircase_training,cRDM,,0.23867195095052604,0.2458822432686335,0.10922730430510502,430.4897662000003,1004,23,female,True,4304,4308,False,False,expiration,expiration
59,0.26,25,up,up,0.4002679999994143,0.7454699096904194,,psi_staircase_training,cRDM,,0.22011578024889514,0.22717390155917144,0.1069220955499698,431.92304259999946,1004,23,female,True,4318,4322,False,False,inspiration,peak
60,0.24,25,up,up,0.5400788999995711,1.9436654845265435,,psi_staircase_training,cRDM,,0.2041505375414391,0.21103014118178134,0.10421776637752347,434.57294419999926,1004,23,female,True,4345,4350,False,False,inspiration,expiration
61,0.2,25,down,down,0.3504271999991033,0.7692554577719329,,psi_staircase_training,cRDM,,0.18886445544182692,0.19570804001934874,0.10367212065861199,436.1729556999999,1004,23,female,True,4361,4365,False,False,inspiration,inspiration
62,0.2,25,down,down,0.5662412000001495,1.0539332412792413,,psi_staircase_training,cRDM,,0.1705557926382123,0.17784973218897618,0.11049445982842553,437.9228227000003,1004,23,female,True,4378,4384,False,False,expiration,trough
63,0.19,25,down,down,0.4002284999987751,1.4296449594961784,,psi_staircase_training,cRDM,,0.1533088738836659,0.16088341853737592,0.11474529150304325,440.20609529999996,1004,23,female,True,4401,4405,False,False,expiration,expiration
64,0.18,25,down,down,0.4796650000007503,0.5236107901448122,,psi_staircase_training,cRDM,,0.13747146237482788,0.14519649428426112,0.117024993427699,441.4393531000005,1004,23,female,True,4413,4418,False,False,inspiration,expiration
65,0.16,25,down,down,0.3838279999999941,0.5210549939882038,,psi_staircase_training,cRDM,,0.1235084939531084,0.1312501447469713,0.11727674964876796,442.7226448999992,1004,23,female,True,4426,4430,False,False,expiration,expiration
66,0.13,25,down,down,0.3504962000006344,1.6695333548670523,,psi_staircase_training,cRDM,,0.11100238590762823,0.11867092021163303,0.11616912228289887,445.0892172000004,1004,23,female,True,4450,4454,False,False,expiration,expiration
67,0.12,25,up,down,0.3004952000010235,1.7950260256909265,,psi_staircase_training,cRDM,,0.09932153392740392,0.10688706081911878,0.11460868319506615,447.57248629999964,1004,23,female,True,4475,4478,False,False,expiration,expiration
68,0.19,25,up,down,0.4349086000001989,0.7888003877702794,,psi_staircase_training,cRDM,,0.13619345675731073,0.14441555373858436,0.12455493472078652,449.03907489999983,1004,23,female,True,4489,4493,False,False,inspiration,expiration
69,0.2,25,up,up,0.3838173000003735,0.8153842932274926,,psi_staircase_training,cRDM,,0.17803029167937412,0.18656440305659816,0.1292815796153994,450.55569839999947,1004,23,female,True,4505,4509,False,False,trough,inspiration
70,0.2,25,up,up,0.400175599999784,1.7150493408261842,,psi_staircase_training,cRDM,,0.1652190428362556,0.17405893929749608,0.13391385788516486,452.97228749999886,1004,23,female,True,4529,4533,False,False,expiration,inspiration
71,0.19,25,down,down,0.4931369000005361,1.5727157515682235,,psi_staircase_training,cRDM,,0.1537433083964162,0.16277201075273168,0.1367740413626314,455.23884480000015,1004,23,female,True,4551,4556,False,False,expiration,expiration
72,0.18,25,up,down,0.3338144999997894,1.7841138368439846,,psi_staircase_training,cRDM,,0.14321606388085265,0.15238884752895246,0.1389567005958605,457.78878629999963,1004,23,female,True,4577,4580,False,False,expiration,expiration
73,0.22,25,up,up,0.6063708999990922,1.798530503441565,,psi_staircase_training,cRDM,,0.17640237513021326,0.1852448382024904,0.13395273897241666,460.28867849999915,1004,23,female,True,4602,4608,False,False,expiration,inspiration
74,0.22,25,down,down,0.433673199999248,0.3541866335486231,,psi_staircase_training,cRDM,,0.16731135148445986,0.17616806924561382,0.13416868045870273,461.50531699999914,1004,23,female,True,4614,4618,False,False,inspiration,expiration
75,0.18,25,up,up,0.3337972000008449,0.5016144920591883,,psi_staircase_training,cRDM,,0.1595813854898257,0.16838958169639098,0.1334336369438775,462.7219046999999,1004,23,female,True,4626,4629,False,False,expiration,expiration
76,0.17,25,down,down,0.3505191000003833,1.583513781910221,,psi_staircase_training,cRDM,,0.15003712207382244,0.15916438006852934,0.13826704140071985,464.98849890000014,1004,23,female,True,4649,4653,False,False,expiration,trough
77,0.17,25,down,down,0.4002865999991627,0.7924324233536951,,psi_staircase_training,cRDM,,0.14098906741840994,0.15038636043426315,0.14235774897906708,466.47176670000056,1004,23,female,True,4664,4668,False,False,peak,expiration
78,0.17,25,up,down,0.3838796000000002,1.8112733412959865,,psi_staircase_training,cRDM,,0.1327672881228176,0.14234722054315505,0.14512451749989472,468.97169389999914,1004,23,female,True,4689,4693,False,False,expiration,expiration
79,0.17,25,up,up,0.4168104000000312,1.1895142109832435,,psi_staircase_training,cRDM,,0.15812278484062633,0.16731571743096946,0.13926193297046294,470.87160399999993,1004,23,female,True,4708,4712,False,False,inspiration,inspiration
80,0.17,25,down,up,0.5537371999998868,1.1075013943865721,,psi_staircase_training,cRDM,,0.14968557960631426,0.15916223412378572,0.14355998080337193,472.68820009999945,1004,23,female,True,4726,4732,False,False,expiration,inspiration
81,0.23,25,up,up,0.4168852000002517,0.9269850043764664,,psi_staircase_training,cRDM,,0.17293900946215693,0.181801073424207,0.13424966900762547,474.4547693000004,1004,23,female,True,4744,4748,False,False,expiration,expiration
82,0.23,25,down,up,0.5169294000006629,0.8399681981896592,,psi_staircase_training,cRDM,,0.1675057114250294,0.17619824413385607,0.13168147329958801,475.9880735000006,1004,23,female,True,4759,4764,False,False,inspiration,expiration
83,100.0,25,M,down,0.6756720000012137,0.8946150997826892,,psi_staircase,emotion,,100.0,100.0,25.00050000000001,500.2705172999995,1004,23,female,True,5002,5009,False,False,inspiration,expiration
84,145.0,25,M,up,0.43092559999968216,1.0558860904637666,,psi_staircase,emotion,,145.25719053245996,145.25719053245996,25.000500000000283,502.35404039999963,1004,23,female,True,5023,5027,False,False,inspiration,inspiration
85,121.0,25,F,down,0.619076999999379,1.9219276722429544,,psi_staircase,emotion,,120.36392901436103,120.36392901436103,25.71326925488699,505.05392279999984,1004,23,female,True,5050,5056,False,False,inspiration,expiration
86,137.0,25,F,up,0.444428799999514,0.6415658718985991,,psi_staircase,emotion,,137.8359832966118,137.8359832966118,25.292325986285494,506.6535444999991,1004,23,female,True,5066,5070,False,False,trough,inspiration
87,127.0,25,M,up,0.3669038000007277,0.659441614246324,,psi_staircase,emotion,,126.46069055808249,126.46069055808249,23.649751085611292,508.1368676999992,1004,23,female,True,5080,5084,False,False,expiration,expiration
88,113.0,25,F,up,0.4907988000013575,0.6970303821547764,,psi_staircase,emotion,,117.5164469811675,117.5164469811675,24.576174135130763,509.62016380000017,1004,23,female,True,5095,5100,False,False,inspiration,expiration
89,94.0,25,M,down,0.4805820000001404,1.842135130227904,,psi_staircase,emotion,,106.52678028801836,106.52678028801836,30.115701177201284,512.3034112000005,1004,23,female,True,5122,5127,False,False,peak,expiration
90,98.0,25,F,down,0.5496559999992314,0.4506938894146112,,psi_staircase,emotion,,112.69176471044777,112.69176471044777,27.72735343080098,513.6033604000004,1004,23,female,True,5135,5140,False,False,trough,inspiration
91,132.0,25,F,up,0.4313975999994,1.6842295087604326,,psi_staircase,emotion,,116.55524461345101,116.55524461345101,25.686082281091608,516.1865944000001,1004,23,female,True,5161,5165,False,False,inspiration,inspiration
92,103.0,25,M,down,0.5211295999997674,1.8946946455873648,,psi_staircase,emotion,,113.7593527695303,113.7593527695303,23.877520687671648,518.8698191999994,1004,23,female,True,5188,5193,False,False,inspiration,peak
93,131.0,25,F,up,0.4722526999994443,1.1811709752646111,,psi_staircase,emotion,,116.68945046105982,116.68945046105982,21.89311654377142,520.9197370999991,1004,23,female,True,5208,5213,False,False,inspiration,inspiration
94,107.0,25,F,down,0.5742222999997466,0.5879696112076591,,psi_staircase,emotion,,114.79233295674628,114.79233295674628,20.061136582159428,522.3197220999991,1004,23,female,True,5222,5228,False,False,expiration,expiration
95,130.0,25,F,up,0.4943113000008452,0.4658545075341706,,psi_staircase,emotion,,117.11272584921343,117.11272584921343,18.33489581650149,523.7196592,1004,23,female,True,5236,5241,False,False,inspiration,expiration
96,111.0,25,M,up,1.008146999998644,1.6904335162525022,,psi_staircase,emotion,,115.7958455743708,115.7958455743708,16.641291449905072,526.2528203000002,1004,23,female,True,5262,5272,False,False,peak,expiration
97,98.0,25,M,down,0.4448286999995617,0.6534290534430385,,psi_staircase,emotion,,112.19804230578221,112.19804230578221,18.9660519966084,528.2861467000001,1004,23,female,True,5282,5286,False,False,inspiration,expiration
98,100.0,25,F,down,0.5594736999992165,1.255926636860104,,psi_staircase,emotion,,113.435337250008,113.435337250008,17.107819279848396,530.3525628999996,1004,23,female,True,5303,5309,False,False,inspiration,expiration
99,113.0,25,F,up,0.5489592000012635,0.9659800280081304,,psi_staircase,emotion,,114.32193875197063,114.32193875197063,15.555323292984488,532.2360016999992,1004,23,female,True,5321,5326,False,False,inspiration,inspiration
100,113.0,25,M,down,0.5597307999996701,1.6362672330945187,,psi_staircase,emotion,,112.12433558785729,112.12433558785729,14.97105148295853,534.7692344999996,1004,23,female,True,5347,5353,False,False,inspiration,peak
101,128.0,25,M,up,0.4397685000003548,1.6509063810207822,,psi_staircase,emotion,,114.3196460919027,114.3196460919027,16.511153017931342,537.3191611999991,1004,23,female,True,5372,5376,False,False,inspiration,expiration
102,99.0,25,M,down,0.5369776999996247,1.7589366822517192,,psi_staircase,emotion,,113.57340471029032,113.57340471029032,15.14546283578856,539.8690458000002,1004,23,female,True,5398,5403,False,False,inspiration,expiration
103,126.0,25,M,up,0.8612897999992128,0.32121563045047163,,psi_staircase,emotion,,114.10463555631227,114.10463555631227,13.968072209006117,541.0856922999992,1004,23,female,True,5410,5419,False,False,expiration,inspiration
104,124.0,25,F,up,0.5777368999988539,1.7067092598584204,,psi_staircase,emotion,,113.48882902119232,113.48882902119232,12.873874669144561,544.002226999999,1004,23,female,True,5439,5445,False,False,expiration,trough
105,102.0,25,F,down,0.4374929000005068,1.94600680630498,,psi_staircase,emotion,,112.95004588875956,112.95004588875956,11.949207485375391,546.8854740000006,1004,23,female,True,5468,5472,False,False,expiration,inspiration
106,121.0,25,F,up,0.4792923999993946,1.4443657952730775,,psi_staircase,emotion,,113.41093093115092,113.41093093115092,11.080934616331014,549.1186999999992,1004,23,female,True,5490,5495,False,False,expiration,expiration
107,119.0,25,M,up,0.5173510999993596,0.852634390118078,,psi_staircase,emotion,,112.84785270561314,112.84785270561314,10.348701465195187,550.818656899999,1004,23,female,True,5507,5512,False,False,expiration,expiration
108,104.0,25,M,down,0.6634206000017002,1.9287123429247663,,psi_staircase,emotion,,112.28518119699771,112.28518119699771,9.72797541415632,553.6185272000001,1004,23,female,True,5535,5542,False,False,expiration,expiration
109,117.0,25,F,up,0.4528731000009429,1.4969385071832269,,psi_staircase,emotion,,112.69005682777002,112.69005682777002,9.07213080905078,556.1350899999999,1004,23,female,True,5561,5566,False,False,expiration,expiration
110,116.0,25,F,up,0.4172315000014351,0.7753370491472114,,psi_staircase,emotion,,112.09936041475771,112.09936041475771,8.552906081035006,557.7017352999992,1004,23,female,True,5576,5580,False,False,inspiration,peak
111,115.0,25,M,up,0.3668760000000475,0.8611508870011351,,psi_staircase,emotion,,111.54205941903429,111.54205941903429,8.064925830666189,559.3516158000001,1004,23,female,True,5593,5597,False,False,expiration,inspiration
112,115.0,25,M,up,0.4496959999996761,1.322739686352615,,psi_staircase,emotion,,111.01036615817098,111.01036615817098,7.595044839072265,561.4182927999991,1004,23,female,True,5613,5617,False,False,expiration,expiration
113,106.0,25,F,down,0.4917734999999084,1.3472451514495372,,psi_staircase,emotion,,110.5753048374203,110.5753048374203,7.104636173993102,563.5681731000004,1004,23,female,True,5635,5640,False,False,expiration,expiration
114,115.0,25,M,up,0.5972012000001996,0.3790388303116916,,psi_staircase,emotion,,110.95598709140988,110.95598709140988,6.53137016963894,564.7847934000001,1004,23,female,True,5647,5653,False,False,inspiration,peak
115,109.0,25,F,up,0.6558849000011833,0.8378893196014157,,psi_staircase,emotion,,110.60307740598695,110.60307740598695,6.032238878092174,566.5680725000002,1004,23,female,True,5665,5672,False,False,trough,inspiration
116,110.0,25,M,up,0.6603537999999389,1.9435882602105568,,psi_staircase,emotion,,109.71540879777399,109.71540879777399,6.53520998557376,569.5345818999995,1004,23,female,True,5695,5702,False,False,inspiration,expiration
117,110.0,25,F,down,1.030690499999764,1.1131300115940042,,psi_staircase,emotion,,109.07078071249997,109.07078071249997,6.241834525298884,571.6512853000004,1004,23,female,True,5716,5726,False,False,inspiration,expiration
118,104.0,25,M,down,0.6788350000006176,1.4671258907988232,,psi_staircase,emotion,,109.84806968407909,109.84806968407909,6.977739134291147,574.501123,1004,23,female,True,5744,5751,False,False,expiration,expiration
119,115.0,25,F,up,0.6146110000008775,1.1232324966920113,,psi_staircase,emotion,,110.08008249981556,110.08008249981556,6.478982851225887,576.6343393999996,1004,23,female,True,5765,5771,False,False,inspiration,expiration
120,115.0,25,M,up,0.42110020000109216,1.6863652440377863,,psi_staircase,emotion,,109.85160252292488,109.85160252292488,6.049707059966071,579.3009392999992,1004,23,female,True,5792,5796,False,False,expiration,expiration
121,105.0,25,M,up,0.4167899000003672,0.37723039839669903,,psi_staircase,emotion,,109.66701738839821,109.66701738839821,5.655183830510582,580.4675587999992,1004,23,female,True,5804,5808,False,False,trough,inspiration
122,101.0,25,F,down,0.5939629000004061,1.7497377273178183,,psi_staircase,emotion,,108.82917527725088,108.82917527725088,7.3987931050421825,582.9841178999994,1004,23,female,True,5829,5835,False,False,inspiration,inspiration
123,115.0,25,F,up,0.6525818000009167,1.3506996499781636,,psi_staircase,emotion,,109.01640505442239,109.01640505442239,6.97248343968237,585.2673701999993,1004,23,female,True,5852,5859,False,False,inspiration,inspiration
124,102.0,25,F,up,0.4170279000009032,0.5451007489251005,,psi_staircase,emotion,,108.84400376232355,108.84400376232355,6.629369201515683,586.8504415999996,1004,23,female,True,5868,5872,False,False,expiration,expiration
125,99.0,25,M,down,0.7020905999997922,0.5056565139424138,,psi_staircase,emotion,,107.93636677430844,107.93636677430844,8.623367441833247,588.1339052000002,1004,23,female,True,5880,5887,False,False,inspiration,expiration
126,99.0,25,M,down,0.6817842000000383,1.494461397225782,,psi_staircase,emotion,,108.14318649727501,108.14318649727501,8.17249087017895,590.6671809,1004,23,female,True,5906,5913,False,False,inspiration,expiration
127,100.0,25,F,up,0.5583274999989953,1.838259133069465,,psi_staircase,emotion,,108.30158933853608,108.30158933853608,7.807399509496339,593.533706799999,1004,23,female,True,5934,5940,False,False,expiration,expiration
128,96.0,25,F,down,0.5829594000006182,1.2201892150753844,,psi_staircase,emotion,,107.45366366912302,107.45366366912302,9.698678193392297,595.6669896999992,1004,23,female,True,5956,5962,False,False,peak,expiration
129,97.0,25,F,down,0.5250247000003583,0.8050548700461333,,psi_staircase,emotion,,107.62007183707694,107.62007183707694,9.289165853738073,597.4169292999994,1004,23,female,True,5973,5978,False,False,inspiration,inspiration
130,98.0,25,M,down,0.6110821000002034,0.7710030722988253,,psi_staircase,emotion,,107.76506794301834,107.76506794301834,8.937507792948676,599.0668624999997,1004,23,female,True,5990,5996,False,False,expiration,inspiration
131,116.0,25,M,up,0.5405042999991565,0.3678193582440715,,psi_staircase,emotion,,107.89735599184118,107.89735599184118,8.629415229767723,600.3834733999993,1004,23,female,True,6003,6008,False,False,expiration,expiration
132,116.0,25,M,up,0.7810516999998072,1.4749591464416285,,psi_staircase,emotion,,107.74095424800629,107.74095424800629,8.346162848208312,602.7499368999997,1004,23,female,True,6027,6035,False,False,expiration,expiration
133,0.29,25,up,up,0.5015984999990906,0.5345178856570447,,psi_staircase,cRDM,,0.25,0.25693124029946324,0.10500000000000002,630.2323720999992,1004,23,female,True,6301,6306,False,False,inspiration,expiration
134,0.25,25,up,up,0.423680300000342,1.0922403418398594,,psi_staircase,cRDM,,0.21910266653183127,0.2260132002683493,0.10468632033873933,632.0823005999991,1004,23,female,True,6320,6324,False,False,trough,inspiration
135,0.21,25,down,down,0.41681079999943904,0.5377794372888577,,psi_staircase,cRDM,,0.1900540959403307,0.19684979615540016,0.10294672984249993,633.2989321999994,1004,23,female,True,6332,6336,False,False,expiration,expiration
136,0.18,25,down,down,0.3505452999997942,0.8376835580839717,,psi_staircase,cRDM,,0.1635257589279754,0.1701521334256793,0.100381647756865,634.8155172000006,1004,23,female,True,6347,6351,False,False,trough,inspiration
137,0.15,25,up,up,0.3838376000003336,1.1474899629161326,,psi_staircase,cRDM,,0.14018955742449365,0.14660133511875031,0.0971307628663642,636.6487698000002,1004,23,female,True,6366,6370,False,False,expiration,expiration
138,0.13,25,down,down,0.3836079000011523,0.7235928007784349,,psi_staircase,cRDM,,0.11987606021454796,0.12605547676183335,0.09361076941961036,638.0490016000002,1004,23,female,True,6380,6384,False,False,inspiration,peak
139,0.11,25,up,up,0.4234519000001456,1.909096673071276,,psi_staircase,cRDM,,0.10257735236965487,0.10849103445698656,0.08958521019937955,640.6485919000006,1004,23,female,True,6406,6410,False,False,inspiration,inspiration
140,0.09,25,down,down,0.4487463000004937,0.7771642176682816,,psi_staircase,cRDM,,0.08784432595859408,0.09348182153209693,0.08540131486476357,642.1152473000002,1004,23,female,True,6420,6424,False,False,expiration,expiration
141,0.08,25,down,up,0.4227285999986634,1.9756699956883317,,psi_staircase,cRDM,,0.07518520921180863,0.0805556301471181,0.08135545354720439,644.8151672999992,1004,23,female,True,6447,6451,False,False,expiration,expiration
142,0.13,25,up,up,0.5258118000001559,0.8236770652495601,,psi_staircase,cRDM,,0.1145374077699418,0.12103712105675656,0.09846288191283688,646.3151216000006,1004,23,female,True,6462,6467,False,False,peak,expiration
143,0.13,25,down,down,0.4262972999986232,0.3834523555612169,,psi_staircase,cRDM,,0.1023941484636294,0.10857748278643099,0.09367011903258447,647.4817155000002,1004,23,female,True,6474,6478,False,False,expiration,trough
144,0.12,25,down,up,0.5542944000007992,1.6687476780461616,,psi_staircase,cRDM,,0.093157405715179,0.09896538803474302,0.08798398514641666,649.8316469000001,1004,23,female,True,6497,6503,False,False,expiration,expiration
145,0.16,25,down,down,0.4267706000009639,1.2980596845831882,,psi_staircase,cRDM,,0.1290085181734406,0.136602985232638,0.11504709211675675,651.9482575999991,1004,23,female,True,6519,6523,False,False,expiration,expiration
146,0.16,25,up,up,0.4491560000005848,1.5426070746535714,,psi_staircase,cRDM,,0.1173317507949223,0.12465379317969215,0.1109201841494908,654.1648079999994,1004,23,female,True,6541,6545,False,False,peak,expiration
147,0.15,25,up,up,0.4167663999996876,1.1047906349686558,,psi_staircase,cRDM,,0.10843366749217152,0.11543044405032805,0.10599279593052408,655.9814124000004,1004,23,female,True,6559,6563,False,False,inspiration,inspiration
148,0.15,25,down,down,0.4167788000013388,0.438931863089252,,psi_staircase,cRDM,,0.1014971773031524,0.1081597895223434,0.10093060589303612,657.0980349999992,1004,23,female,True,6570,6574,False,False,expiration,expiration
149,0.11,25,down,down,0.5526563999992504,1.3980720530832418,,psi_staircase,cRDM,,0.09641487432826414,0.10272252648508563,0.09555338551998348,659.1813220000004,1004,23,female,True,6591,6597,False,False,expiration,expiration
150,0.1,25,up,down,0.4490189999996801,1.7982271599886217,,psi_staircase,cRDM,,0.08870233734971507,0.09524749008499006,0.09915123520635856,661.7978987000006,1004,23,female,True,6617,6621,False,False,expiration,expiration
151,0.15,25,up,up,0.41667969999980414,0.4124108794175073,,psi_staircase,cRDM,,0.1092556470532275,0.11506203602639455,0.08795984785432323,662.9144866999994,1004,23,female,True,6628,6632,False,False,expiration,inspiration
152,0.15,25,up,down,0.36717309999949066,1.7526254516917534,,psi_staircase,cRDM,,0.10548339047951576,0.11088058485759744,0.08176103918117777,665.3477067000002,1004,23,female,True,6653,6657,False,False,expiration,inspiration
153,0.17,25,up,down,0.5996033999999781,0.4020914076965692,,psi_staircase,cRDM,,0.1238914711311642,0.1321936714629761,0.12576840466889516,666.4143712999994,1004,23,female,True,6663,6669,False,False,inspiration,expiration
154,0.24,25,down,down,0.4002517000008083,0.8929208486301548,,psi_staircase,cRDM,,0.15797444488326565,0.16757418848095673,0.14542463314042356,668.1642921999992,1004,23,female,True,6681,6685,False,False,trough,inspiration
155,0.22,25,down,down,0.3172448000004806,0.4815008533473454,,psi_staircase,cRDM,,0.1476439359743169,0.15712479503681356,0.14362367463139794,669.3308560000005,1004,23,female,True,6693,6696,False,False,expiration,expiration
156,0.2,25,down,up,0.5624738999995316,0.8924654970730266,,psi_staircase,cRDM,,0.13876083919511786,0.14811027823076667,0.1416328184176715,670.8975272999996,1004,23,female,True,6708,6714,False,False,inspiration,inspiration
157,0.27,25,up,up,0.3670877000004111,0.5230731599081183,,psi_staircase,cRDM,,0.17462219502165735,0.18453075444019526,0.15010282344806958,672.2475211000002,1004,23,female,True,6722,6726,False,False,expiration,expiration
158,0.25,25,up,down,0.4275692999999592,1.7242456944349283,,psi_staircase,cRDM,,0.16523004221851315,0.17502571701576272,0.14839275645815508,674.6474044999994,1004,23,female,True,6746,6750,False,False,expiration,expiration
159,0.31,25,down,down,0.40025149999928544,0.9648645039389674,,psi_staircase,cRDM,,0.2079968693443584,0.2184470139653013,0.15830719146816716,676.2973251999992,1004,23,female,True,6762,6766,False,False,inspiration,peak
160,0.3,25,down,down,0.43201349999981176,1.6398073299153941,,psi_staircase,cRDM,,0.19700828363161949,0.20741215407097466,0.15760619296619788,678.6139002,1004,23,female,True,6785,6789,False,False,inspiration,inspiration
161,0.28,25,up,up,0.5428341999995611,1.1399536692531378,,psi_staircase,cRDM,,0.18766297146067076,0.1979881598575933,0.15641425413584667,680.4471238000006,1004,23,female,True,6804,6809,False,False,expiration,inspiration
162,0.24,25,up,up,0.4975529000003007,1.4588989628796845,,psi_staircase,cRDM,,0.1792200431795382,0.18946319641925952,0.15517151962745018,682.7304052000001,1004,23,female,True,6826,6831,False,False,expiration,trough
163,0.24,25,down,down,0.42122589999962656,0.5702642091158008,,psi_staircase,cRDM,,0.1704409195945981,0.1806842774684364,0.15517461958955764,684.063730599999,1004,23,female,True,6840,6844,False,False,inspiration,expiration
164,0.24,25,up,up,0.38405690000035975,1.1975795933589355,,psi_staircase,cRDM,,0.16284340757562726,0.17305237894135295,0.15465370512175264,685.9636637999993,1004,23,female,True,6859,6863,False,False,inspiration,inspiration
165,0.23,25,down,down,0.33380380000016885,0.8208472574941985,,psi_staircase,cRDM,,0.156250776463597,0.16640148625660514,0.15377111198242369,687.4635859999999,1004,23,female,True,6874,6877,False,False,expiration,expiration
166,0.19,25,up,up,0.4969920000003185,1.4087895220374005,,psi_staircase,cRDM,,0.15018120933043114,0.16027582859250464,0.15292140752929834,689.5468870000003,1004,23,female,True,6895,6900,False,False,expiration,expiration
167,0.19,25,down,down,0.3505189000006794,1.456179769761048,,psi_staircase,cRDM,,0.14353965660027052,0.15367281474420158,0.1535052254926373,691.7800816999987,1004,23,female,True,6917,6921,False,False,inspiration,expiration
168,0.19,25,up,up,0.416757900000448,0.5977698018525562,,psi_staircase,cRDM,,0.13751551611350926,0.14766012114110422,0.1536786320883951,693.0633908,1004,23,female,True,6930,6934,False,False,expiration,inspiration
169,0.19,25,down,down,0.6745938000003662,1.1370199448147171,,psi_staircase,cRDM,,0.13203930880046505,0.14217521748086154,0.15354689283014014,694.8633245000002,1004,23,female,True,6948,6955,False,False,expiration,expiration
170,0.19,25,up,up,0.3671569999987696,0.8251117276290112,,psi_staircase,cRDM,,0.12704680484375858,0.13715885074401812,0.15318540025361307,696.6299075999997,1004,23,female,True,6966,6970,False,False,inspiration,expiration
171,0.18,25,up,up,0.4970809000005829,0.6693040129346615,,psi_staircase,cRDM,,0.1224818233897792,0.13255829972107025,0.15264656382891367,697.9798539999992,1004,23,female,True,6979,6984,False,False,expiration,inspiration
172,0.19,25,down,down,0.38382149999961257,1.5828115568089125,,psi_staircase,cRDM,,0.11805091130265695,0.12809985288698186,0.15222944534700686,700.3297629999997,1004,23,female,True,7002,7006,False,False,expiration,expiration
173,0.16,25,down,down,0.4002555000006396,0.8091763099865914,,psi_staircase,cRDM,,0.11420457623989333,0.12420021867279946,0.15142202695474505,701.8130316999997,1004,23,female,True,7017,7021,False,False,inspiration,expiration
174,0.17,25,down,up,0.4171003000010387,0.3361744179743173,,psi_staircase,cRDM,,0.10993108817041283,0.1199232974656344,0.15137001902523994,702.8296611000004,1004,23,female,True,7027,7031,False,False,expiration,expiration
175,0.22,25,up,up,0.4002385000003415,1.067807973366738,,psi_staircase,cRDM,,0.12583896181250334,0.1359860157990378,0.1537157308871002,704.5796073000001,1004,23,female,True,7045,7049,False,False,expiration,expiration
176,0.16,25,up,up,0.5454377999994904,1.2646621606586042,,psi_staircase,cRDM,,0.1225910458396539,0.13266606273815384,0.15262445516777354,706.5295210999992,1004,23,female,True,7064,7069,False,False,inspiration,expiration
177,0.15,25,down,down,0.7381602999994357,1.6204742297102843,,psi_staircase,cRDM,,0.11819958435907214,0.1283069595527937,0.15311464463624844,708.9627946,1004,23,female,True,7089,7096,False,False,inspiration,expiration
178,0.16,25,down,down,0.3838171000006696,0.956867118099249,,psi_staircase,cRDM,,0.11387072183498274,0.12401795533817568,0.15371845034975376,710.9127215999997,1004,23,female,True,7108,7112,False,False,inspiration,inspiration
179,0.21,25,down,down,0.431324000001041,1.9266177835403613,,psi_staircase,cRDM,,0.10998060038434317,0.12013730556105005,0.1538619348743119,713.5126306999991,1004,23,female,True,7134,7138,False,False,inspiration,inspiration
180,0.15,25,up,up,0.5113994000003004,0.32388933763588434,,psi_staircase,cRDM,,0.10735377488409842,0.11744505087228525,0.152870760928844,714.5125804999989,1004,23,female,True,7144,7149,False,False,expiration,expiration
181,0.16,25,up,down,0.43183289999979024,0.7558513534731006,,psi_staircase,cRDM,,0.10365706999154227,0.11376657945278633,0.15314697623639256,716.0461156999991,1004,23,female,True,7160,7164,False,False,inspiration,inspiration
182,0.23,25,up,up,0.3841621000010491,0.7238203394804714,,psi_staircase,cRDM,,0.11710000515627295,0.127242657627525,0.15364905319527486,717.4624652999993,1004,23,female,True,7174,7178,False,False,expiration,expiration
183,110.0,25,F,down,0.6352939999997034,0.8060466157796324,,experiment,emotion,0.0,,,,740.4616378999998,1004,23,female,True,7404,7410,False,False,expiration,inspiration
184,104.0,25,M,down,0.5007869000000937,1.1701339083564577,,experiment,emotion,0.0,,,,742.5451362999993,1004,23,female,True,7425,7430,False,False,expiration,expiration
185,108.0,25,F,down,0.473463799999081,1.6758894727856637,,experiment,emotion,0.0,,,,745.0114446999997,1004,23,female,True,7449,7454,False,False,expiration,expiration
186,110.0,25,M,down,0.4349360000014713,1.973060406878792,,experiment,emotion,0.0,,,,747.7279942000005,1004,23,female,True,7476,7480,False,False,expiration,expiration
187,108.0,25,F,down,0.4433117000007769,0.7536689068800662,,experiment,emotion,0.0,,,,749.1946349999997,1004,23,female,True,7491,7495,False,False,inspiration,inspiration
188,106.0,25,F,up,0.4426490999994712,1.1063463493775971,,experiment,emotion,0.0,,,,751.0112279999994,1004,23,female,True,7509,7513,False,False,expiration,expiration
189,104.0,25,M,down,0.5635289999991073,1.9595616150819517,,experiment,emotion,0.0,,,,753.6944592,1004,23,female,True,7536,7542,False,False,expiration,expiration
190,106.0,25,F,down,0.4002099999997881,1.296273425480364,,experiment,emotion,0.0,,,,755.827727599999,1004,23,female,True,7557,7561,False,False,expiration,expiration
191,110.0,25,M,down,0.4001852000001236,1.0626491051145641,,experiment,emotion,0.0,,,,757.5776538999999,1004,23,female,True,7575,7579,False,False,inspiration,inspiration
192,106.0,25,M,down,0.3834294000007503,1.4931439003765663,,experiment,emotion,0.0,,,,759.7609310999997,1004,23,female,True,7597,7601,False,False,inspiration,inspiration
193,108.0,25,F,up,0.6200910000006843,1.69909779848878,,experiment,emotion,0.0,,,,762.1608319999997,1004,23,female,True,7621,7627,False,False,inspiration,inspiration
194,110.0,25,M,down,0.5012334999992163,1.8541002228258925,,experiment,emotion,0.0,,,,764.910711999999,1004,23,female,True,7648,7653,False,False,inspiration,inspiration
195,108.0,25,M,down,0.43291860000135785,1.0146619205453251,,experiment,emotion,0.0,,,,766.6939815000004,1004,23,female,True,7666,7670,False,False,expiration,expiration
196,104.0,25,M,down,0.4680389999994077,1.9948126047225012,,experiment,emotion,0.0,,,,769.3938856999994,1004,23,female,True,7693,7698,False,False,expiration,expiration
197,106.0,25,F,down,0.4267290999996476,0.5225530025578842,,experiment,emotion,0.0,,,,770.6772366999994,1004,23,female,True,7706,7710,False,False,inspiration,peak
198,104.0,25,F,down,0.5445321000006516,1.3800945210258728,,experiment,emotion,0.0,,,,772.7604408999997,1004,23,female,True,7727,7732,False,False,inspiration,inspiration
199,110.0,25,M,down,0.3668298999982653,0.6274449057489753,,experiment,emotion,0.0,,,,774.1937053999991,1004,23,female,True,7741,7745,False,False,expiration,expiration
200,104.0,25,M,up,0.5063086999998632,1.408091489149327,,experiment,emotion,0.0,,,,776.2936329000003,1004,23,female,True,7762,7767,False,False,expiration,expiration
201,108.0,25,F,up,0.4165572000001703,0.9689001776543285,,experiment,emotion,0.0,,,,778.0438262999998,1004,23,female,True,7780,7784,False,False,inspiration,inspiration
202,108.0,25,F,up,0.41943840000021737,0.4642730950915456,,experiment,emotion,0.0,,,,779.1935336999995,1004,23,female,True,7791,7795,False,False,expiration,expiration
203,106.0,25,M,up,0.3835116999998718,0.5410138673139018,,experiment,emotion,0.0,,,,780.4101406999997,1004,23,female,True,7803,7807,False,False,inspiration,inspiration
204,106.0,25,F,up,0.41695869999966817,0.6447336393142916,,experiment,emotion,0.0,,,,781.7432790000003,1004,23,female,True,7817,7821,False,False,expiration,expiration
205,104.0,25,M,down,0.42622579999988375,0.5910915744892259,,experiment,emotion,0.0,,,,783.0266895999994,1004,23,female,True,7829,7833,False,False,inspiration,inspiration
206,110.0,25,F,up,0.5253247999989981,1.6063833671440582,,experiment,emotion,0.0,,,,785.3266036000005,1004,23,female,True,7852,7857,False,False,expiration,inspiration
207,108.0,25,F,up,0.429025499999625,1.8318984106522984,,experiment,emotion,0.0,,,,787.9598614000006,1004,23,female,True,7879,7883,False,False,expiration,inspiration
208,104.0,25,M,up,0.4167789999992237,1.1114133729281106,,experiment,emotion,0.0,,,,789.7598182000003,1004,23,female,True,7897,7901,False,False,expiration,expiration
209,110.0,25,M,up,0.4972027000003436,1.4032442148327229,,experiment,emotion,0.0,,,,791.8597171000001,1004,23,female,True,7918,7923,False,False,peak,expiration
210,110.0,25,F,down,0.6912943999996061,1.289067202221205,,experiment,emotion,0.0,,,,793.9096341000003,1004,23,female,True,7938,7945,False,False,inspiration,peak
211,106.0,25,M,down,0.7833303000006708,1.3862826532829482,,experiment,emotion,0.0,,,,796.2595646999997,1004,23,female,True,7962,7970,False,False,inspiration,expiration
212,104.0,25,F,down,0.4454322000001412,0.4025648214816187,,experiment,emotion,0.0,,,,797.7095007999997,1004,23,female,True,7976,7980,False,False,expiration,expiration
213,106.0,25,M,down,0.4860649000002013,0.32464189389581216,,experiment,emotion,0.0,,,,798.7428027999996,1004,23,female,True,7987,7992,False,False,inspiration,inspiration
214,108.0,25,F,down,0.4911816000003455,0.5962331823970921,,experiment,emotion,0.0,,,,800.0927682000001,1004,23,female,True,8000,8005,False,False,expiration,expiration
215,104.0,25,M,down,0.4262913999991724,1.741751604916788,,experiment,emotion,0.0,,,,802.5926435000001,1004,23,female,True,8025,8029,False,False,expiration,expiration
216,110.0,25,F,up,0.6249772999999549,1.3939489457221184,,experiment,emotion,0.0,,,,804.6759215000003,1004,23,female,True,8046,8052,False,False,expiration,expiration
217,108.0,25,M,up,0.7304727000009734,1.5282107796547195,,experiment,emotion,0.0,,,,807.0924811000003,1004,23,female,True,8070,8077,False,False,expiration,expiration
218,110.0,25,F,down,0.6412764999986393,1.9629731655702525,,experiment,emotion,0.0,,,,810.0426914999989,1004,23,female,True,8100,8106,False,False,expiration,expiration
219,104.0,25,M,down,0.6733053000007203,0.4807697856127911,,experiment,emotion,0.0,,,,811.4256411999995,1004,23,female,True,8113,8120,False,False,inspiration,inspiration
220,108.0,25,F,up,0.7787655000011,1.0687723984944384,,experiment,emotion,0.0,,,,813.4421464999997,1004,23,female,True,8134,8142,False,False,expiration,inspiration
221,106.0,25,M,down,1.0270889999992503,1.1941443926870174,,experiment,emotion,0.0,,,,815.7088277999992,1004,23,female,True,8156,8166,False,False,expiration,inspiration
222,106.0,25,F,down,0.6325077999990754,1.570998528424146,,experiment,emotion,0.0,,,,818.5754032999994,1004,23,female,True,8185,8191,False,False,expiration,inspiration
223,108.0,25,F,down,0.4812719000001379,0.7452024164165982,,experiment,emotion,0.0,,,,820.208645499999,1004,23,female,True,8201,8206,False,False,expiration,expiration
224,110.0,25,M,down,0.4929632999992464,1.2312423030032549,,experiment,emotion,0.0,,,,822.1919326000008,1004,23,female,True,8221,8226,False,False,inspiration,peak
225,106.0,25,F,down,0.5691707999994833,1.523720511853337,,experiment,emotion,0.0,,,,824.4918366999991,1004,23,female,True,8244,8250,False,False,inspiration,inspiration
226,104.0,25,M,down,0.4801602999996248,0.4517825009451693,,experiment,emotion,0.0,,,,825.7917877999989,1004,23,female,True,8257,8262,False,False,expiration,expiration
227,104.0,25,M,down,0.5572098000011465,1.730920481995062,,experiment,emotion,0.0,,,,828.2916994999997,1004,23,female,True,8282,8288,False,False,expiration,expiration
228,106.0,25,F,down,0.4167986000011297,1.4924310274782755,,experiment,emotion,0.0,,,,830.6082671999992,1004,23,female,True,8305,8309,False,False,expiration,expiration
229,110.0,25,F,down,0.41682480000054056,0.5621942245383835,,experiment,emotion,0.0,,,,831.8582187999999,1004,23,female,True,8318,8322,False,False,expiration,inspiration
230,108.0,25,M,down,0.4673616000000038,0.8278226824844057,,experiment,emotion,0.0,,,,833.3915436999997,1004,23,female,True,8333,8338,False,False,expiration,expiration
231,104.0,25,F,down,0.3668785000008937,1.0542098778722715,,experiment,emotion,0.0,,,,835.1747725000005,1004,23,female,True,8351,8355,False,False,inspiration,peak
232,110.0,25,M,down,0.2834898000000976,1.2002100868375702,,experiment,emotion,0.0,,,,837.0580611000005,1004,23,female,True,8370,8373,False,False,expiration,inspiration
233,108.0,25,M,down,0.4167749000007461,1.2850571307051042,,experiment,emotion,0.0,,,,839.0413083999993,1004,23,female,True,8390,8394,False,False,expiration,expiration
234,108.0,25,M,down,0.400197200000548,1.443624389462671,,experiment,emotion,0.0,,,,841.1745719999999,1004,23,female,True,8411,8415,False,False,expiration,expiration
235,104.0,25,M,down,0.4714084999995976,0.3943658100539599,,experiment,emotion,0.0,,,,842.2745309000003,1004,23,female,True,8422,8427,False,False,expiration,inspiration
236,106.0,25,M,down,0.4001839000011387,0.6918731435336182,,experiment,emotion,0.0,,,,843.7077893999996,1004,23,female,True,8436,8440,False,False,inspiration,expiration
237,110.0,25,F,up,0.5058721999994304,1.2566169112383525,,experiment,emotion,0.0,,,,845.6410809999996,1004,23,female,True,8456,8461,False,False,inspiration,inspiration
238,106.0,25,F,down,0.5199776999997994,1.966043110406892,,experiment,emotion,0.0,,,,848.3909333999999,1004,23,female,True,8483,8488,False,False,inspiration,inspiration
239,106.0,25,F,down,0.4170245999994222,1.563779557850343,,experiment,emotion,0.0,,,,850.740867999999,1004,23,female,True,8507,8511,False,False,trough,inspiration
240,106.0,25,M,down,0.7054434000001493,1.8741038797925,,experiment,emotion,0.0,,,,853.3074753999989,1004,23,female,True,8532,8539,False,False,expiration,inspiration
241,110.0,25,F,up,0.5168835999993462,1.460161055236632,,experiment,emotion,0.0,,,,855.7240729999994,1004,23,female,True,8557,8562,False,False,expiration,trough
242,108.0,25,F,down,0.5672441999995499,0.9143714854882644,,experiment,emotion,0.0,,,,857.4406378999993,1004,23,female,True,8574,8580,False,False,expiration,expiration
243,104.0,25,F,down,0.5226922999991075,0.8752680534127266,,experiment,emotion,0.0,,,,859.1572338999996,1004,23,female,True,8591,8596,False,False,inspiration,inspiration
244,104.0,25,M,down,0.3668281999998726,0.6652885912576391,,experiment,emotion,0.0,,,,860.6071876999995,1004,23,female,True,8605,8609,False,False,expiration,expiration
245,108.0,25,F,up,0.4894133999987389,0.8547748930110994,,experiment,emotion,0.0,,,,862.1404810000002,1004,23,female,True,8621,8626,False,False,inspiration,expiration
246,110.0,25,M,up,0.6545418000005157,1.6798925121775254,,experiment,emotion,0.0,,,,864.5903572999997,1004,23,female,True,8645,8652,False,False,inspiration,expiration
247,110.0,25,M,up,0.6742190000004484,0.5686529468799826,,experiment,emotion,0.0,,,,866.0736281999997,1004,23,female,True,8660,8667,False,False,expiration,inspiration
248,104.0,25,F,up,0.9066944000005606,1.419446759974584,,experiment,emotion,0.0,,,,868.4402219999993,1004,23,female,True,8684,8693,False,False,expiration,inspiration
249,110.0,25,M,up,0.5334591999999247,0.3506094267746399,,experiment,emotion,0.0,,,,869.9734795999992,1004,23,female,True,8699,8704,False,False,expiration,expiration
250,106.0,25,F,down,0.5091500999988057,0.9607005889872162,,experiment,emotion,0.0,,,,871.7567600000003,1004,23,female,True,8717,8722,False,False,inspiration,inspiration
251,108.0,25,M,up,0.4166475999991235,1.0718322565627214,,experiment,emotion,0.0,,,,873.606679999999,1004,23,female,True,8735,8739,False,False,expiration,inspiration
252,106.0,25,F,down,0.573953300001449,1.7505222722647784,,experiment,emotion,0.0,,,,876.0399450999994,1004,23,female,True,8760,8766,False,False,expiration,inspiration
253,104.0,25,M,down,0.4670968000009452,1.665270181875372,,experiment,emotion,0.0,,,,878.5398401000003,1004,23,female,True,8785,8790,False,False,expiration,trough
254,108.0,25,F,down,0.4167952999996487,1.994026351809327,,experiment,emotion,0.0,,,,881.2730683999997,1004,23,female,True,8812,8816,False,False,expiration,expiration
255,106.0,25,F,up,0.5879014000001916,1.0550374891577379,,experiment,emotion,0.0,,,,883.0229977999987,1004,23,female,True,8830,8836,False,False,expiration,expiration
256,108.0,25,F,down,0.5414201999992656,0.6594591737790141,,experiment,emotion,0.0,,,,884.5394823000006,1004,23,female,True,8845,8850,False,False,inspiration,inspiration
257,104.0,25,F,up,0.4002048000002105,0.8710610358489965,,experiment,emotion,0.0,,,,886.2228698999987,1004,23,female,True,8861,8865,False,False,expiration,expiration
258,110.0,25,F,up,0.4537990999997419,1.8973165359190076,,experiment,emotion,0.0,,,,888.8061066999999,1004,23,female,True,8887,8892,False,False,expiration,expiration
259,108.0,25,M,up,0.4270030999996379,0.3747174428377986,,experiment,emotion,0.0,,,,889.9060862000006,1004,23,female,True,8898,8902,False,False,inspiration,inspiration
260,110.0,25,M,up,0.3335193999992043,0.4180899023273085,,experiment,emotion,0.0,,,,891.0227080999994,1004,23,female,True,8909,8912,False,False,expiration,expiration
261,104.0,25,M,down,0.8919411999995646,1.8905151053913858,,experiment,emotion,0.0,,,,893.6059533999997,1004,23,female,True,8935,8944,False,False,expiration,expiration
262,106.0,25,M,down,0.636384999999791,1.8396659551790564,,experiment,emotion,0.0,,,,896.6224834000003,1004,23,female,True,8965,8971,False,False,expiration,expiration
263,0.11480912206039907,25,up,down,0.547222299999703,0.5662137962243721,,experiment,cRDM,0.0,,,,928.7546748000003,1004,23,female,True,9287,9292,False,False,inspiration,expiration
264,0.11480912206039907,25,up,up,0.4506805000000895,1.0145799481454254,,experiment,cRDM,0.0,,,,930.571242,1004,23,female,True,9305,9310,False,False,expiration,inspiration
265,0.11480912206039907,25,down,down,0.4002549000015279,1.6258672141626718,,experiment,cRDM,0.0,,,,932.904488,1004,23,female,True,9328,9332,False,False,expiration,expiration
266,0.11480912206039907,25,down,up,0.4195579000006546,0.5221486671648263,,experiment,cRDM,0.0,,,,934.1044440999997,1004,23,female,True,9340,9344,False,False,inspiration,inspiration
267,0.11480912206039907,25,up,up,0.4002504000000045,0.9322669707659972,,experiment,cRDM,0.0,,,,935.7043978999992,1004,23,female,True,9356,9360,False,False,expiration,expiration
268,0.11480912206039907,25,down,down,0.3838747999998304,0.4557589327090014,,experiment,cRDM,0.0,,,,936.8376143999994,1004,23,female,True,9368,9372,False,False,inspiration,inspiration
269,0.11480912206039907,25,up,up,0.6023948000001837,0.321537503910226,,experiment,cRDM,0.0,,,,937.8375674999987,1004,23,female,True,9378,9384,False,False,expiration,expiration
270,0.11480912206039907,25,up,down,0.3171483000005537,0.5532329228490063,,experiment,cRDM,0.0,,,,939.2542892999992,1004,23,female,True,9392,9395,False,False,expiration,inspiration
271,0.11480912206039907,25,down,down,0.5410366000014619,0.4959872154447572,,experiment,cRDM,0.0,,,,940.4208662999989,1004,23,female,True,9403,9408,False,False,inspiration,expiration
272,0.11480912206039907,25,down,down,0.3838402000001224,1.6279919028126244,,experiment,cRDM,0.0,,,,942.8541451,1004,23,female,True,9428,9432,False,False,inspiration,expiration
273,0.11480912206039907,25,down,down,0.3673179999987042,0.7433814954491036,,experiment,cRDM,0.0,,,,944.2874078000003,1004,23,female,True,9442,9446,False,False,expiration,trough
274,0.11480912206039907,25,down,down,0.4428373999999167,1.2148127797598292,,experiment,cRDM,0.0,,,,946.1873106999992,1004,23,female,True,9461,9465,False,False,expiration,expiration
275,0.11480912206039907,25,down,down,0.3504942999988998,0.6828895177395427,,experiment,cRDM,0.0,,,,947.5706228,1004,23,female,True,9475,9479,False,False,inspiration,inspiration
276,0.11480912206039907,25,down,down,0.36717139999927895,0.4493408718025719,,experiment,cRDM,0.0,,,,948.7039069000003,1004,23,female,True,9486,9490,False,False,expiration,expiration
277,0.11480912206039907,25,up,down,0.40025969999987865,1.754301119814142,,experiment,cRDM,0.0,,,,951.1370109999988,1004,23,female,True,9511,9515,False,False,inspiration,expiration
278,0.11480912206039907,25,up,up,0.9594987999989826,1.7572344250655765,,experiment,cRDM,0.0,,,,953.5703947999992,1004,23,female,True,9535,9545,False,False,inspiration,expiration
279,0.11480912206039907,25,up,down,0.4969216999998025,1.9998493488324431,,experiment,cRDM,0.0,,,,956.7869441999992,1004,23,female,True,9567,9572,False,False,expiration,expiration
280,0.11480912206039907,25,up,down,0.6678442000011273,1.2157609921863992,,experiment,cRDM,0.0,,,,958.7702090999992,1004,23,female,True,9587,9594,False,False,inspiration,expiration
281,0.11480912206039907,25,down,down,0.7244558000002144,1.8634871890655589,,experiment,cRDM,0.0,,,,961.5534544999992,1004,23,female,True,9615,9622,False,False,expiration,expiration
282,0.11480912206039907,25,up,up,0.6372670000000653,1.8841385639462027,,experiment,cRDM,0.0,,,,964.436592099999,1004,23,female,True,9644,9650,False,False,expiration,expiration
283,0.11480912206039907,25,up,down,0.4594625999998243,1.5101611263000971,,experiment,cRDM,0.0,,,,966.8364780999999,1004,23,female,True,9668,9673,False,False,expiration,expiration
284,0.11480912206039907,25,down,down,0.4416655000004539,0.7984607558032331,,experiment,cRDM,0.0,,,,968.3532185000003,1004,23,female,True,9683,9687,False,False,inspiration,inspiration
285,0.11480912206039907,25,up,up,0.6071158999984618,1.8115922380893137,,experiment,cRDM,0.0,,,,970.8697620000003,1004,23,female,True,9708,9714,False,False,expiration,inspiration
286,0.11480912206039907,25,down,down,0.5552012999996805,0.977150372421463,,experiment,cRDM,0.0,,,,972.7196611,1004,23,female,True,9726,9732,False,False,expiration,expiration
287,0.11480912206039907,25,down,down,0.6653072000008251,1.5834351855657056,,experiment,cRDM,0.0,,,,975.1195917000003,1004,23,female,True,9750,9757,False,False,expiration,expiration
288,0.11480912206039907,25,up,up,0.498087599999053,1.046318450978314,,experiment,cRDM,0.0,,,,977.1028389999992,1004,23,female,True,9770,9775,False,False,inspiration,peak
289,0.11480912206039907,25,up,up,0.6661635000000388,1.4348738728042598,,experiment,cRDM,0.0,,,,979.3027781999989,1004,23,female,True,9792,9799,False,False,inspiration,inspiration
290,0.11480912206039907,25,down,down,0.4728520999997272,1.2544031092258083,,experiment,cRDM,0.0,,,,981.4860597000006,1004,23,female,True,9814,9819,False,False,inspiration,inspiration
291,0.11480912206039907,25,up,down,0.6036012999993545,1.5468863548805123,,experiment,cRDM,0.0,,,,983.7692769000002,1004,23,female,True,9837,9843,False,False,expiration,inspiration
292,0.11480912206039907,25,down,down,0.3671274999996968,0.4908923420853055,,experiment,cRDM,0.0,,,,985.1359125,1004,23,female,True,9851,9855,False,False,inspiration,expiration
293,0.11480912206039907,25,down,down,0.4002780000009807,1.8759027747979813,,experiment,cRDM,0.0,,,,987.6858037000003,1004,23,female,True,9876,9880,False,False,inspiration,inspiration
294,0.11480912206039907,25,down,down,0.4501565999999002,0.8169151815721478,,experiment,cRDM,0.0,,,,989.1857381999997,1004,23,female,True,9891,9896,False,False,expiration,expiration
295,0.11480912206039907,25,up,up,0.5122377000006963,0.8827689776860548,,experiment,cRDM,0.0,,,,990.7856971999989,1004,23,female,True,9907,9912,False,False,peak,expiration
296,0.11480912206039907,25,up,up,0.5455505999998422,0.7523601096863431,,experiment,cRDM,0.0,,,,992.3023214000003,1004,23,female,True,9922,9927,False,False,trough,inspiration
297,0.11480912206039907,25,up,up,0.5889739000012923,0.7204935624415127,,experiment,cRDM,0.0,,,,993.8188974000003,1004,23,female,True,9937,9943,False,False,expiration,expiration
298,0.11480912206039907,25,down,down,0.4497439000006125,1.371412533176687,,experiment,cRDM,0.0,,,,996.0521585000006,1004,23,female,True,9960,9964,False,False,expiration,expiration
299,0.11480912206039907,25,down,down,0.38389189999907103,0.7809508677677468,,experiment,cRDM,0.0,,,,997.5520717,1004,23,female,True,9975,9979,False,False,inspiration,inspiration
300,0.11480912206039907,25,up,down,0.3672034999999596,0.6492336962974445,,experiment,cRDM,0.0,,,,998.8853780999997,1004,23,female,True,9988,9992,False,False,expiration,expiration
301,0.11480912206039907,25,down,down,0.7545504999998229,1.228717591375989,,experiment,cRDM,0.0,,,,1000.7853200999997,1004,23,female,True,10007,10015,False,False,inspiration,expiration
302,0.11480912206039907,25,up,up,0.4483045999986643,0.4096868882057849,,experiment,cRDM,0.0,,,,1002.2185977999997,1004,23,female,True,10021,10025,False,False,expiration,inspiration
303,0.11480912206039907,25,up,up,0.42097079999984993,0.9756947231887474,,experiment,cRDM,0.0,,,,1003.9018825000003,1004,23,female,True,10038,10042,False,False,expiration,expiration
304,0.11480912206039907,25,up,up,0.5844701999994868,1.3119619397520237,,experiment,cRDM,0.0,,,,1005.9184394999992,1004,23,female,True,10058,10064,False,False,inspiration,expiration
305,0.11480912206039907,25,down,up,0.6840847999992548,1.2751428834075142,,experiment,cRDM,0.0,,,,1008.0517311999993,1004,23,female,True,10080,10087,False,False,inspiration,expiration
306,0.11480912206039907,25,down,up,1.0032217999996649,0.8665458339282901,,experiment,cRDM,0.0,,,,1009.8516545000003,1004,23,female,True,10098,10108,False,False,expiration,inspiration
307,0.11480912206039907,25,up,up,0.4564761999990878,0.5287435987858142,,experiment,cRDM,0.0,,,,1011.6515736,1004,23,female,True,10116,10121,False,False,expiration,expiration
308,0.11480912206039907,25,down,up,0.6683438999989448,1.7917213556513492,,experiment,cRDM,0.0,,,,1014.1514912000004,1004,23,female,True,10141,10148,False,False,expiration,expiration
309,0.11480912206039907,25,down,down,0.5077290000008361,1.1297982890705034,,experiment,cRDM,0.0,,,,1016.218094599999,1004,23,female,True,10162,10167,False,False,inspiration,expiration
310,0.11480912206039907,25,up,down,0.41682780000155617,1.8089832764977143,,experiment,cRDM,0.0,,,,1018.8013047000003,1004,23,female,True,10187,10191,False,False,inspiration,expiration
311,0.11480912206039907,25,up,down,0.3338298999988183,1.86186907602868,,experiment,cRDM,0.0,,,,1021.3345324999992,1004,23,female,True,10213,10216,False,False,inspiration,expiration
312,0.11480912206039907,25,down,down,0.6910855999994965,0.8048541686866253,,experiment,cRDM,0.0,,,,1022.8178155000003,1004,23,female,True,10227,10234,False,False,expiration,inspiration
313,0.11480912206039907,25,up,up,0.5194658000000345,1.4278505217493584,,experiment,cRDM,0.0,,,,1025.1844027000006,1004,23,female,True,10251,10256,False,False,expiration,expiration
314,0.11480912206039907,25,down,down,0.7025639000003139,1.9264185176174216,,experiment,cRDM,0.0,,,,1027.8843091,1004,23,female,True,10278,10285,False,False,expiration,trough
315,0.11480912206039907,25,down,up,0.5183144000002358,0.8704513063833113,,experiment,cRDM,0.0,,,,1029.7175833,1004,23,female,True,10296,10301,False,False,expiration,expiration
316,0.11480912206039907,25,down,up,0.5069743000003655,1.3446469060273345,,experiment,cRDM,0.0,,,,1031.8508476999998,1004,23,female,True,10318,10323,False,False,inspiration,expiration
317,0.11480912206039907,25,up,up,0.5714738999995461,1.8832100671083327,,experiment,cRDM,0.0,,,,1034.517386399999,1004,23,female,True,10345,10351,False,False,inspiration,expiration
318,0.11480912206039907,25,up,up,0.7068588999991334,1.6285876691936445,,experiment,cRDM,0.0,,,,1036.9839845000006,1004,23,female,True,10369,10376,False,False,inspiration,expiration
319,0.11480912206039907,25,down,up,0.5699619999995775,1.1972774611865118,,experiment,cRDM,0.0,,,,1039.1339024999997,1004,23,female,True,10391,10397,False,False,inspiration,inspiration
320,0.11480912206039907,25,down,down,0.5840298000002804,1.480077487581821,,experiment,cRDM,0.0,,,,1041.4338415000002,1004,23,female,True,10414,10420,False,False,inspiration,inspiration
321,0.11480912206039907,25,up,down,0.3838455999994039,0.6715513334386276,,experiment,cRDM,0.0,,,,1042.9504070000003,1004,23,female,True,10429,10433,False,False,expiration,expiration
322,0.11480912206039907,25,up,up,0.4167768999996042,1.5176063931411252,,experiment,cRDM,0.0,,,,1045.1337086000003,1004,23,female,True,10451,10455,False,False,expiration,expiration
323,0.11480912206039907,25,up,up,0.765602299999955,1.4557958453170825,,experiment,cRDM,0.0,,,,1047.2502759999988,1004,23,female,True,10472,10480,False,False,inspiration,expiration
324,0.11480912206039907,25,up,up,0.4683483999997407,1.1972385809853408,,experiment,cRDM,0.0,,,,1049.4834984999998,1004,23,female,True,10494,10499,False,False,inspiration,inspiration
325,0.11480912206039907,25,up,up,0.5144927999990614,0.6156869001605656,,experiment,cRDM,0.0,,,,1050.8334161999992,1004,23,female,True,10508,10513,False,False,expiration,expiration
326,0.11480912206039907,25,down,down,0.6851650999997219,1.8647057694680065,,experiment,cRDM,0.0,,,,1053.4666961999992,1004,23,female,True,10534,10541,False,False,expiration,expiration
327,0.11480912206039907,25,down,up,0.7059601999990264,1.6743463138544104,,experiment,cRDM,0.0,,,,1056.0999264000004,1004,23,female,True,10560,10567,False,False,expiration,expiration
328,0.11480912206039907,25,up,up,0.7326956999986578,1.423642066516657,,experiment,cRDM,0.0,,,,1058.4831658000003,1004,23,female,True,10584,10591,False,False,expiration,expiration
329,0.11480912206039907,25,down,down,0.4537235000007058,0.5518074571702031,,experiment,cRDM,0.0,,,,1060.0331379000002,1004,23,female,True,10600,10605,False,False,inspiration,inspiration
330,0.11480912206039907,25,down,up,0.557728900001166,1.2654759022518949,,experiment,cRDM,0.0,,,,1062.0161594999988,1004,23,female,True,10620,10626,False,False,expiration,trough
331,0.11480912206039907,25,down,down,0.3838598999991518,1.9178064232792515,,experiment,cRDM,0.0,,,,1064.7496047000004,1004,23,female,True,10647,10651,False,False,expiration,expiration
332,0.11480912206039907,25,up,up,0.5969433000009303,0.3889421866727788,,experiment,cRDM,0.0,,,,1065.8329371,1004,23,female,True,10658,10664,False,False,inspiration,peak
333,0.11480912206039907,25,down,down,0.5527321999998094,1.7637435659779208,,experiment,cRDM,0.0,,,,1068.4661211000002,1004,23,female,True,10684,10690,False,False,inspiration,inspiration
334,0.11480912206039907,25,down,up,0.6728020999998989,1.3846698447152506,,experiment,cRDM,0.0,,,,1070.6660644999993,1004,23,female,True,10706,10713,False,False,expiration,inspiration
335,0.11480912206039907,25,down,down,0.5805634000007558,1.460289709999932,,experiment,cRDM,0.0,,,,1073.0492909999994,1004,23,female,True,10730,10736,False,False,expiration,trough
336,0.11480912206039907,25,up,up,0.4189549999991869,1.7409334166399144,,experiment,cRDM,0.0,,,,1075.615900499999,1004,23,female,True,10756,10760,False,False,expiration,expiration
337,0.11480912206039907,25,up,down,0.4003732999990461,1.7294752511176927,,experiment,cRDM,0.0,,,,1078.0323952,1004,23,female,True,10780,10784,False,False,expiration,expiration
338,0.11480912206039907,25,down,down,0.4168449999997392,1.8774233501376298,,experiment,cRDM,0.0,,,,1080.5823459000003,1004,23,female,True,10805,10809,False,False,expiration,expiration
339,0.11480912206039907,25,up,up,0.438841199998933,1.9174567910608844,,experiment,cRDM,0.0,,,,1083.1822584,1004,23,female,True,10831,10835,False,False,expiration,expiration
340,0.11480912206039907,25,down,down,0.4167998000011721,1.0068009786641636,,experiment,cRDM,0.0,,,,1084.8822,1004,23,female,True,10848,10852,False,False,inspiration,peak
341,0.11480912206039907,25,up,up,0.400264400001106,1.4129822389302416,,experiment,cRDM,0.0,,,,1086.9821140000004,1004,23,female,True,10869,10873,False,False,inspiration,inspiration
342,0.11480912206039907,25,up,down,0.4169133999985206,0.3713335384801822,,experiment,cRDM,0.0,,,,1088.0319944999992,1004,23,female,True,10880,10884,False,False,expiration,expiration
343,110.0,25,M,down,0.4525964000004024,1.3687878464209728,,experiment,emotion,1.0,,,,1144.1633481999995,1004,23,female,True,11441,11446,False,False,expiration,expiration
344,104.0,25,M,down,0.4169303000016953,1.3306469848191222,,experiment,emotion,1.0,,,,1146.2298838000004,1004,23,female,True,11462,11466,False,False,expiration,expiration
345,108.0,25,F,down,0.4359395999999833,0.8573474758370812,,experiment,emotion,1.0,,,,1147.7798839999996,1004,23,female,True,11477,11481,False,False,inspiration,inspiration
346,110.0,25,F,up,0.5010672000007617,1.2930599018877866,,experiment,emotion,1.0,,,,1149.7798041000005,1004,23,female,True,11497,11502,False,False,expiration,expiration
347,108.0,25,M,up,0.4608431999986351,1.9609470171620225,,experiment,emotion,1.0,,,,1152.5130054999988,1004,23,female,True,11524,11529,False,False,expiration,expiration
348,106.0,25,F,up,0.4485893000000942,0.4005703300832235,,experiment,emotion,1.0,,,,1153.6463130999998,1004,23,female,True,11536,11540,False,False,inspiration,inspiration
349,104.0,25,M,down,0.6005972000002657,1.1931816573151777,,experiment,emotion,1.0,,,,1155.5462387999996,1004,23,female,True,11555,11561,False,False,expiration,expiration
350,106.0,25,M,down,0.4536799999987125,1.0713218428526812,,experiment,emotion,1.0,,,,1157.496164799999,1004,23,female,True,11574,11579,False,False,peak,expiration
351,110.0,25,F,down,0.5161012999997183,1.937202097715209,,experiment,emotion,1.0,,,,1160.1627470999993,1004,23,female,True,11601,11606,False,False,inspiration,expiration
352,106.0,25,F,down,0.7418263999988994,1.3926756977422363,,experiment,emotion,1.0,,,,1162.3459968999996,1004,23,female,True,11623,11630,False,False,expiration,inspiration
353,108.0,25,F,down,0.4735677000007854,0.9291452383192778,,experiment,emotion,1.0,,,,1164.2792721999995,1004,23,female,True,11642,11647,False,False,expiration,expiration
354,110.0,25,F,down,0.4306245000007039,1.0049755610624167,,experiment,emotion,1.0,,,,1166.0291980000004,1004,23,female,True,11660,11664,False,False,inspiration,peak
355,108.0,25,F,down,0.5786939000008715,0.5918877901139304,,experiment,emotion,1.0,,,,1167.3291455,1004,23,female,True,11673,11679,False,False,expiration,expiration
356,104.0,25,F,down,0.5895651999999245,1.523078241154659,,experiment,emotion,1.0,,,,1169.7123095999996,1004,23,female,True,11697,11703,False,False,expiration,expiration
357,106.0,25,M,up,0.5288729999992938,1.7552992821061548,,experiment,emotion,1.0,,,,1172.3289583000005,1004,23,female,True,11723,11728,False,False,expiration,expiration
358,104.0,25,M,down,0.5009815000012168,0.8971815131699046,,experiment,emotion,1.0,,,,1174.0289035999995,1004,23,female,True,11740,11745,False,False,inspiration,inspiration
359,110.0,25,M,down,0.4273608000003151,0.8378496872039862,,experiment,emotion,1.0,,,,1175.6455012000004,1004,23,female,True,11756,11760,False,False,expiration,expiration
360,104.0,25,M,up,0.5360040999985358,1.2917878680529629,,experiment,emotion,1.0,,,,1177.6288382999992,1004,23,female,True,11776,11781,False,False,expiration,expiration
361,108.0,25,F,up,0.5431752999993478,1.9497545254146835,,experiment,emotion,1.0,,,,1180.3786612999993,1004,23,female,True,11803,11808,False,False,expiration,expiration
362,108.0,25,M,down,0.3668576999989455,1.6017554032788273,,experiment,emotion,1.0,,,,1182.7785693999995,1004,23,female,True,11827,11831,False,False,inspiration,expiration
363,106.0,25,M,down,0.503326999998535,1.3008175191913536,,experiment,emotion,1.0,,,,1184.7785033,1004,23,female,True,11847,11852,False,False,inspiration,inspiration
364,106.0,25,F,down,0.5467644999989716,1.897647476944337,,experiment,emotion,1.0,,,,1187.4450720000004,1004,23,female,True,11874,11879,False,False,inspiration,inspiration
365,104.0,25,M,up,0.5732213999999658,1.8997875305367968,,experiment,emotion,1.0,,,,1190.1616210999998,1004,23,female,True,11901,11907,False,False,expiration,inspiration
366,110.0,25,F,up,0.6492804000008618,1.4445591491944445,,experiment,emotion,1.0,,,,1192.4615369000005,1004,23,female,True,11924,11930,False,False,expiration,expiration
367,108.0,25,F,up,0.6803597999987687,0.7690485752916361,,experiment,emotion,1.0,,,,1194.1614740000005,1004,23,female,True,11941,11948,False,False,inspiration,expiration
368,104.0,25,M,up,0.5058533999999781,0.3201409343123627,,experiment,emotion,1.0,,,,1195.4279831999993,1004,23,female,True,11954,11959,False,False,expiration,trough
369,110.0,25,M,down,0.4167820999991818,1.7320312210062272,,experiment,emotion,1.0,,,,1197.9280072,1004,23,female,True,11979,11983,False,False,expiration,expiration
370,110.0,25,F,up,0.6159191999995528,1.2750339839871805,,experiment,emotion,1.0,,,,1199.8779310999996,1004,23,female,True,11998,12004,False,False,expiration,expiration
371,106.0,25,M,down,0.7203119000005245,0.6215727742092536,,experiment,emotion,1.0,,,,1201.3945335999995,1004,23,female,True,12013,12020,False,False,inspiration,inspiration
372,104.0,25,F,up,0.4883372000003874,1.1487992470760904,,experiment,emotion,1.0,,,,1203.5444945,1004,23,female,True,12035,12040,False,False,expiration,inspiration
373,106.0,25,F,down,0.5351384000023245,0.3804001716880444,,experiment,emotion,1.0,,,,1204.6777457000007,1004,23,female,True,12046,12051,False,False,inspiration,expiration
374,108.0,25,F,up,0.5798131999981706,0.8230233208045654,,experiment,emotion,1.0,,,,1206.3110165999988,1004,23,female,True,12063,12069,False,False,expiration,inspiration
375,104.0,25,M,up,0.4855553999987024,0.6895485284564915,,experiment,emotion,1.0,,,,1207.8443102,1004,23,female,True,12078,12083,False,False,expiration,expiration
376,110.0,25,M,up,0.4251628000019991,0.3291924317290104,,experiment,emotion,1.0,,,,1208.9275851000002,1004,23,female,True,12089,12093,False,False,expiration,inspiration
377,108.0,25,M,up,0.41685090000100894,0.3271716495282375,,experiment,emotion,1.0,,,,1209.9609007999989,1004,23,female,True,12099,12103,False,False,inspiration,expiration
378,110.0,25,F,down,0.5253555000017514,1.02363727861434,,experiment,emotion,1.0,,,,1211.6775094999996,1004,23,female,True,12116,12121,False,False,expiration,inspiration
379,104.0,25,F,down,0.7627694999973755,1.468355603757591,,experiment,emotion,1.0,,,,1213.9440831999984,1004,23,female,True,12139,12147,False,False,expiration,inspiration
380,108.0,25,M,up,0.6554985999973724,0.8942259529897096,,experiment,emotion,1.0,,,,1215.8773304000003,1004,23,female,True,12158,12165,False,False,expiration,expiration
381,106.0,25,F,down,0.6018955999970785,0.7963332229507949,,experiment,emotion,1.0,,,,1217.5939334000013,1004,23,female,True,12175,12181,False,False,inspiration,peak
382,106.0,25,M,up,0.5926328999994439,1.9602140977151192,,experiment,emotion,1.0,,,,1220.4271927999996,1004,23,female,True,12204,12210,False,False,inspiration,expiration
383,108.0,25,M,up,0.5347115999975358,1.797728856057229,,experiment,emotion,1.0,,,,1223.077072099999,1004,23,female,True,12230,12235,False,False,inspiration,expiration
384,110.0,25,M,up,0.3501426999973773,0.4956686208711844,,experiment,emotion,1.0,,,,1224.360383199999,1004,23,female,True,12243,12247,False,False,expiration,expiration
385,106.0,25,F,down,0.4789060000002792,0.4436851946133924,,experiment,emotion,1.0,,,,1225.476979699999,1004,23,female,True,12254,12259,False,False,inspiration,expiration
386,104.0,25,F,up,0.6036745999990671,1.2887981914209676,,experiment,emotion,1.0,,,,1227.5102248999992,1004,23,female,True,12274,12280,False,False,trough,inspiration
387,104.0,25,M,up,0.7537234000010358,1.873007032296626,,experiment,emotion,1.0,,,,1230.2601175,1004,23,female,True,12302,12310,False,False,inspiration,inspiration
388,106.0,25,F,up,0.6631398999998055,1.7481903995669579,,experiment,emotion,1.0,,,,1233.0267007999992,1004,23,female,True,12330,12337,False,False,inspiration,inspiration
389,110.0,25,F,up,0.5865673000007519,1.170504808827293,,experiment,emotion,1.0,,,,1235.143291899998,1004,23,female,True,12351,12357,False,False,expiration,inspiration
390,108.0,25,M,down,0.6992764999995416,1.7604750824292743,,experiment,emotion,1.0,,,,1237.7765343999981,1004,23,female,True,12377,12384,False,False,expiration,inspiration
391,104.0,25,M,down,0.5106990000022051,0.4482514019933326,,experiment,emotion,1.0,,,,1239.193128599998,1004,23,female,True,12391,12396,False,False,inspiration,expiration
392,110.0,25,F,up,0.5930640000005951,0.3759606636542045,,experiment,emotion,1.0,,,,1240.359759599998,1004,23,female,True,12403,12409,False,False,expiration,trough
393,108.0,25,M,up,0.5132223000000522,1.9201641326439092,,experiment,emotion,1.0,,,,1243.1596498999988,1004,23,female,True,12431,12436,False,False,expiration,expiration
394,108.0,25,F,up,0.6329949000028137,1.5702447594431264,,experiment,emotion,1.0,,,,1245.5098286000011,1004,23,female,True,12455,12461,False,False,expiration,expiration
395,104.0,25,F,down,0.6433073999978659,0.3379313212131285,,experiment,emotion,1.0,,,,1246.7595314000012,1004,23,female,True,12467,12473,False,False,inspiration,inspiration
396,106.0,25,F,up,0.4950876000002609,1.7977337667021909,,experiment,emotion,1.0,,,,1249.4927415000002,1004,23,female,True,12494,12499,False,False,inspiration,peak
397,110.0,25,M,up,0.6027486000020872,0.5617931121063844,,experiment,emotion,1.0,,,,1250.8260605000016,1004,23,female,True,12508,12514,False,False,expiration,trough
398,106.0,25,M,up,0.5995652000019618,1.7615583907463863,,experiment,emotion,1.0,,,,1253.459281999998,1004,23,female,True,12534,12540,False,False,expiration,expiration
399,106.0,25,F,down,0.5202566000007209,0.5035247742172372,,experiment,emotion,1.0,,,,1254.8425697000002,1004,23,female,True,12548,12553,False,False,inspiration,expiration
400,106.0,25,F,up,0.5546657000013511,1.9445383558458456,,experiment,emotion,1.0,,,,1257.5591342999996,1004,23,female,True,12575,12581,False,False,inspiration,expiration
401,110.0,25,M,down,0.7181124000017007,1.3379087210927247,,experiment,emotion,1.0,,,,1259.7257314,1004,23,female,True,12597,12604,False,False,inspiration,inspiration
402,108.0,25,M,up,0.4608569999982137,1.5274334342850704,,experiment,emotion,1.0,,,,1262.2589615000015,1004,23,female,True,12622,12627,False,False,inspiration,inspiration
403,104.0,25,M,up,0.5606184999996913,1.0041110317324182,,experiment,emotion,1.0,,,,1263.9922035,1004,23,female,True,12639,12645,False,False,expiration,expiration
404,104.0,25,M,up,0.42761309999696095,0.727520901534477,,experiment,emotion,1.0,,,,1265.542187099998,1004,23,female,True,12655,12659,False,False,inspiration,inspiration
405,108.0,25,M,up,0.4967619000017294,0.4647159191145877,,experiment,emotion,1.0,,,,1266.6921010999995,1004,23,female,True,12666,12671,False,False,expiration,expiration
406,110.0,25,F,up,0.5714922000006482,0.8207334938374466,,experiment,emotion,1.0,,,,1268.2753948000009,1004,23,female,True,12682,12688,False,False,inspiration,inspiration
407,110.0,25,F,up,0.4421619999993709,1.8494136488410728,,experiment,emotion,1.0,,,,1270.9586397000005,1004,23,female,True,12709,12713,False,False,inspiration,inspiration
408,104.0,25,M,up,0.5569593000000168,1.4271488774187615,,experiment,emotion,1.0,,,,1273.0918841000002,1004,23,female,True,12730,12736,False,False,expiration,expiration
409,110.0,25,F,down,0.4790207000005466,1.1249861921069737,,experiment,emotion,1.0,,,,1275.0418311000012,1004,23,female,True,12750,12755,False,False,expiration,expiration
410,106.0,25,F,down,0.4166298000018287,1.0984442864909754,,experiment,emotion,1.0,,,,1276.9084219999984,1004,23,female,True,12769,12773,False,False,inspiration,inspiration
411,108.0,25,F,down,0.4375174999986484,1.961764196475901,,experiment,emotion,1.0,,,,1279.5583046999984,1004,23,female,True,12795,12799,False,False,inspiration,inspiration
412,106.0,25,M,down,0.4608912000003329,0.5091752407014033,,experiment,emotion,1.0,,,,1280.774930499998,1004,23,female,True,12807,12812,False,False,expiration,expiration
413,104.0,25,F,down,0.3835398000010173,0.5456081772151324,,experiment,emotion,1.0,,,,1282.0582062000012,1004,23,female,True,12820,12824,False,False,inspiration,inspiration
414,108.0,25,F,up,0.3836712000011176,1.5671150296018899,,experiment,emotion,1.0,,,,1284.3246539999984,1004,23,female,True,12843,12847,False,False,expiration,inspiration
415,106.0,25,F,down,0.6037780000006023,1.1846163982667126,,experiment,emotion,1.0,,,,1286.208038499999,1004,23,female,True,12861,12867,False,False,expiration,expiration
416,108.0,25,M,down,0.5735763000011502,1.4528253273482332,,experiment,emotion,1.0,,,,1288.5413352999985,1004,23,female,True,12885,12891,False,False,inspiration,expiration
417,104.0,25,M,down,0.4535729000017454,1.3110855249085058,,experiment,emotion,1.0,,,,1290.6912219999995,1004,23,female,True,12906,12911,False,False,inspiration,inspiration
418,110.0,25,F,down,0.4423022000009951,0.9308846068463968,,experiment,emotion,1.0,,,,1292.3745151999992,1004,23,female,True,12923,12927,False,False,expiration,expiration
419,108.0,25,M,down,0.4654113999968104,1.6361096628540364,,experiment,emotion,1.0,,,,1294.7244130999989,1004,23,female,True,12947,12952,False,False,expiration,expiration
420,110.0,25,F,down,0.5435350999978255,0.5109383988904945,,experiment,emotion,1.0,,,,1295.9744073999989,1004,23,female,True,12959,12964,False,False,trough,inspiration
421,104.0,25,M,down,0.5692149000024074,1.957780703127797,,experiment,emotion,1.0,,,,1298.7576000999998,1004,23,female,True,12987,12993,False,False,inspiration,inspiration
422,106.0,25,M,down,0.4222358000006352,0.5901957947618763,,experiment,emotion,1.0,,,,1300.2075229999991,1004,23,female,True,13001,13005,False,False,expiration,expiration
423,0.11480912206039907,25,up,up,0.6841582999986713,1.9347625440877267,,experiment,cRDM,1.0,,,,1343.3226449999984,1004,23,female,True,13433,13440,False,False,expiration,inspiration
424,0.11480912206039907,25,up,up,0.4856418999988818,1.4449466160086637,,experiment,cRDM,1.0,,,,1345.722521900001,1004,23,female,True,13457,13462,False,False,expiration,expiration
425,0.11480912206039907,25,down,up,0.4002561999986938,1.1155865276743857,,experiment,cRDM,1.0,,,,1347.5724685000005,1004,23,female,True,13475,13479,False,False,inspiration,expiration
426,0.11480912206039907,25,down,down,0.3672331999987364,1.6495262078170885,,experiment,cRDM,1.0,,,,1349.8890234000012,1004,23,female,True,13498,13502,False,False,inspiration,inspiration
427,0.11480912206039907,25,up,down,0.3838636999971641,1.9393649211272468,,experiment,cRDM,1.0,,,,1352.5055828999996,1004,23,female,True,13525,13529,False,False,trough,inspiration
428,0.11480912206039907,25,down,down,0.3838430000032531,1.510642821700528,,experiment,cRDM,1.0,,,,1354.6888418,1004,23,female,True,13546,13550,False,False,expiration,expiration
429,0.11480912206039907,25,up,down,0.3671401999999944,0.6078229853593831,,experiment,cRDM,1.0,,,,1355.9721512000015,1004,23,female,True,13559,13563,False,False,inspiration,inspiration
430,0.11480912206039907,25,up,up,0.6764929999990272,1.3525226281403384,,experiment,cRDM,1.0,,,,1358.0053051999985,1004,23,female,True,13580,13587,False,False,expiration,inspiration
431,0.11480912206039907,25,down,down,0.4280689999977767,0.7504902229169956,,experiment,cRDM,1.0,,,,1359.6886891000013,1004,23,female,True,13596,13600,False,False,inspiration,expiration
432,0.11480912206039907,25,down,down,0.4494511999982933,0.5786933900278338,,experiment,cRDM,1.0,,,,1360.9552969999984,1004,23,female,True,13609,13613,False,False,expiration,expiration
433,0.11480912206039907,25,down,down,0.4372645999974337,1.9682456729601807,,experiment,cRDM,1.0,,,,1363.6385346000004,1004,23,female,True,13636,13640,False,False,expiration,expiration
434,0.11480912206039907,25,down,up,0.4716964999970514,1.31684896219448,,experiment,cRDM,1.0,,,,1365.6551223000004,1004,23,female,True,13656,13661,False,False,expiration,expiration
435,0.11480912206039907,25,down,down,0.4458762000031129,0.5271008750946251,,experiment,cRDM,1.0,,,,1366.9049265000012,1004,23,female,True,13669,13673,False,False,trough,inspiration
436,0.11480912206039907,25,down,down,0.4167784999990545,0.7038586673899632,,experiment,cRDM,1.0,,,,1368.3217261000011,1004,23,female,True,13683,13687,False,False,expiration,expiration
437,0.11480912206039907,25,up,down,0.4168063999968581,1.53344638593751,,experiment,cRDM,1.0,,,,1370.538294,1004,23,female,True,13705,13709,False,False,peak,expiration
438,0.11480912206039907,25,up,down,0.470576900002925,0.9759485148422712,,experiment,cRDM,1.0,,,,1372.1882220999996,1004,23,female,True,13721,13726,False,False,inspiration,inspiration
439,0.11480912206039907,25,up,down,0.6953004999995755,0.6975734709025567,,experiment,cRDM,1.0,,,,1373.6214753000004,1004,23,female,True,13736,13743,False,False,expiration,expiration
440,0.11480912206039907,25,up,up,0.44241630000033183,1.9898960202746816,,experiment,cRDM,1.0,,,,1376.5713690999999,1004,23,female,True,13765,13769,False,False,expiration,expiration
441,0.11480912206039907,25,down,down,0.3171810000021651,1.9676551490112195,,experiment,cRDM,1.0,,,,1379.2546254999993,1004,23,female,True,13792,13795,False,False,expiration,expiration
442,0.11480912206039907,25,up,up,0.494967300001008,1.7067285597679387,,experiment,cRDM,1.0,,,,1381.6378647,1004,23,female,True,13816,13821,False,False,expiration,expiration
443,0.11480912206039907,25,up,down,0.3505708000011509,1.936036735551898,,experiment,cRDM,1.0,,,,1384.3210697999984,1004,23,female,True,13843,13847,False,False,expiration,expiration
444,0.11480912206039907,25,down,down,0.4440558000023884,0.4824361172185527,,experiment,cRDM,1.0,,,,1385.4877117000015,1004,23,female,True,13854,13858,False,False,inspiration,inspiration
445,0.11480912206039907,25,up,down,0.4167852999999013,1.6538593734865188,,experiment,cRDM,1.0,,,,1387.8542940999994,1004,23,female,True,13878,13882,False,False,expiration,inspiration
446,0.11480912206039907,25,down,down,0.4581713000006857,0.9489756189236768,,experiment,cRDM,1.0,,,,1389.4709003000007,1004,23,female,True,13894,13899,False,False,expiration,expiration
447,0.11480912206039907,25,down,down,0.4002322999986063,0.4554936190540809,,experiment,cRDM,1.0,,,,1390.6375804000002,1004,23,female,True,13906,13910,False,False,expiration,inspiration
448,0.11480912206039907,25,up,down,0.4789964000010514,0.7608529983059313,,experiment,cRDM,1.0,,,,1392.0708102000006,1004,23,female,True,13920,13925,False,False,expiration,expiration
449,0.11480912206039907,25,up,down,0.41905430000042543,0.7227159334418571,,experiment,cRDM,1.0,,,,1393.5207619000012,1004,23,female,True,13935,13939,False,False,trough,inspiration
450,0.11480912206039907,25,down,down,0.41679320000184816,1.6007266870026136,,experiment,cRDM,1.0,,,,1395.7873185000005,1004,23,female,True,13958,13962,False,False,expiration,expiration
451,0.11480912206039907,25,up,up,0.4742488999982015,1.3072914602846541,,experiment,cRDM,1.0,,,,1397.7705799000016,1004,23,female,True,13977,13982,False,False,expiration,expiration
452,0.11480912206039907,25,down,down,0.3838188999980048,1.1095476063961107,,experiment,cRDM,1.0,,,,1399.6205584000002,1004,23,female,True,13996,14000,False,False,inspiration,peak
453,0.11480912206039907,25,down,down,0.5773502000010922,1.917175263535804,,experiment,cRDM,1.0,,,,1402.2204526000005,1004,23,female,True,14022,14028,False,False,inspiration,expiration
454,0.11480912206039907,25,down,down,0.467466099999001,1.0059938257605994,,experiment,cRDM,1.0,,,,1404.0703592999978,1004,23,female,True,14040,14045,False,False,expiration,inspiration
455,0.11480912206039907,25,up,down,0.4514009000013175,1.916714989949525,,experiment,cRDM,1.0,,,,1406.7034417000011,1004,23,female,True,14067,14072,False,False,expiration,inspiration
456,0.11480912206039907,25,up,down,0.4669959999991988,0.9647813788219848,,experiment,cRDM,1.0,,,,1408.3868286000015,1004,23,female,True,14084,14089,False,False,expiration,expiration
457,0.11480912206039907,25,up,down,0.5149802999985695,0.37550686860190896,,experiment,cRDM,1.0,,,,1409.4868176,1004,23,female,True,14095,14100,False,False,expiration,inspiration
458,0.11480912206039907,25,down,down,0.40024930000072345,1.6012726562653803,,experiment,cRDM,1.0,,,,1411.8700737999989,1004,23,female,True,14118,14122,False,False,expiration,expiration
459,0.11480912206039907,25,down,down,0.4004328999981226,1.142508470082216,,experiment,cRDM,1.0,,,,1413.6866629000015,1004,23,female,True,14137,14141,False,False,expiration,expiration
460,0.11480912206039907,25,up,down,0.4405986999991001,1.7377181203700147,,experiment,cRDM,1.0,,,,1416.1031934000002,1004,23,female,True,14161,14165,False,False,peak,expiration
461,0.11480912206039907,25,down,down,0.4416195999983756,1.3419683616873008,,experiment,cRDM,1.0,,,,1418.1531792000005,1004,23,female,True,14181,14185,False,False,inspiration,inspiration
462,0.11480912206039907,25,up,down,0.5080376000005344,1.3614615374531274,,experiment,cRDM,1.0,,,,1420.2197958000015,1004,23,female,True,14202,14207,False,False,inspiration,inspiration
463,0.11480912206039907,25,up,down,0.43779779999749735,0.513135198400096,,experiment,cRDM,1.0,,,,1421.503010399998,1004,23,female,True,14215,14219,False,False,expiration,expiration
464,0.11480912206039907,25,up,down,0.4002791000020807,1.8719739290677768,,experiment,cRDM,1.0,,,,1424.0696253000006,1004,23,female,True,14240,14244,False,False,expiration,expiration
465,0.11480912206039907,25,down,down,0.5406108999995922,1.2877603752455646,,experiment,cRDM,1.0,,,,1426.0362039000008,1004,23,female,True,14260,14265,False,False,inspiration,expiration
466,0.11480912206039907,25,down,down,0.43566459999783547,0.8608587730708543,,experiment,cRDM,1.0,,,,1427.6861601,1004,23,female,True,14276,14280,False,False,expiration,inspiration
467,0.11480912206039907,25,up,down,0.4353761000020313,0.4909098623687825,,experiment,cRDM,1.0,,,,1428.8694422999995,1004,23,female,True,14288,14292,False,False,inspiration,expiration
468,0.11480912206039907,25,down,down,0.48869389999890706,0.3656693023362264,,experiment,cRDM,1.0,,,,1429.9360687999995,1004,23,female,True,14299,14304,False,False,expiration,expiration
469,0.11480912206039907,25,down,down,0.4608244000010018,1.1073526174757988,,experiment,cRDM,1.0,,,,1431.7860046000005,1004,23,female,True,14317,14322,False,False,inspiration,expiration
470,0.11480912206039907,25,up,up,0.5477702000025602,0.9282724513045012,,experiment,cRDM,1.0,,,,1433.435996099999,1004,23,female,True,14334,14339,False,False,inspiration,inspiration
471,0.11480912206039907,25,up,down,0.4678819000000658,1.9786062872070964,,experiment,cRDM,1.0,,,,1436.2358544,1004,23,female,True,14362,14367,False,False,inspiration,inspiration
472,0.11480912206039907,25,down,down,0.5460506999988866,1.6167013957508136,,experiment,cRDM,1.0,,,,1438.585728600001,1004,23,female,True,14385,14390,False,False,expiration,trough
473,0.11480912206039907,25,up,down,0.4002475999986928,0.9570820243483108,,experiment,cRDM,1.0,,,,1440.3523627999984,1004,23,female,True,14403,14407,False,False,expiration,expiration
474,0.11480912206039907,25,down,down,0.628484999997454,0.9240150751814884,,experiment,cRDM,1.0,,,,1441.9522989999987,1004,23,female,True,14419,14425,False,False,inspiration,inspiration
475,0.11480912206039907,25,down,down,0.5905265000001236,0.4067760449498384,,experiment,cRDM,1.0,,,,1443.252260700001,1004,23,female,True,14432,14438,False,False,expiration,expiration
476,0.11480912206039907,25,down,up,0.7269209999976738,0.3695035426648495,,experiment,cRDM,1.0,,,,1444.4688590999995,1004,23,female,True,14444,14451,False,False,inspiration,inspiration
477,0.11480912206039907,25,up,down,0.38382149999961257,0.6492600670600959,,experiment,cRDM,1.0,,,,1446.1021354999993,1004,23,female,True,14461,14465,False,False,expiration,expiration
478,0.11480912206039907,25,up,down,0.5243766999992658,1.0814432057183079,,experiment,cRDM,1.0,,,,1447.885393999999,1004,23,female,True,14478,14483,False,False,inspiration,expiration
479,0.11480912206039907,25,down,down,0.4470994000002975,0.6089927142178811,,experiment,cRDM,1.0,,,,1449.2687088000002,1004,23,female,True,14492,14496,False,False,expiration,expiration
480,0.11480912206039907,25,down,down,0.4195404000020062,1.7562105515904454,,experiment,cRDM,1.0,,,,1451.7352665999988,1004,23,female,True,14517,14521,False,False,expiration,expiration
481,0.11480912206039907,25,up,up,0.5909499999979744,0.5745582030319932,,experiment,cRDM,1.0,,,,1453.0018404999994,1004,23,female,True,14530,14536,False,False,inspiration,inspiration
482,0.11480912206039907,25,up,up,0.6326343000000634,0.8291452696154897,,experiment,cRDM,1.0,,,,1454.6851767999995,1004,23,female,True,14546,14552,False,False,expiration,trough
483,0.11480912206039907,25,up,down,0.5301642999984324,1.829565637641542,,experiment,cRDM,1.0,,,,1457.401620399998,1004,23,female,True,14574,14579,False,False,expiration,trough
484,0.11480912206039907,25,up,up,0.581760299999587,0.4444878624733789,,experiment,cRDM,1.0,,,,1458.6350221999985,1004,23,female,True,14586,14592,False,False,inspiration,expiration
485,0.11480912206039907,25,up,down,0.4982352000006358,0.35970715392303826,,experiment,cRDM,1.0,,,,1459.8516344,1004,23,female,True,14598,14603,False,False,expiration,trough
486,0.11480912206039907,25,down,down,0.5572167999998783,1.1402978027579207,,experiment,cRDM,1.0,,,,1461.7515574000006,1004,23,female,True,14617,14623,False,False,expiration,expiration
487,0.11480912206039907,25,down,down,0.4516538000025321,1.2999009668171284,,experiment,cRDM,1.0,,,,1463.868150799999,1004,23,female,True,14638,14643,False,False,inspiration,expiration
488,0.11480912206039907,25,up,up,0.5433163000016066,0.40723030013961703,,experiment,cRDM,1.0,,,,1465.0014648999984,1004,23,female,True,14650,14655,False,False,expiration,expiration
489,0.11480912206039907,25,down,down,0.4229048999986844,1.4708143657028847,,experiment,cRDM,1.0,,,,1467.2680194000006,1004,23,female,True,14672,14676,False,False,expiration,expiration
490,0.11480912206039907,25,down,down,0.4168991999977152,1.316165095846907,,experiment,cRDM,1.0,,,,1469.2679488999984,1004,23,female,True,14692,14696,False,False,inspiration,expiration
491,0.11480912206039907,25,down,up,0.38381979999758187,0.7286327989402004,,experiment,cRDM,1.0,,,,1470.6678980000015,1004,23,female,True,14706,14710,False,False,expiration,expiration
492,0.11480912206039907,25,up,down,0.3838541000004625,1.52311195413539,,experiment,cRDM,1.0,,,,1472.8844690999995,1004,23,female,True,14728,14732,False,False,expiration,expiration
493,0.11480912206039907,25,down,up,0.5207392999982403,0.7364262621517372,,experiment,cRDM,1.0,,,,1474.3010403999995,1004,23,female,True,14743,14748,False,False,inspiration,inspiration
494,0.11480912206039907,25,down,down,0.4168012999980419,1.8349800568180468,,experiment,cRDM,1.0,,,,1476.9176764999993,1004,23,female,True,14769,14773,False,False,inspiration,inspiration
495,0.11480912206039907,25,down,down,0.4645881000033114,1.5996283048141882,,experiment,cRDM,1.0,,,,1479.184234800001,1004,23,female,True,14791,14796,False,False,expiration,trough
496,0.11480912206039907,25,up,up,0.5258838000008836,0.8388649909998895,,experiment,cRDM,1.0,,,,1480.7508619999992,1004,23,female,True,14807,14812,False,False,peak,expiration
497,0.11480912206039907,25,up,up,0.8669989000009082,0.7581108161750802,,experiment,cRDM,1.0,,,,1482.3007572000006,1004,23,female,True,14823,14832,False,False,trough,inspiration
498,0.11480912206039907,25,down,down,0.4168132999984664,1.001531464778609,,experiment,cRDM,1.0,,,,1484.4340544999993,1004,23,female,True,14844,14848,False,False,expiration,expiration
499,0.11480912206039907,25,up,up,0.4348397999965528,1.3581406256168214,,experiment,cRDM,1.0,,,,1486.4839626000012,1004,23,female,True,14864,14868,False,False,expiration,expiration
500,0.11480912206039907,25,down,down,0.3838345000003756,1.6009542899199756,,experiment,cRDM,1.0,,,,1488.7838828000006,1004,23,female,True,14887,14891,False,False,inspiration,peak
501,0.11480912206039907,25,up,up,0.5504217000016071,1.236346791118338,,experiment,cRDM,1.0,,,,1490.7003500999979,1004,23,female,True,14907,14913,False,False,expiration,inspiration
502,0.11480912206039907,25,up,up,0.5000030000010156,0.4636146608748316,,experiment,cRDM,1.0,,,,1491.9837549999993,1004,23,female,True,14919,14924,False,False,inspiration,expiration
503,110.0,25,M,down,0.4520824999999604,1.60271948348328,,experiment,emotion,2.0,,,,1530.8156997999995,1004,23,female,True,15308,15313,False,False,trough,inspiration
504,104.0,25,M,down,0.5124842000004719,1.6301041613402592,,experiment,emotion,2.0,,,,1533.1822755999985,1004,23,female,True,15331,15336,False,False,expiration,expiration
505,108.0,25,F,up,0.5852424000004248,0.3792427177241745,,experiment,emotion,2.0,,,,1534.3655420999985,1004,23,female,True,15343,15349,False,False,inspiration,expiration
506,110.0,25,F,down,0.5496734000007564,1.7245039905411008,,experiment,emotion,2.0,,,,1536.9321236999986,1004,23,female,True,15369,15374,False,False,inspiration,expiration
507,108.0,25,M,down,0.6707502999997814,1.6889250412940986,,experiment,emotion,2.0,,,,1539.4320337000006,1004,23,female,True,15394,15401,False,False,inspiration,expiration
508,106.0,25,F,down,0.6144567000010284,0.7911520811180849,,experiment,emotion,2.0,,,,1541.165298599999,1004,23,female,True,15411,15417,False,False,inspiration,inspiration
509,104.0,25,M,down,0.4451786000026914,1.4952010461018526,,experiment,emotion,2.0,,,,1543.5485548999984,1004,23,female,True,15435,15439,False,False,inspiration,inspiration
510,106.0,25,M,down,0.41925369999808026,0.6754912580815634,,experiment,emotion,2.0,,,,1544.9485098999994,1004,23,female,True,15449,15453,False,False,expiration,expiration
511,110.0,25,F,down,1.3869878000004974,1.3760266569476445,,experiment,emotion,2.0,,,,1547.0317569999988,1004,23,female,True,15470,15484,False,False,inspiration,expiration
512,106.0,25,F,down,0.5341091000009328,1.7448013055679823,,experiment,emotion,2.0,,,,1550.4316491999978,1004,23,female,True,15504,15509,False,False,inspiration,expiration
513,108.0,25,F,down,0.5431841999998142,1.084535968494805,,experiment,emotion,2.0,,,,1552.3315667000006,1004,23,female,True,15523,15528,False,False,inspiration,inspiration
514,110.0,25,F,down,0.5482969000004232,1.7716033278546848,,experiment,emotion,2.0,,,,1554.9314638000014,1004,23,female,True,15549,15554,False,False,inspiration,inspiration
515,108.0,25,F,up,0.7065593000006629,1.3119284135718925,,experiment,emotion,2.0,,,,1557.0812545999993,1004,23,female,True,15571,15578,False,False,expiration,inspiration
516,104.0,25,F,down,0.5607653000006394,0.728874715495287,,experiment,emotion,2.0,,,,1558.7979939000015,1004,23,female,True,15588,15594,False,False,inspiration,expiration
517,106.0,25,M,down,0.4345089000016742,0.6523880652730137,,experiment,emotion,2.0,,,,1560.2812534999994,1004,23,female,True,15603,15607,False,False,expiration,inspiration
518,104.0,25,M,down,0.4201608999974269,1.6247897789248094,,experiment,emotion,2.0,,,,1562.5976331000004,1004,23,female,True,15626,15630,False,False,expiration,expiration
519,110.0,25,M,down,0.4292870999997831,1.5301932246651926,,experiment,emotion,2.0,,,,1564.8144340999988,1004,23,female,True,15648,15652,False,False,expiration,expiration
520,104.0,25,M,down,0.43740989999787416,1.145568976918495,,experiment,emotion,2.0,,,,1566.664353099999,1004,23,female,True,15666,15670,False,False,inspiration,inspiration
521,108.0,25,F,down,0.4288109999979497,0.8085817635613377,,experiment,emotion,2.0,,,,1568.180970899999,1004,23,female,True,15681,15685,False,False,expiration,expiration
522,108.0,25,M,down,0.4001914000000397,1.5646277780979252,,experiment,emotion,2.0,,,,1570.4475598000006,1004,23,female,True,15704,15708,False,False,expiration,expiration
523,106.0,25,M,down,0.41827829999965616,0.7981564621092256,,experiment,emotion,2.0,,,,1571.9475078000016,1004,23,female,True,15719,15723,False,False,inspiration,inspiration
524,106.0,25,F,down,0.4440097999977297,1.7890789863185177,,experiment,emotion,2.0,,,,1574.4307504000005,1004,23,female,True,15744,15748,False,False,expiration,inspiration
525,104.0,25,M,up,0.4728261000018392,1.5844975861595467,,experiment,emotion,2.0,,,,1576.7139920999996,1004,23,female,True,15767,15772,False,False,expiration,expiration
526,110.0,25,F,up,0.4001682000016445,1.5513322922102768,,experiment,emotion,2.0,,,,1579.0139427999984,1004,23,female,True,15790,15794,False,False,expiration,expiration
527,108.0,25,F,up,0.38353290000304696,1.326992939543853,,experiment,emotion,2.0,,,,1581.030493100001,1004,23,female,True,15810,15814,False,False,inspiration,expiration
528,104.0,25,M,down,0.4657913999981247,1.1809010001653295,,experiment,emotion,2.0,,,,1582.8970064000007,1004,23,female,True,15829,15834,False,False,inspiration,inspiration
529,110.0,25,M,down,0.3835330000001704,0.7494518955399527,,experiment,emotion,2.0,,,,1584.3803571000005,1004,23,female,True,15843,15847,False,False,expiration,expiration
530,110.0,25,F,down,0.4300900999987789,0.5100680773196462,,experiment,emotion,2.0,,,,1585.5636638999986,1004,23,female,True,15855,15859,False,False,inspiration,inspiration
531,106.0,25,M,down,0.5165312999997695,1.5944490168809395,,experiment,emotion,2.0,,,,1587.8802290000006,1004,23,female,True,15878,15883,False,False,expiration,inspiration
532,104.0,25,F,down,0.4201930000017455,0.3965826466820768,,experiment,emotion,2.0,,,,1589.0635516999994,1004,23,female,True,15890,15894,False,False,inspiration,expiration
