,stimLvl,stimTime,rand,response,rt,precedingITI,trialNumber,trialType,stimuli,block,estIntens,estThres,estSlope,trialStart,subject,age,gender,headRest,onset,responsI,manBadOnset,manBadRespons,onset_phase,respons_phase
0,150.0,100,F,,,1.7799034013350528,,introTrial,emotion,,,,,252.5103440000021,1005,24,female,True,2524,0,False,False,expiration,0
1,0.9,100,down,,,0.358056863087257,,introTrial,cRDM,,,,,256.7937329000015,1005,24,female,True,2566,0,False,False,inspiration,0
2,200.0,25,F,,,1.2229840339416989,,tutorial,emotion,,,,,326.17452550000235,1005,24,female,True,3260,0,False,False,trough,0
3,200.0,25,F,,,1.3457998173827823,,tutorial,emotion,,,,,330.2410091999991,1005,24,female,True,3301,0,False,False,expiration,0
4,200.0,25,M,up,0.5130753000012191,1.0323087548833425,,tutorial,emotion,,,,,333.9741995000004,1005,24,female,True,3338,3343,False,False,inspiration,expiration
5,0.0,25,F,down,0.6804703999987396,1.5405537562402851,,tutorial,emotion,,,,,336.3407862999993,1005,24,female,True,3362,3369,False,False,inspiration,inspiration
6,0.0,25,M,down,0.5682553999977245,1.1555498811482399,,tutorial,emotion,,,,,338.47403350000235,1005,24,female,True,3383,3389,False,False,expiration,expiration
7,200.0,25,M,up,0.3835042999999132,1.3712085110016068,,tutorial,emotion,,,,,340.70729610000126,1005,24,female,True,3406,3410,False,False,inspiration,inspiration
8,0.0,25,M,down,0.4337747000026866,0.3266946835639441,,tutorial,emotion,,,,,341.7405666000013,1005,24,female,True,3416,3420,False,False,inspiration,inspiration
9,200.0,25,F,up,0.4341108999979042,1.5018823556928862,,tutorial,emotion,,,,,343.95718029999983,1005,24,female,True,3438,3442,False,False,peak,expiration
10,0.0,25,M,down,0.5308963999996195,1.9030348020437624,,tutorial,emotion,,,,,346.5903861000006,1005,24,female,True,3464,3469,False,False,trough,inspiration
11,0.0,25,F,down,1.0535987999974168,0.4107593755756383,,tutorial,emotion,,,,,347.8236889,1005,24,female,True,3477,3488,False,False,expiration,expiration
12,0.9,25,up,,,0.8255261199820707,,tutorial,cRDM,,,,,353.1901384000012,1005,24,female,True,3530,0,False,False,inspiration,0
13,0.9,25,up,,,0.4439993746156774,,tutorial,cRDM,,,,,356.3400308999989,1005,24,female,True,3562,0,False,False,inspiration,0
14,0.9,25,down,up,0.6123803000009502,1.3596520781035548,,tutorial,cRDM,,,,,360.38987180000186,1005,24,female,True,3602,3608,False,False,expiration,inspiration
15,0.9,25,down,up,0.7354491999976744,0.41862591171952895,,tutorial,cRDM,,,,,361.70678129999936,1005,24,female,True,3616,3623,False,False,expiration,expiration
16,0.9,25,up,down,0.3171247000027506,1.7481916732208578,,tutorial,cRDM,,,,,364.4564180000016,1005,24,female,True,3643,3646,False,False,expiration,expiration
17,0.9,25,down,down,0.4519710999993549,1.7157828644604904,,tutorial,cRDM,,,,,366.8563093000012,1005,24,female,True,3667,3672,False,False,inspiration,expiration
18,0.9,25,up,,,0.8758442121646686,,tutorial,cRDM,,,,,368.45626040000207,1005,24,female,True,3683,0,False,False,expiration,0
19,0.9,25,up,up,0.5964432999971905,1.01491676773726,,tutorial,cRDM,,,,,372.1727839000014,1005,24,female,True,3720,3726,False,False,expiration,expiration
20,0.9,25,down,down,0.35047299999860115,1.301501827481673,,tutorial,cRDM,,,,,374.3393829000015,1005,24,female,True,3742,3746,False,False,inspiration,inspiration
21,0.9,25,down,up,0.4639843000004476,1.45713269156326,,tutorial,cRDM,,,,,376.489297600001,1005,24,female,True,3763,3768,False,False,expiration,expiration
22,100.0,25,M,down,0.8085009999995236,1.8496737335692324,,psi_staircase_training,emotion,,100.0,100.0,25.00050000000001,405.9047998999995,1005,24,female,True,4058,4066,False,False,expiration,expiration
23,145.0,25,M,up,0.5747660999986692,0.831006331665699,,psi_staircase_training,emotion,,145.25719053245996,145.25719053245996,25.000500000000283,407.9214820000016,1005,24,female,True,4078,4084,False,False,expiration,expiration
24,121.0,25,F,up,0.6198642999988806,0.7597710953526825,,psi_staircase_training,emotion,,120.36392901436103,120.36392901436103,25.71326925488699,409.62139920000124,1005,24,female,True,4095,4101,False,False,trough,inspiration
25,97.0,25,F,,,0.3362347527472866,,psi_staircase_training,emotion,,102.38876106084959,102.38876106084959,26.14633372628729,410.9380248000016,1005,24,female,True,4108,0,False,False,inspiration,0
26,97.0,25,F,down,0.5397072000014305,0.3362347527472866,,psi_staircase_training,emotion,,102.38876106084959,102.38876106084959,26.14633372628729,413.9545741000002,1005,24,female,True,4138,4143,False,False,inspiration,expiration
27,113.0,25,M,up,1.0038085999985924,1.7964549326259611,,psi_staircase_training,emotion,,114.01123255420406,114.01123255420406,23.003056417783352,416.6544675000005,1005,24,female,True,4165,4175,False,False,expiration,inspiration
28,105.0,25,F,up,0.6235154999994847,0.360116392600948,,psi_staircase_training,emotion,,104.94359593877377,104.94359593877377,22.15060322358215,418.3877242000017,1005,24,female,True,4182,4188,False,False,expiration,expiration
29,92.0,25,M,up,0.5092513000017789,1.5029559312686271,,psi_staircase_training,emotion,,97.32104229908207,97.32104229908207,23.933073614490553,420.8709884000018,1005,24,female,True,4207,4212,False,False,inspiration,expiration
30,74.0,25,F,up,0.5290214999986347,1.9139417913866008,,psi_staircase_training,emotion,,86.47781129474322,86.47781129474322,31.61110671766409,423.65422269999914,1005,24,female,True,4235,4240,False,False,inspiration,expiration
31,59.0,25,F,down,0.4001838000003772,0.989417746252112,,psi_staircase_training,emotion,,74.08117666667958,74.08117666667958,36.39663949116184,425.53748909999916,1005,24,female,True,4254,4258,False,False,inspiration,inspiration
32,64.0,25,M,down,0.66780049999943,0.8300791513289563,,psi_staircase_training,emotion,,80.464425290526,80.464425290526,35.073346092108395,427.13743550000066,1005,24,female,True,4270,4277,False,False,trough,inspiration
33,67.0,25,F,down,0.3835157000030449,1.6164656427838644,,psi_staircase_training,emotion,,85.01824728711594,85.01824728711594,33.73103349266473,429.77066040000136,1005,24,female,True,4296,4300,False,False,expiration,inspiration
34,69.0,25,F,down,1.112040899999556,1.8473836477856869,,psi_staircase_training,emotion,,88.4992067674762,88.4992067674762,32.50059088075079,432.38721820000137,1005,24,female,True,4322,4333,False,False,expiration,inspiration
35,113.0,25,F,down,0.4001499000005424,1.7192310512069882,,psi_staircase_training,emotion,,91.24268714815122,91.24268714815122,31.37340943875377,435.5704829000024,1005,24,female,True,4354,4358,False,False,inspiration,inspiration
36,121.0,25,M,up,0.4578892000026826,1.1120750808120219,,psi_staircase_training,emotion,,97.8970588239102,97.8970588239102,34.79085425586797,437.4703646000016,1005,24,female,True,4373,4378,False,False,inspiration,peak
37,73.0,25,M,down,0.6723794999998063,0.5050560432217558,,psi_staircase_training,emotion,,95.61813428367935,95.61813428367935,33.87607429716774,438.78686550000197,1005,24,female,True,4387,4394,False,False,expiration,inspiration
38,122.0,25,F,up,0.5626741999985825,0.41960403027654897,,psi_staircase_training,emotion,,97.63348304762712,97.63348304762712,33.00641149063264,440.2535955999992,1005,24,female,True,4401,4407,False,False,expiration,inspiration
39,72.0,25,F,down,0.5251313999979175,1.979235653186056,,psi_staircase_training,emotion,,95.84795175193756,95.84795175193756,32.02454078919945,443.1701452000016,1005,24,female,True,4430,4435,False,False,inspiration,inspiration
40,122.0,25,M,up,0.5124821999997948,1.009057714253921,,psi_staircase_training,emotion,,97.4338597673728,97.4338597673728,31.08423191278182,445.03675740000114,1005,24,female,True,4449,4454,False,False,expiration,expiration
41,72.0,25,M,down,0.4496249000003445,1.3431276983066718,,psi_staircase_training,emotion,,95.98595537903982,95.98595537903982,30.063787423638033,447.2366947000009,1005,24,female,True,4471,4475,False,False,expiration,expiration
42,122.0,25,M,down,0.9266418000006524,0.9081437786040684,,psi_staircase_training,emotion,,97.28280798956956,97.28280798956956,29.087967246060025,448.93663410000227,1005,24,female,True,4488,4497,False,False,expiration,inspiration
43,129.0,25,M,up,0.41663619999962975,0.8643506994527621,,psi_staircase_training,emotion,,101.96848105416515,101.96848105416515,33.165340575800265,451.08654050000035,1005,24,female,True,4510,4514,False,False,inspiration,inspiration
44,129.0,25,F,up,0.5104831000026024,1.3683520556594897,,psi_staircase_training,emotion,,100.6877302576734,100.6877302576734,32.291157201445486,453.219778900002,1005,24,female,True,4531,4536,False,False,expiration,expiration
45,73.0,25,F,down,0.5532418000002508,1.4753198068496898,,psi_staircase_training,emotion,,99.60990060222952,99.60990060222952,31.463586223879947,455.553029900002,1005,24,female,True,4554,4560,False,False,peak,expiration
46,128.0,25,F,up,0.7184205999983533,1.5244767732428168,,psi_staircase_training,emotion,,100.6799533401379,100.6799533401379,30.617956851412444,458.002835700001,1005,24,female,True,4579,4586,False,False,inspiration,expiration
47,74.0,25,M,up,0.6007132999984606,1.8035747647682219,,psi_staircase_training,emotion,,99.73813875052102,99.73813875052102,29.779587732704414,460.86949900000036,1005,24,female,True,4607,4613,False,False,expiration,expiration
48,67.0,25,M,down,0.6264909999990778,1.710004996435979,,psi_staircase_training,emotion,,95.89420856151536,95.89420856151536,33.24011149826008,463.55273060000036,1005,24,female,True,4634,4640,False,False,expiration,expiration
49,126.0,25,F,up,0.5452645999976085,0.8068645998553654,,psi_staircase_training,emotion,,96.84403515979669,96.84403515979669,32.5127170680271,465.33600339999975,1005,24,female,True,4652,4657,False,False,expiration,expiration
50,67.0,25,F,down,0.4959563000011258,0.6374361757332281,,psi_staircase_training,emotion,,95.9883305769648,95.9883305769648,31.805036472953724,466.8692737000019,1005,24,female,True,4667,4672,False,False,inspiration,expiration
51,126.0,25,M,up,0.5598465999973996,1.7742972089189462,,psi_staircase_training,emotion,,96.81452999479357,96.81452999479357,31.074506373332706,469.50242070000235,1005,24,female,True,4694,4700,False,False,inspiration,expiration
52,67.0,25,M,down,0.4167917000013404,1.4257392697141833,,psi_staircase_training,emotion,,96.06988861934653,96.06988861934653,30.36987817954193,471.8190967000009,1005,24,female,True,4717,4721,False,False,inspiration,peak
53,0.29,25,up,up,0.6106423000019277,1.8717870663119325,,psi_staircase_training,cRDM,,0.25,0.25693124029946324,0.10500000000000002,476.9355862000011,1005,24,female,True,4768,4774,False,False,expiration,expiration
54,0.25,25,up,up,0.6277697000004991,1.8169231550749647,,psi_staircase_training,cRDM,,0.21910266653183127,0.2260132002683493,0.10468632033873933,479.63548599999916,1005,24,female,True,4795,4801,False,False,expiration,expiration
55,0.21,25,down,up,0.442403099998046,1.1260224731589876,,psi_staircase_training,cRDM,,0.1900540959403307,0.19684979615540016,0.10294672984249993,481.6687447000004,1005,24,female,True,4815,4819,False,False,expiration,expiration
56,0.32,25,down,down,0.4419501999982458,1.9000335861626905,,psi_staircase_training,cRDM,,0.28193877959813873,0.2893209636160949,0.11183125795615867,484.28527920000124,1005,24,female,True,4841,4845,False,False,inspiration,expiration
57,0.29,25,up,up,0.33382690000144066,1.2315880038541085,,psi_staircase_training,cRDM,,0.25942687694212696,0.2667634756990502,0.11114069577656796,486.2352217000007,1005,24,female,True,4861,4864,False,False,inspiration,inspiration
58,0.27,25,down,down,0.3668756000006397,1.6711278088855803,,psi_staircase_training,cRDM,,0.23867195095052604,0.2458822432686335,0.10922730430510502,488.60206540000223,1005,24,female,True,4885,4889,False,False,inspiration,peak
59,0.26,25,up,down,0.5438991000009992,1.2651532233950842,,psi_staircase_training,cRDM,,0.22011578024889514,0.22717390155917144,0.1069220955499698,490.5683973000014,1005,24,female,True,4904,4909,False,False,expiration,inspiration
60,0.32,25,up,up,0.3672336999989057,1.0781563448190563,,psi_staircase_training,cRDM,,0.2869994654585022,0.2948054563664417,0.11825142541907264,492.4683226000016,1005,24,female,True,4923,4927,False,False,inspiration,expiration
61,0.31,25,down,up,0.4002541000008932,0.8378785532060771,,psi_staircase_training,cRDM,,0.27015021402108264,0.2778148284044715,0.11610974017423024,494.00158559999915,1005,24,female,True,4939,4943,False,False,inspiration,inspiration
62,0.38,25,down,down,0.4003034999986994,0.7163581931357674,,psi_staircase_training,cRDM,,0.3313394524644535,0.3399496754430624,0.13043457933841146,495.418217800001,1005,24,female,True,4953,4957,False,False,expiration,expiration
63,0.36,25,down,down,0.40027179999742657,1.1071354676155776,,psi_staircase_training,cRDM,,0.3166296495450077,0.3252903298415915,0.1311989473531488,497.2348087999998,1005,24,female,True,4971,4975,False,False,inspiration,expiration
64,0.35000000000000003,25,down,down,0.3671978999991552,1.0060776023639877,,psi_staircase_training,cRDM,,0.3025428381838693,0.31119372235328696,0.13105054774384198,498.93475419999965,1005,24,female,True,4988,4992,False,False,expiration,inspiration
65,0.34,25,down,up,0.30049660000076983,1.3511856668544815,,psi_staircase_training,cRDM,,0.2896412496015933,0.298219555574762,0.12995107488229268,500.984676,1005,24,female,True,5008,5011,False,False,expiration,expiration
66,0.39,25,down,down,0.3835262000029616,0.8160407087048971,,psi_staircase_training,cRDM,,0.33837808172047845,0.3474052669010024,0.13675105796410034,502.5015698999996,1005,24,female,True,5024,5028,False,False,inspiration,expiration
67,0.39,25,up,down,0.3171300000030897,1.421840877167568,,psi_staircase_training,cRDM,,0.32736799621270257,0.33635514564027386,0.13614456419409685,504.6345569000005,1005,24,female,True,5045,5048,False,False,inspiration,inspiration
68,0.43,25,up,up,0.3170998999994481,0.5282231459600717,,psi_staircase_training,cRDM,,0.3707116340691333,0.38022096544182094,0.1440549960747312,505.86780830000123,1005,24,female,True,5057,5060,False,False,inspiration,peak
69,0.42,25,up,down,0.3504614000012225,1.0472201655265367,,psi_staircase_training,cRDM,,0.3613662212338349,0.3709331744005586,0.14492789733228228,507.6011400999996,1005,24,female,True,5075,5079,False,False,expiration,expiration
70,0.45,25,up,up,0.3835687999999209,0.6983384553875258,,psi_staircase_training,cRDM,,0.3978400136443061,0.4073384017655194,0.14388921890424505,508.98464460000105,1005,24,female,True,5089,5093,False,False,inspiration,expiration
71,0.45,25,down,up,0.5699658000012278,0.4553196564226398,,psi_staircase_training,cRDM,,0.3903316226672455,0.39991524743855655,0.14518045220068107,510.1343383000021,1005,24,female,True,5100,5106,False,False,expiration,expiration
72,0.44,25,up,down,0.3004710999994131,1.463418394879597,,psi_staircase_training,cRDM,,0.4187802566728255,0.42834792941638655,0.14493879806067445,512.4509185999996,1005,24,female,True,5123,5126,False,False,inspiration,peak
73,0.47,25,up,up,0.36718850000033854,1.4987243692321073,,psi_staircase_training,cRDM,,0.4400214649942221,0.4486359361592687,0.1304989342816376,514.6341694000001,1005,24,female,True,5145,5149,False,False,inspiration,peak
74,0.48,25,down,up,0.5361602999983006,1.501293832507143,,psi_staircase_training,cRDM,,0.4349933144942322,0.4437980222959697,0.13338079178325768,516.8340902999988,1005,24,female,True,5167,5172,False,False,inspiration,peak
75,0.46,25,up,down,0.4168176999992284,0.4870430675394817,,psi_staircase_training,cRDM,,0.4499968082792865,0.4590460099231239,0.13708458104915314,518.1506888000004,1005,24,female,True,5180,5184,False,False,expiration,expiration
76,0.52,25,down,up,0.26715390000026673,1.12948569255882,,psi_staircase_training,cRDM,,0.463263032717508,0.4710931043999603,0.11861622034964805,519.9672977000008,1005,24,female,True,5198,5201,False,False,inspiration,inspiration
77,0.53,25,down,down,0.31730679999964195,1.8157000012167284,,psi_staircase_training,cRDM,,0.46321592242955795,0.4735475723074045,0.15651213784319162,522.4837660000012,1005,24,female,True,5224,5227,False,False,inspiration,inspiration
78,0.52,25,up,down,0.317127199999959,1.3693401198716202,,psi_staircase_training,cRDM,,0.4622033406688003,0.4723784600091533,0.1541408874281569,524.567124600002,1005,24,female,True,5244,5247,False,False,expiration,trough
79,0.64,25,up,up,0.3671140999977069,0.8244558936549358,,psi_staircase_training,cRDM,,0.4669512038190032,0.4778828663061032,0.16560161119134398,526.1004598000001,1005,24,female,True,5260,5264,False,False,inspiration,peak
80,0.64,25,down,down,0.4799242000008235,1.8539194274746067,,psi_staircase_training,cRDM,,0.4665600703493394,0.4773919294632672,0.16408970946375756,528.6503121999995,1005,24,female,True,5285,5290,False,False,expiration,expiration
81,0.64,25,up,down,0.4702615999995032,0.513164739662174,,psi_staircase_training,cRDM,,0.4661795560800013,0.4769102670366086,0.16255743586483534,529.9169562000026,1005,24,female,True,5298,5303,False,False,expiration,expiration
82,0.65,25,down,up,0.26718240000263904,1.4782786373278234,,psi_staircase_training,cRDM,,0.4698532371682703,0.4816013014762514,0.17796912227001188,532.1335356000018,1005,24,female,True,5320,5323,False,False,expiration,expiration
83,100.0,25,M,up,0.7279424000007566,0.5021756233381918,,psi_staircase,emotion,,100.0,100.0,25.00050000000001,538.5332921000008,1005,24,female,True,5384,5391,False,False,inspiration,expiration
84,55.0,25,M,down,0.4710436999994272,0.5792873598032257,,psi_staircase,emotion,,54.742809467541896,54.742809467541896,25.00050000000011,540.1832288000005,1005,24,female,True,5400,5405,False,False,expiration,expiration
85,79.0,25,F,up,0.31711360000190325,0.9662641720450847,,psi_staircase,emotion,,79.636070985635,79.636070985635,25.71326925488641,541.9831564000016,1005,24,female,True,5418,5421,False,False,expiration,expiration
86,63.0,25,F,down,0.399873900001694,1.3311306157351794,,psi_staircase,emotion,,62.164016703383474,62.164016703383474,25.29232598628389,544.1000237000006,1005,24,female,True,5440,5444,False,False,expiration,expiration
87,73.0,25,M,down,0.5582356999984768,1.4556435218272519,,psi_staircase,emotion,,73.5393094419089,73.5393094419089,23.64975108561003,546.3330076999991,1005,24,female,True,5462,5468,False,False,expiration,expiration
88,87.0,25,F,down,0.6192829999999958,1.0724084803221456,,psi_staircase,emotion,,82.48355301883353,82.48355301883353,24.57617413513036,548.3329210000012,1005,24,female,True,5482,5488,False,False,inspiration,expiration
89,106.0,25,M,up,0.4933769000017492,1.6792652238171892,,psi_staircase,emotion,,93.47321971198342,93.47321971198342,30.115701177202173,550.982807700002,1005,24,female,True,5508,5513,False,False,peak,expiration
90,102.0,25,F,down,0.350201900000684,0.8525673616404414,,psi_staircase,emotion,,87.30823528954795,87.30823528954795,27.727353430799198,552.682744400001,1005,24,female,True,5525,5529,False,False,inspiration,inspiration
91,115.0,25,F,down,0.5501733999990392,1.1532426087948833,,psi_staircase,emotion,,96.9404855288635,96.9404855288635,32.816556691568714,554.6160273999994,1005,24,female,True,5545,5551,False,False,expiration,inspiration
92,125.0,25,M,up,0.4962764000010793,0.4551668665161411,,psi_staircase,emotion,,106.8358341678157,106.8358341678157,36.642177107061464,555.965968200002,1005,24,female,True,5558,5563,False,False,expiration,expiration
93,123.0,25,F,up,0.28352629999790224,1.9070787961200475,,psi_staircase,emotion,,102.46438011663628,102.46438011663628,35.491917489166006,558.7325463000016,1005,24,female,True,5586,5589,False,False,inspiration,inspiration
94,121.0,25,F,up,0.3501895000008517,0.3157474810487217,,psi_staircase,emotion,,99.14991772446527,99.14991772446527,34.434589811824544,559.815843700002,1005,24,female,True,5597,5601,False,False,peak,expiration
95,75.0,25,F,down,0.5354372000001604,1.3711225342111781,,psi_staircase,emotion,,96.48655220354998,96.48655220354998,33.46154115008314,561.9657766000018,1005,24,female,True,5618,5623,False,False,expiration,expiration
96,122.0,25,M,up,0.4489504000011948,1.6334797896119388,,psi_staircase,emotion,,98.85404018933977,98.85404018933977,32.48194682476375,564.4823295000024,1005,24,female,True,5643,5647,False,False,expiration,expiration
97,74.0,25,M,down,0.6073108999989927,1.866781134502352,,psi_staircase,emotion,,96.83283723374849,96.83283723374849,31.425688521443572,567.148905099999,1005,24,female,True,5670,5676,False,False,expiration,expiration
98,123.0,25,F,up,0.3334892000020773,1.8518088060805769,,psi_staircase,emotion,,98.64635810782805,98.64635810782805,30.364171306366895,569.9487845000002,1005,24,female,True,5698,5701,False,False,inspiration,inspiration
99,75.0,25,F,down,0.3669867999997223,1.99031967025833,,psi_staircase,emotion,,97.10489005924038,97.10489005924038,29.268364233767553,572.6985430999994,1005,24,female,True,5726,5730,False,False,inspiration,expiration
100,122.0,25,M,down,0.5536381999991136,1.0840493988258737,,psi_staircase,emotion,,98.60198666770869,98.60198666770869,28.16737587990784,574.5486191999988,1005,24,female,True,5744,5750,False,False,expiration,inspiration
101,130.0,25,M,down,0.4168134999999893,1.0976968948002803,,psi_staircase,emotion,,103.52040492178551,103.52040492178551,32.453617845945786,576.548550800002,1005,24,female,True,5764,5768,False,False,expiration,expiration
102,136.0,25,M,up,0.5047990000020945,1.874115063782881,,psi_staircase,emotion,,108.5872496044255,108.5872496044255,35.99826745773786,579.1984522999992,1005,24,female,True,5791,5796,False,False,expiration,expiration
103,135.0,25,M,up,0.5195463999989443,1.8452028993205711,,psi_staircase,emotion,,107.08605371266924,107.08605371266924,35.219116897412206,581.9316889000003,1005,24,female,True,5818,5823,False,False,expiration,expiration
104,79.0,25,F,down,0.4729359999982989,1.135347477618998,,psi_staircase,emotion,,105.77059811702928,105.77059811702928,34.466579337667,583.9482716999993,1005,24,female,True,5838,5843,False,False,peak,expiration
105,136.0,25,F,down,1.187095599998429,1.784096443343266,,psi_staircase,emotion,,106.99911933135313,106.99911933135313,33.737662339357236,586.5481789000005,1005,24,female,True,5864,5876,False,False,inspiration,expiration
106,141.0,25,F,up,1.0731161000003342,0.7206905923803859,,psi_staircase,emotion,,111.33697565318977,111.33697565318977,36.844402615271136,588.8480874000015,1005,24,female,True,5887,5898,False,False,inspiration,expiration
107,140.0,25,M,up,0.8156400000007125,1.803064032603724,,psi_staircase,emotion,,110.13868412350685,110.13868412350685,36.197335817136995,592.0815632000013,1005,24,female,True,5920,5928,False,False,expiration,expiration
108,80.0,25,M,down,1.0949923999978637,0.4612072826427534,,psi_staircase,emotion,,109.05727853951296,109.05727853951296,35.565418046943954,593.7312426999998,1005,24,female,True,5936,5947,False,False,expiration,expiration
109,141.0,25,F,up,0.4001664000024903,1.346470804501,,psi_staircase,emotion,,110.08951041100613,110.08951041100613,34.931104077261274,596.5144842000009,1005,24,female,True,5964,5968,False,False,inspiration,inspiration
110,80.0,25,F,down,0.5335158000016236,0.96826354435226,,psi_staircase,emotion,,109.16977250574853,109.16977250574853,34.27443154658036,598.2477594000012,1005,24,female,True,5981,5986,False,False,inspiration,inspiration
111,141.0,25,M,up,0.5449607999980799,0.4498277678754272,,psi_staircase,emotion,,110.08174697191372,110.08174697191372,33.610176082347444,599.5812866000015,1005,24,female,True,5995,6000,False,False,inspiration,inspiration
112,80.0,25,M,down,0.4810431999976572,1.7100605016570714,,psi_staircase,emotion,,109.27549994252684,109.27549994252684,32.937067906323264,602.1812017000011,1005,24,female,True,6021,6026,False,False,trough,inspiration
113,141.0,25,F,up,0.7087040999977035,0.7431853511055292,,psi_staircase,emotion,,110.08183843237629,110.08183843237629,32.256000144566194,603.7475288999995,1005,24,female,True,6036,6043,False,False,expiration,expiration
114,80.0,25,M,down,0.4537730000010925,1.895123210363474,,psi_staircase,emotion,,109.37628467090029,109.37628467090029,31.580363666691984,606.6974231999992,1005,24,female,True,6066,6071,False,False,expiration,inspiration
115,141.0,25,F,down,0.6188714999989315,1.2373047082065023,,psi_staircase,emotion,,110.08991187904816,110.08991187904816,30.89726568746903,608.7473676000009,1005,24,female,True,6086,6092,False,False,trough,inspiration
116,146.0,25,M,down,0.5716181999996479,1.6810002849254817,,psi_staircase,emotion,,113.20890937472963,113.20890937472963,34.254475304168054,611.4305935000011,1005,24,female,True,6113,6119,False,False,inspiration,expiration
117,149.0,25,F,up,0.4694786000000022,1.6108382134430848,,psi_staircase,emotion,,116.40052124228785,116.40052124228785,37.07734878284276,613.9807622000008,1005,24,female,True,6139,6144,False,False,inspiration,inspiration
118,149.0,25,M,,,1.0518071378705167,,psi_staircase,emotion,,115.62827413505327,115.62827413505327,36.5525706686488,615.8471100999997,1005,24,female,True,6157,0,False,False,expiration,0
119,149.0,25,F,up,0.6910692999990715,1.0518071378705167,,psi_staircase,emotion,,115.62827413505327,115.62827413505327,36.5525706686488,619.5801739000018,1005,24,female,True,6195,6202,False,False,expiration,inspiration
120,83.0,25,F,down,0.4507201000014902,1.5372545107108897,,psi_staircase,emotion,,114.92843603558123,114.92843603558123,36.03892651631148,622.1635031000005,1005,24,female,True,6220,6225,False,False,expiration,expiration
121,149.0,25,M,up,0.8951787999976659,0.5241400940772288,,psi_staircase,emotion,,115.61843549508568,115.61843549508568,35.52581689517469,623.4800703000002,1005,24,female,True,6234,6243,False,False,expiration,inspiration
122,83.0,25,M,down,0.5698772000032477,0.7618008916162664,,psi_staircase,emotion,,114.98432008028864,114.98432008028864,34.99828620920902,625.4803599000006,1005,24,female,True,6254,6260,False,False,expiration,expiration
123,149.0,25,F,up,0.38366989999849466,0.5066699180611273,,psi_staircase,emotion,,115.613733728095,115.613733728095,34.46990469762986,626.8798970000025,1005,24,female,True,6268,6272,False,False,inspiration,peak
124,83.0,25,F,down,0.3668188999981794,0.4070702387976392,,psi_staircase,emotion,,115.04011019720379,115.04011019720379,33.93588365177845,628.0466388000023,1005,24,female,True,6279,6283,False,False,expiration,expiration
125,149.0,25,F,up,0.5914090000005672,0.9761729900916364,,psi_staircase,emotion,,115.61441006182892,115.61441006182892,33.399972388881885,629.7797664999998,1005,24,female,True,6297,6303,False,False,peak,expiration
126,83.0,25,M,down,0.4970652000010887,1.7532676003482233,,psi_staircase,emotion,,115.09624425724364,115.09624425724364,32.867405497028734,632.4631360000021,1005,24,female,True,6323,6328,False,False,expiration,expiration
127,149.0,25,M,down,0.6691682999990007,1.6122721028977292,,psi_staircase,emotion,,115.62055387441185,115.62055387441185,32.332139642853534,634.9130532000017,1005,24,female,True,6348,6355,False,False,expiration,expiration
128,153.0,25,F,up,0.45661969999855495,0.4531362275565598,,psi_staircase,emotion,,118.11222541079708,118.11222541079708,35.120255931797736,636.4296565000004,1005,24,female,True,6363,6368,False,False,inspiration,inspiration
129,84.0,25,F,down,0.6225672000000486,0.8858943596776307,,psi_staircase,emotion,,117.6023231208783,117.6023231208783,34.63389958974815,638.12961,1005,24,female,True,6380,6386,False,False,expiration,expiration
130,153.0,25,F,up,0.44809600000007777,1.3051607551247992,,psi_staircase,emotion,,118.10188025637044,118.10188025637044,34.156393614645374,640.3961903000018,1005,24,female,True,6403,6407,False,False,expiration,expiration
131,84.0,25,M,down,0.5074322000000393,1.5784722124696575,,psi_staircase,emotion,,117.63624490494992,117.63624490494992,33.671226871582995,642.7627630999996,1005,24,female,True,6426,6431,False,False,peak,expiration
132,152.0,25,M,up,0.4815037999978813,1.0420003040445749,,psi_staircase,emotion,,118.09695868773649,118.09695868773649,33.193265714719765,644.6626993999997,1005,24,female,True,6445,6450,False,False,inspiration,inspiration
133,85.0,25,M,down,0.6446980000000622,1.7527739312323618,,psi_staircase,emotion,,117.65648084917768,117.65648084917768,32.709511067624696,647.2626106000025,1005,24,female,True,6471,6477,False,False,inspiration,inspiration
134,0.29,25,up,up,0.6252024999994319,1.2289414291642915,,psi_staircase,cRDM,,0.25,0.25693124029946324,0.10500000000000002,654.2789866000021,1005,24,female,True,6541,6547,False,False,expiration,expiration
135,0.25,25,up,up,0.4663000000000466,0.5942682708028432,,psi_staircase,cRDM,,0.21910266653183127,0.2260132002683493,0.10468632033873933,655.7789675000022,1005,24,female,True,6556,6561,False,False,inspiration,peak
136,0.21,25,down,up,0.4480101999979525,1.111704534250029,,psi_staircase,cRDM,,0.1900540959403307,0.19684979615540016,0.10294672984249993,657.6122228999992,1005,24,female,True,6575,6579,False,False,expiration,inspiration
137,0.32,25,down,up,0.6317495000002964,1.1166628888984056,,psi_staircase,cRDM,,0.28193877959813873,0.2893209636160949,0.11183125795615867,659.4454800999993,1005,24,female,True,6593,6599,False,False,expiration,expiration
138,0.41,25,up,up,0.6550637000000279,0.6752614479754347,,psi_staircase,cRDM,,0.3628077164667927,0.3703536552616306,0.1143119469569305,661.0121151999992,1005,24,female,True,6609,6616,False,False,inspiration,expiration
139,0.39,25,down,down,0.5275557000022673,1.7298481675289372,,psi_staircase,cRDM,,0.3475534898441172,0.3552111072502436,0.11600374433786904,663.6786317000007,1005,24,female,True,6635,6640,False,False,inspiration,peak
140,0.37,25,up,up,0.5888851000017894,1.2838838103533456,,psi_staircase,cRDM,,0.3321628282947061,0.3398871344235409,0.11701399871974688,665.745262299999,1005,24,female,True,6656,6662,False,False,trough,inspiration
141,0.36,25,up,down,0.3671270999984699,1.6136956531023592,,psi_staircase,cRDM,,0.3165238490976817,0.3243181043171169,0.11807364377542645,668.2118203999999,1005,24,female,True,6681,6685,False,False,inspiration,inspiration
142,0.41,25,down,down,0.4701213999978791,0.749209636664802,,psi_staircase,cRDM,,0.3714353000240396,0.3791155026409027,0.11634588326609868,669.6451042000008,1005,24,female,True,6695,6700,False,False,trough,inspiration
143,0.41,25,down,down,0.5418097000001579,0.4512009355454242,,psi_staircase,cRDM,,0.3609133655943167,0.368512902062068,0.11512388759276908,670.828383,1005,24,female,True,6707,6712,False,False,inspiration,peak
144,0.4,25,down,down,0.38385089999792404,0.5544773616135816,,psi_staircase,cRDM,,0.3517908874644582,0.3592062631479879,0.11233407198866334,672.1949626999995,1005,24,female,True,6721,6725,False,False,expiration,expiration
145,0.39,25,down,down,0.3672996000022977,0.8248344898271207,,psi_staircase,cRDM,,0.3433422806502563,0.3505516063575317,0.10921266130717502,673.6948187000016,1005,24,female,True,6736,6740,False,False,inspiration,expiration
146,0.35000000000000003,25,down,up,0.4168590000008408,1.5474152019921983,,psi_staircase,cRDM,,0.3351615115700865,0.3422020824563303,0.1066562276181424,675.9282024000022,1005,24,female,True,6758,6762,False,False,inspiration,inspiration
147,0.4,25,down,down,0.35052450000148383,1.7392537439035831,,psi_staircase,cRDM,,0.36753200784691226,0.3731544284185725,0.08517294661823266,678.3614393999998,1005,24,female,True,6782,6786,False,False,inspiration,inspiration
148,0.4,25,up,up,0.3338253000001714,1.1539329492234922,,psi_staircase,cRDM,,0.36263986654153735,0.3678615119827057,0.0791016827630613,680.2114136000017,1005,24,female,True,6801,6804,False,False,expiration,expiration
149,0.39,25,up,down,0.4869152000028407,1.3701353547486168,,psi_staircase,cRDM,,0.35890645410034994,0.3637214499633505,0.07294142805209193,682.2612953999998,1005,24,female,True,6821,6826,False,False,expiration,expiration
150,0.42,25,up,down,0.3504864999995334,1.4774002680956395,,psi_staircase,cRDM,,0.3799679425511756,0.3866216176110287,0.10079521861890668,684.4945509999998,1005,24,female,True,6844,6848,False,False,expiration,expiration
151,0.43,25,up,up,0.4970979999998235,1.5280123653038342,,psi_staircase,cRDM,,0.4050574085342821,0.4139900766899868,0.13531923809099775,686.7111468000003,1005,24,female,True,6866,6871,False,False,inspiration,expiration
152,0.43,25,down,down,0.3671713000003365,1.5972233441815156,,psi_staircase,cRDM,,0.3982189835691851,0.40714918153226254,0.13528181762732122,689.0776903000004,1005,24,female,True,6889,6893,False,False,inspiration,peak
153,0.43,25,up,up,0.4758598000007623,1.5337196592936881,,psi_staircase,cRDM,,0.39180011608114185,0.4006420093844469,0.133944107653997,691.2943288999995,1005,24,female,True,6912,6917,False,False,inspiration,inspiration
154,0.42,25,up,up,0.5657762000009825,1.2554580324526123,,psi_staircase,cRDM,,0.3858531411191824,0.3945368155918219,0.13154728161679133,693.2774472000018,1005,24,female,True,6932,6938,False,False,expiration,inspiration
155,0.42,25,down,up,0.5634404999982507,1.5713281287030332,,psi_staircase,cRDM,,0.380049109607115,0.3885475694162742,0.12874150100247078,695.6777435000004,1005,24,female,True,6956,6962,False,False,expiration,expiration
156,0.45,25,up,down,0.3839664000006451,0.9024307106306609,,psi_staircase,cRDM,,0.4023384060282576,0.41184597154119795,0.1440282454117262,697.3941071000007,1005,24,female,True,6973,6977,False,False,inspiration,inspiration
157,0.45,25,down,up,0.5028295000010985,0.4946222615791418,,psi_staircase,cRDM,,0.4224659336616388,0.4323022065044071,0.1490077682879705,698.5773945000002,1005,24,female,True,6985,6990,False,False,expiration,expiration
158,0.45,25,down,up,0.5738873999980569,1.3965196692864927,,psi_staircase,cRDM,,0.4387083220358409,0.4482301918490968,0.14424493845196712,700.7272986999997,1005,24,female,True,7006,7012,False,False,inspiration,inspiration
159,0.52,25,up,up,0.4168084999982966,0.8795361039597873,,psi_staircase,cRDM,,0.4515384327634405,0.4603775571349225,0.1339021616488287,702.4438661000023,1005,24,female,True,7023,7027,False,False,expiration,expiration
160,0.52,25,up,up,0.4002873999997973,1.1967226100823367,,psi_staircase,cRDM,,0.4505721025587984,0.4591350833433783,0.12971891660580678,704.3271547000003,1005,24,female,True,7042,7046,False,False,expiration,expiration
161,0.45,25,down,up,0.3838445000001229,0.6284107272554036,,psi_staircase,cRDM,,0.4497421664219565,0.4580117045041885,0.12527361065545495,705.6270681000025,1005,24,female,True,7055,7059,False,False,expiration,expiration
162,0.52,25,up,down,0.5233690999993996,0.8883103111874797,,psi_staircase,cRDM,,0.4611402109543368,0.4682090360926949,0.10708424574243727,707.1937696999994,1005,24,female,True,7071,7076,False,False,expiration,inspiration
163,0.52,25,down,up,0.4002782999996271,0.9638817972804417,,psi_staircase,cRDM,,0.4614727373979446,0.4712245090345874,0.14772767608804152,708.9602890000025,1005,24,female,True,7088,7092,False,False,expiration,expiration
164,0.64,25,down,up,0.4819562999982736,0.5643523413673843,,psi_staircase,cRDM,,0.4664932449730772,0.4770306834832443,0.1596295894766812,710.2102726000012,1005,24,female,True,7101,7106,False,False,expiration,expiration
165,0.64,25,down,up,0.3838042999996105,1.0883704201090028,,psi_staircase,cRDM,,0.4703765856586886,0.48200539526208797,0.17616255613753412,712.0435400999995,1005,24,female,True,7119,7123,False,False,peak,expiration
166,0.65,25,up,up,0.4667344000008598,1.3298478415455754,,psi_staircase,cRDM,,0.4740359227693041,0.4863871121760951,0.18710574611206074,714.0434604000003,1005,24,female,True,7139,7144,False,False,expiration,expiration
167,0.65,25,up,up,0.471121000002313,0.9392866616302398,,psi_staircase,cRDM,,0.4736431440846719,0.4859426659251566,0.18632304428269397,715.7100620999989,1005,24,female,True,7156,7161,False,False,inspiration,expiration
168,0.65,25,up,up,0.4467828999986523,1.1412123758583792,,psi_staircase,cRDM,,0.4732508104457319,0.4854962910312825,0.1855043839098147,717.5933635000001,1005,24,female,True,7175,7179,False,False,expiration,inspiration
169,0.65,25,down,down,0.4236350999999559,1.1715012420823652,,psi_staircase,cRDM,,0.4728595134034697,0.48504855169811706,0.1846493507139088,719.4765364000014,1005,24,female,True,7194,7198,False,False,expiration,expiration
170,0.65,25,down,up,0.6033334999992803,1.2452201294907663,,psi_staircase,cRDM,,0.4724698666331859,0.4846000429026047,0.1837576614372468,721.4098689999993,1005,24,female,True,7213,7219,False,False,peak,expiration
171,0.64,25,up,up,0.7733722000011767,0.83096730071366,,psi_staircase,cRDM,,0.4758249768808001,0.4884860189302636,0.1917996430302117,723.1098091999993,1005,24,female,True,7230,7238,False,False,trough,peak
172,0.64,25,down,down,0.5212231000004977,1.3871224596800922,,psi_staircase,cRDM,,0.4754196213848719,0.4880449902948282,0.19125923763573294,725.5430129000015,1005,24,female,True,7254,7259,False,False,inspiration,expiration
173,0.65,25,up,up,0.41680439999981894,0.4813949592684674,,psi_staircase,cRDM,,0.4750113855505669,0.4875991199628539,0.19068912001110053,726.8096525000002,1005,24,female,True,7267,7271,False,False,expiration,expiration
174,0.65,25,up,down,0.41991629999756697,1.5453497528246625,,psi_staircase,cRDM,,0.474626260434836,0.4871751377237191,0.1901004810689872,729.0262385999995,1005,24,female,True,7289,7293,False,False,expiration,expiration
175,0.64,25,up,down,0.4706783000001451,0.6385658946373451,,psi_staircase,cRDM,,0.4777757075716525,0.49065776546520395,0.1951477687085325,730.3594972999998,1005,24,female,True,7302,7307,False,False,expiration,inspiration
176,0.63,25,down,up,0.5298418999991554,1.2893428005650822,,psi_staircase,cRDM,,0.4805348367662346,0.4935768604281733,0.1975710587626889,732.376372499999,1005,24,female,True,7323,7328,False,False,expiration,expiration
177,0.61,25,down,up,0.6144902999985788,0.7556247914421168,,psi_staircase,cRDM,,0.4828594396727942,0.4959779418952495,0.1987296174776208,733.9427250000008,1005,24,female,True,7338,7344,False,False,inspiration,expiration
178,0.6,25,up,down,0.4320041999999376,1.9503071730780568,,psi_staircase,cRDM,,0.4847697582052976,0.4979230665299253,0.1992568882935506,736.7592697000001,1005,24,female,True,7366,7370,False,False,inspiration,peak
179,0.59,25,down,down,0.9370086999988416,1.0029693090535974,,psi_staircase,cRDM,,0.4863606129253532,0.4995324892434709,0.19953817118553324,738.4592018000003,1005,24,female,True,7383,7392,False,False,expiration,inspiration
180,0.59,25,down,down,0.7354118000002927,1.1062321789425027,,psi_staircase,cRDM,,0.4860901866546785,0.4992599629424916,0.1995063582382872,740.7757621000019,1005,24,female,True,7407,7414,False,False,expiration,inspiration
181,0.59,25,up,up,0.7220768000006501,0.7342534242388234,,psi_staircase,cRDM,,0.4858130836160955,0.4989806203441212,0.19947243158627184,742.5090727999997,1005,24,female,True,7424,7431,False,False,inspiration,expiration
182,0.59,25,up,up,0.6822672000016611,1.7850996897459404,,psi_staircase,cRDM,,0.4855291323024994,0.4986942812184591,0.1994362590895616,745.2759102000017,1005,24,female,True,7452,7459,False,False,expiration,expiration
183,0.59,25,down,down,0.5616717000011704,1.155616377901717,,psi_staircase,cRDM,,0.4852381587748783,0.4984007624179267,0.199397701249386,747.3754948000023,1005,24,female,True,7473,7479,False,False,inspiration,expiration
184,130.0,25,F,up,1.1071620999973677,1.4707628418929355,,experiment,emotion,0.0,,,,753.4920050000002,1005,24,female,True,7534,7545,False,False,inspiration,expiration
185,105.0,25,M,down,0.9979721999989124,1.0493539458131975,,experiment,emotion,0.0,,,,755.9252412000022,1005,24,female,True,7558,7568,False,False,inspiration,expiration
186,122.0,25,F,up,0.4393071000013151,1.1276945964213565,,experiment,emotion,0.0,,,,758.3418181000015,1005,24,female,True,7582,7586,False,False,inspiration,inspiration
187,130.0,25,M,up,0.5351038000007975,1.6357309595570901,,experiment,emotion,0.0,,,,760.6750544999995,1005,24,female,True,7606,7611,False,False,inspiration,inspiration
188,122.0,25,F,up,0.4685399000009056,0.4163548146537928,,experiment,emotion,0.0,,,,761.8916926999991,1005,24,female,True,7618,7623,False,False,expiration,expiration
189,113.0,25,F,up,0.3335116000016569,0.6535613035622938,,experiment,emotion,0.0,,,,763.2916498000012,1005,24,female,True,7632,7635,False,False,inspiration,inspiration
190,105.0,25,M,down,0.6429950000019744,0.9858988085324004,,experiment,emotion,0.0,,,,764.9582169999994,1005,24,female,True,7648,7654,False,False,expiration,expiration
191,113.0,25,F,down,0.4279893999992055,0.7927555027099153,,experiment,emotion,0.0,,,,766.6581642000018,1005,24,female,True,7665,7669,False,False,inspiration,expiration
192,130.0,25,M,up,0.5651118999994651,1.95486159770522,,experiment,emotion,0.0,,,,769.3080752999996,1005,24,female,True,7692,7698,False,False,inspiration,expiration
193,113.0,25,M,up,0.4002001999979257,1.1047903652695747,,experiment,emotion,0.0,,,,771.2579858999997,1005,24,female,True,7711,7715,False,False,inspiration,inspiration
194,122.0,25,F,up,0.3832470999986981,0.8258717861902938,,experiment,emotion,0.0,,,,772.7748816999992,1005,24,female,True,7727,7731,False,False,expiration,expiration
195,130.0,25,M,up,0.4803051999988384,1.4964675028089578,,experiment,emotion,0.0,,,,774.9578705999992,1005,24,female,True,7748,7753,False,False,expiration,expiration
196,122.0,25,M,up,0.3502411999979813,1.2433464893072337,,experiment,emotion,0.0,,,,776.9578072000003,1005,24,female,True,7768,7772,False,False,inspiration,expiration
197,105.0,25,M,up,0.7347593000013148,0.7749363847809798,,experiment,emotion,0.0,,,,778.424407999999,1005,24,female,True,7783,7790,False,False,expiration,inspiration
198,113.0,25,F,down,1.2821925000025658,1.0715074145109849,,experiment,emotion,0.0,,,,780.4909941000004,1005,24,female,True,7804,7817,False,False,expiration,inspiration
199,105.0,25,F,up,0.6345418999990216,1.646497190233355,,experiment,emotion,0.0,,,,783.6906567000004,1005,24,female,True,7836,7842,False,False,expiration,trough
200,130.0,25,M,up,0.7233947999993688,1.6318966512296167,,experiment,emotion,0.0,,,,786.2407750999993,1005,24,female,True,7861,7868,False,False,expiration,expiration
201,105.0,25,M,up,0.6044992000024649,0.8177252915945512,,experiment,emotion,0.0,,,,788.0407030000024,1005,24,female,True,7879,7885,False,False,inspiration,expiration
202,122.0,25,F,up,0.9091957999989972,1.5551271894657075,,experiment,emotion,0.0,,,,790.4739520000003,1005,24,female,True,7903,7912,False,False,inspiration,expiration
203,122.0,25,F,up,0.5627571999975771,0.4247552664521519,,experiment,emotion,0.0,,,,792.0744173000021,1005,24,female,True,7920,7926,False,False,expiration,expiration
204,113.0,25,M,down,0.28351090000069235,0.5159691425188575,,experiment,emotion,0.0,,,,793.4238666999989,1005,24,female,True,7933,7936,False,False,inspiration,peak
205,113.0,25,F,,,0.8529955979811163,,experiment,emotion,0.0,,,,794.9571075000023,1005,24,female,True,7948,0,False,False,expiration,0
206,105.0,25,M,up,0.5065680000006978,1.3710554034173936,,experiment,emotion,0.0,,,,799.0236273000011,1005,24,female,True,7989,7994,False,False,expiration,expiration
207,130.0,25,F,up,0.7912442000015291,1.4954609439167144,,experiment,emotion,0.0,,,,801.306919300001,1005,24,female,True,8012,8020,False,False,inspiration,expiration
208,122.0,25,F,down,0.5621620000019902,0.8239515223754845,,experiment,emotion,0.0,,,,803.1900086999996,1005,24,female,True,8031,8037,False,False,expiration,expiration
209,105.0,25,M,down,0.8787245999992592,0.7446833643916817,,experiment,emotion,0.0,,,,804.7734292999994,1005,24,female,True,8047,8056,False,False,expiration,expiration
210,130.0,25,M,up,0.6801866000023438,1.0130656554814443,,experiment,emotion,0.0,,,,806.9400110999995,1005,24,female,True,8068,8075,False,False,inspiration,expiration
211,130.0,25,F,up,0.7488688000012189,0.7221209412121901,,experiment,emotion,0.0,,,,808.6232796000003,1005,24,female,True,8085,8092,False,False,expiration,expiration
212,113.0,25,M,up,0.6229529999982333,1.9216541260030768,,experiment,emotion,0.0,,,,811.5731637999997,1005,24,female,True,8114,8120,False,False,expiration,expiration
213,105.0,25,F,down,1.0077190999982122,0.7816801905923547,,experiment,emotion,0.0,,,,813.256456700001,1005,24,female,True,8131,8141,False,False,inspiration,expiration
214,113.0,25,M,down,0.93645319999996,0.7548503793414112,,experiment,emotion,0.0,,,,815.2897124000011,1005,24,female,True,8152,8161,False,False,expiration,inspiration
215,122.0,25,F,up,0.7938331000004837,0.6555325382942049,,experiment,emotion,0.0,,,,817.1563124999992,1005,24,female,True,8170,8178,False,False,expiration,inspiration
216,105.0,25,M,down,0.6379111999995075,0.4924976565309807,,experiment,emotion,0.0,,,,818.7062532999989,1005,24,female,True,8186,8192,False,False,expiration,expiration
217,130.0,25,F,up,0.514358500000526,0.6153135573016486,,experiment,emotion,0.0,,,,820.2228595000015,1005,24,female,True,8201,8206,False,False,expiration,inspiration
218,122.0,25,M,up,0.6154117000005499,1.1266679697368764,,experiment,emotion,0.0,,,,822.1227662999991,1005,24,female,True,8220,8226,False,False,expiration,expiration
219,130.0,25,F,up,0.6123953999995138,1.3614387177837426,,experiment,emotion,0.0,,,,824.3727123999997,1005,24,female,True,8243,8249,False,False,expiration,expiration
220,105.0,25,M,down,0.6782153000021935,0.7275680531201233,,experiment,emotion,0.0,,,,826.0059842000011,1005,24,female,True,8259,8266,False,False,inspiration,expiration
221,122.0,25,F,down,0.8172631000015826,1.0953821951828946,,experiment,emotion,0.0,,,,828.0558960000017,1005,24,female,True,8279,8287,False,False,inspiration,peak
222,113.0,25,M,down,0.8073728000017582,0.5821271516390092,,experiment,emotion,0.0,,,,829.7558370000006,1005,24,female,True,8296,8304,False,False,expiration,expiration
223,113.0,25,F,down,1.1317794999995383,1.9992700757808568,,experiment,emotion,0.0,,,,832.8223916999997,1005,24,female,True,8327,8338,False,False,expiration,peak
224,122.0,25,F,down,1.422188399999868,1.0205052219648303,,experiment,emotion,0.0,,,,835.2389705000023,1005,24,female,True,8351,8365,False,False,expiration,expiration
225,130.0,25,M,down,1.4126049999977113,0.978415605653222,,experiment,emotion,0.0,,,,837.9055461999997,1005,24,female,True,8378,8392,False,False,expiration,expiration
226,113.0,25,F,down,1.1257325000005949,0.4198139058881484,,experiment,emotion,0.0,,,,840.0054593999994,1005,24,female,True,8399,8410,False,False,expiration,inspiration
227,105.0,25,M,down,0.6641169999966223,0.7962747970512554,,experiment,emotion,0.0,,,,842.2220386000008,1005,24,female,True,8421,8428,False,False,expiration,expiration
228,105.0,25,M,down,0.6916870999993989,1.6164181076649522,,experiment,emotion,0.0,,,,844.7884718999994,1005,24,female,True,8447,8454,False,False,expiration,expiration
229,113.0,25,F,up,0.8149869000008039,0.8516783485174928,,experiment,emotion,0.0,,,,846.6052239999989,1005,24,female,True,8465,8473,False,False,inspiration,expiration
230,130.0,25,F,up,0.6193657000003441,1.239560956664556,,experiment,emotion,0.0,,,,848.9217890000001,1005,24,female,True,8488,8494,False,False,inspiration,peak
231,122.0,25,M,up,0.8825920999988739,1.4497059496421858,,experiment,emotion,0.0,,,,851.2715857000003,1005,24,female,True,8512,8521,False,False,inspiration,inspiration
232,105.0,25,F,down,0.6128649999991467,1.8693331462694385,,experiment,emotion,0.0,,,,854.2882881000005,1005,24,female,True,8542,8548,False,False,expiration,expiration
233,130.0,25,M,up,0.6546077999992121,0.3056119916097723,,experiment,emotion,0.0,,,,855.4715324999997,1005,24,female,True,8553,8560,False,False,expiration,expiration
234,122.0,25,M,up,0.7836881000002904,1.9341222731890908,,experiment,emotion,0.0,,,,858.3214649000001,1005,24,female,True,8582,8590,False,False,expiration,expiration
235,122.0,25,M,up,0.6758005999981833,1.1035294653792218,,experiment,emotion,0.0,,,,860.4713584000018,1005,24,female,True,8603,8610,False,False,inspiration,expiration
236,105.0,25,M,down,0.7758786999984295,1.511069073049644,,experiment,emotion,0.0,,,,862.9212795999993,1005,24,female,True,8628,8636,False,False,inspiration,inspiration
237,113.0,25,M,down,1.045945000001666,1.7350057115451387,,experiment,emotion,0.0,,,,865.7211919000001,1005,24,female,True,8656,8666,False,False,expiration,inspiration
238,130.0,25,F,up,0.9280787999996392,0.7772934379594009,,experiment,emotion,0.0,,,,867.8210838000014,1005,24,female,True,8677,8686,False,False,expiration,expiration
239,113.0,25,F,down,0.8848427999982958,1.479532077450116,,experiment,emotion,0.0,,,,870.5043326000014,1005,24,female,True,8704,8713,False,False,expiration,inspiration
240,113.0,25,F,down,0.8495709000017087,0.4818529682847063,,experiment,emotion,0.0,,,,872.1375976000016,1005,24,female,True,8720,8728,False,False,inspiration,expiration
241,113.0,25,M,up,0.8809376999997767,0.442361718724268,,experiment,emotion,0.0,,,,873.704211600001,1005,24,female,True,8736,8745,False,False,expiration,trough
242,130.0,25,F,up,1.0956675999987056,0.7158512547709266,,experiment,emotion,0.0,,,,875.5874764,1005,24,female,True,8755,8766,False,False,expiration,expiration
243,122.0,25,F,up,0.7090505000014673,0.3547480838413978,,experiment,emotion,0.0,,,,877.3040951000003,1005,24,female,True,8772,8779,False,False,expiration,inspiration
244,105.0,25,F,down,0.6627879000006942,0.5104501136322109,,experiment,emotion,0.0,,,,878.7873679000003,1005,24,female,True,8787,8794,False,False,expiration,expiration
245,105.0,25,M,down,0.5092518000019481,1.473716000665163,,experiment,emotion,0.0,,,,881.2039377000001,1005,24,female,True,8811,8816,False,False,expiration,expiration
246,122.0,25,F,down,0.4403153999992355,1.6755819030834098,,experiment,emotion,0.0,,,,883.6538610999997,1005,24,female,True,8835,8839,False,False,expiration,expiration
247,130.0,25,M,down,0.6490187999988848,1.8791105378293955,,experiment,emotion,0.0,,,,886.2370785999992,1005,24,female,True,8861,8867,False,False,inspiration,expiration
248,130.0,25,M,up,1.0572132999986934,1.9250871784198391,,experiment,emotion,0.0,,,,889.0870073000007,1005,24,female,True,8890,8901,False,False,expiration,expiration
249,105.0,25,F,down,0.7759211999982654,0.9000338773764596,,experiment,emotion,0.0,,,,891.3202287999992,1005,24,female,True,8912,8920,False,False,inspiration,expiration
250,130.0,25,M,down,2.303024799999548,1.5543819039888371,,experiment,emotion,0.0,,,,893.9201312000005,1005,24,female,True,8938,8961,False,False,inspiration,peak
251,113.0,25,F,down,0.7481870000010531,1.7546658410667373,,experiment,emotion,0.0,,,,898.2700054000015,1005,24,female,True,8982,8989,False,False,expiration,inspiration
252,122.0,25,M,down,0.8512161999969976,1.9910766264157531,,experiment,emotion,0.0,,,,901.3198541999992,1005,24,female,True,9012,9021,False,False,inspiration,inspiration
253,113.0,25,F,down,0.7417042999986734,1.2377657008635952,,experiment,emotion,0.0,,,,903.686444400002,1005,24,female,True,9036,9043,False,False,expiration,inspiration
254,105.0,25,M,down,0.7534253999983775,0.5916309605345182,,experiment,emotion,0.0,,,,905.3197056999996,1005,24,female,True,9052,9060,False,False,expiration,expiration
255,122.0,25,F,down,0.8486402000016824,0.724063166662963,,experiment,emotion,0.0,,,,907.0695416000017,1005,24,female,True,9070,9078,False,False,trough,inspiration
256,113.0,25,F,down,0.8127996000002895,1.3938876605725818,,experiment,emotion,0.0,,,,909.5693537000006,1005,24,female,True,9095,9103,False,False,expiration,inspiration
257,122.0,25,F,down,2.134999600002629,1.9249621173939893,,experiment,emotion,0.0,,,,912.5861422000016,1005,24,female,True,9125,9146,False,False,inspiration,inspiration
258,105.0,25,F,down,0.7361494999968272,0.7020619368041681,,experiment,emotion,0.0,,,,915.6859942000011,1005,24,female,True,9156,9163,False,False,inspiration,peak
259,130.0,25,F,up,0.6445736999994551,1.071183292380019,,experiment,emotion,0.0,,,,917.8025884000017,1005,24,female,True,9177,9183,False,False,expiration,inspiration
260,122.0,25,M,up,0.6514965999995184,1.3761918767627144,,experiment,emotion,0.0,,,,920.0857083000011,1005,24,female,True,9200,9207,False,False,trough,inspiration
261,130.0,25,M,up,0.5793260999998893,0.5333224487828686,,experiment,emotion,0.0,,,,921.5357898000003,1005,24,female,True,9214,9220,False,False,expiration,inspiration
262,105.0,25,M,up,0.9618183000020508,1.9098306107493144,,experiment,emotion,0.0,,,,924.3023434999997,1005,24,female,True,9242,9252,False,False,peak,expiration
263,113.0,25,M,up,0.8125647999986542,1.3045934261545264,,experiment,emotion,0.0,,,,926.8355914000023,1005,24,female,True,9267,9275,False,False,expiration,expiration
264,0.4849399868747158,25,up,up,0.719628200000443,0.4780172885104525,,experiment,cRDM,0.0,,,,938.1185012000025,1005,24,female,True,9380,9387,False,False,expiration,inspiration
265,0.4849399868747158,25,up,up,0.6003870999993524,1.0614975386921237,,experiment,cRDM,0.0,,,,940.1517519000008,1005,24,female,True,9400,9406,False,False,expiration,expiration
266,0.4849399868747158,25,down,down,0.5750832000012451,1.97771495274466,,experiment,cRDM,0.0,,,,942.9850349000008,1005,24,female,True,9429,9435,False,False,expiration,expiration
267,0.4849399868747158,25,down,up,0.455225599998812,1.656952048050667,,experiment,cRDM,0.0,,,,945.4849122000014,1005,24,female,True,9454,9459,False,False,expiration,expiration
268,0.4849399868747158,25,up,up,0.5033981999986281,1.4274386989708123,,experiment,cRDM,0.0,,,,947.6348013999997,1005,24,female,True,9475,9480,False,False,inspiration,inspiration
269,0.4849399868747158,25,down,down,0.6461500999976124,0.38131911237334426,,experiment,cRDM,0.0,,,,948.7679578000025,1005,24,female,True,9487,9493,False,False,expiration,expiration
270,0.4849399868747158,25,up,up,0.5176883999993152,0.4721448785882969,,experiment,cRDM,0.0,,,,950.1513890000025,1005,24,female,True,9500,9505,False,False,inspiration,inspiration
271,0.4849399868747158,25,up,down,0.9015005000001112,0.3413051347048977,,experiment,cRDM,0.0,,,,951.284636700002,1005,24,female,True,9512,9521,False,False,expiration,expiration
272,0.4849399868747158,25,down,up,0.6212307999994664,1.1817375182931715,,experiment,cRDM,0.0,,,,953.617925999999,1005,24,female,True,9535,9541,False,False,peak,expiration
273,0.4849399868747158,25,down,up,0.8103114000005007,1.8127367696258485,,experiment,cRDM,0.0,,,,956.3178133,1005,24,female,True,9562,9570,False,False,peak,expiration
274,0.4849399868747158,25,down,up,0.5374004000004788,0.4216904440359786,,experiment,cRDM,0.0,,,,957.8177655,1005,24,female,True,9577,9582,False,False,expiration,inspiration
275,0.4849399868747158,25,down,up,0.7861327999999048,0.8739776758343414,,experiment,cRDM,0.0,,,,959.5010330000003,1005,24,female,True,9594,9602,False,False,expiration,expiration
276,0.4849399868747158,25,down,down,1.0999120000014957,1.9819957677676587,,experiment,cRDM,0.0,,,,962.5342530000016,1005,24,female,True,9624,9635,False,False,expiration,inspiration
277,0.4849399868747158,25,down,down,0.598957900001551,0.9967250679112394,,experiment,cRDM,0.0,,,,964.8842127999997,1005,24,female,True,9648,9654,False,False,inspiration,expiration
278,0.4849399868747158,25,up,up,0.5783484000021417,0.9535445484341378,,experiment,cRDM,0.0,,,,966.7007807000008,1005,24,female,True,9666,9672,False,False,inspiration,inspiration
279,0.4849399868747158,25,up,down,0.6221656000016083,1.6921350737353424,,experiment,cRDM,0.0,,,,969.2339917999997,1005,24,female,True,9691,9697,False,False,expiration,inspiration
280,0.4849399868747158,25,up,up,0.5550311000006332,0.8636098689079743,,experiment,cRDM,0.0,,,,970.9671055,1005,24,female,True,9709,9715,False,False,expiration,expiration
281,0.4849399868747158,25,up,up,0.6245739999976649,0.8106886554664416,,experiment,cRDM,0.0,,,,972.6005531000011,1005,24,female,True,9725,9731,False,False,inspiration,expiration
282,0.4849399868747158,25,down,down,0.6020096000029298,0.3738590048559113,,experiment,cRDM,0.0,,,,973.8671231000008,1005,24,female,True,9738,9744,False,False,expiration,expiration
283,0.4849399868747158,25,up,up,0.5753590999993321,1.6414937030437151,,experiment,cRDM,0.0,,,,976.3837683999992,1005,24,female,True,9763,9769,False,False,expiration,expiration
284,0.4849399868747158,25,up,down,0.5428054000003613,1.8826874932950195,,experiment,cRDM,0.0,,,,979.1003376000008,1005,24,female,True,9790,9795,False,False,expiration,expiration
285,0.4849399868747158,25,down,down,0.5132348000006459,0.6524641121503101,,experiment,cRDM,0.0,,,,980.5668684000012,1005,24,female,True,9805,9810,False,False,inspiration,peak
286,0.4849399868747158,25,up,up,0.522993000002316,1.9111412564825416,,experiment,cRDM,0.0,,,,983.2501456999997,1005,24,female,True,9831,9836,False,False,inspiration,peak
287,0.4849399868747158,25,down,down,0.4247003000018594,0.3438849206778199,,experiment,cRDM,0.0,,,,984.3834762000006,1005,24,female,True,9843,9847,False,False,expiration,expiration
288,0.4849399868747158,25,down,down,0.7021018999985245,1.1878471791210348,,experiment,cRDM,0.0,,,,986.2500256999992,1005,24,female,True,9861,9868,False,False,inspiration,expiration
289,0.4849399868747158,25,up,up,0.5368846000019403,1.4776295789535787,,experiment,cRDM,0.0,,,,988.6833158000007,1005,24,female,True,9886,9891,False,False,inspiration,peak
290,0.4849399868747158,25,up,down,0.5049152999999933,1.8539556961343258,,experiment,cRDM,0.0,,,,991.3332028000003,1005,24,female,True,9912,9917,False,False,inspiration,inspiration
291,0.4849399868747158,25,down,down,0.8446332999992592,1.1195745952479952,,experiment,cRDM,0.0,,,,993.2164861999989,1005,24,female,True,9931,9939,False,False,peak,expiration
292,0.4849399868747158,25,up,down,0.5290456000002449,1.3520377329984972,,experiment,cRDM,0.0,,,,995.6830603000017,1005,24,female,True,9956,9961,False,False,expiration,expiration
293,0.4849399868747158,25,down,down,2.0988757999984955,1.643972089521092,,experiment,cRDM,0.0,,,,998.1162504000023,1005,24,female,True,9980,10001,False,False,inspiration,inspiration
294,0.4849399868747158,25,down,up,0.4627184000019042,1.6227804591429034,,experiment,cRDM,0.0,,,,1002.0994581000014,1005,24,female,True,10020,10025,False,False,expiration,inspiration
295,0.4849399868747158,25,down,up,0.446414599999116,1.1932576926348804,,experiment,cRDM,0.0,,,,1004.0327072000001,1005,24,female,True,10039,10043,False,False,expiration,expiration
296,0.4849399868747158,25,up,down,0.6172310000001744,1.7286385354721383,,experiment,cRDM,0.0,,,,1006.4658749000008,1005,24,female,True,10064,10070,False,False,expiration,expiration
297,0.4849399868747158,25,up,up,0.4379374000018288,1.605963489029978,,experiment,cRDM,0.0,,,,1008.9491865000017,1005,24,female,True,10088,10092,False,False,inspiration,expiration
298,0.4849399868747158,25,up,up,0.5516571000007389,1.8262429253222687,,experiment,cRDM,0.0,,,,1011.4824592000003,1005,24,female,True,10114,10120,False,False,inspiration,expiration
299,0.4849399868747158,25,down,down,0.6393906000012066,0.31559961581049384,,experiment,cRDM,0.0,,,,1012.6157270000003,1005,24,female,True,10125,10131,False,False,expiration,expiration
300,0.4849399868747158,25,down,up,0.63977259999956,1.8634411583588588,,experiment,cRDM,0.0,,,,1015.3823472000003,1005,24,female,True,10153,10159,False,False,expiration,expiration
301,0.4849399868747158,25,up,up,0.5016565000005357,1.3863230121508459,,experiment,cRDM,0.0,,,,1017.6654366000004,1005,24,female,True,10176,10181,False,False,inspiration,inspiration
302,0.4849399868747158,25,down,down,1.2438296000000264,1.9376795708061385,,experiment,cRDM,0.0,,,,1020.3653144000017,1005,24,female,True,10203,10215,False,False,inspiration,inspiration
303,0.4849399868747158,25,up,up,0.5480711000018346,1.4173991391461995,,experiment,cRDM,0.0,,,,1023.2820431,1005,24,female,True,10232,10237,False,False,expiration,expiration
304,0.4849399868747158,25,up,up,0.6469976000007591,0.8730818737570658,,experiment,cRDM,0.0,,,,1024.965142699999,1005,24,female,True,10249,10255,False,False,inspiration,peak
305,0.4849399868747158,25,up,up,0.5496215999992273,0.8142532460723486,,experiment,cRDM,0.0,,,,1026.698548700002,1005,24,female,True,10266,10271,False,False,expiration,expiration
306,0.4849399868747158,25,down,down,0.6906835000008869,1.4264810240088346,,experiment,cRDM,0.0,,,,1028.948447499999,1005,24,female,True,10288,10295,False,False,expiration,expiration
307,0.4849399868747158,25,down,down,0.6363452000005054,0.981688715152956,,experiment,cRDM,0.0,,,,1030.8817549000014,1005,24,female,True,10308,10314,False,False,inspiration,expiration
308,0.4849399868747158,25,up,up,0.6358478000001924,1.2526643059638451,,experiment,cRDM,0.0,,,,1033.048294600001,1005,24,female,True,10329,10335,False,False,inspiration,peak
309,0.4849399868747158,25,down,down,0.6642042000021321,0.7823203627074657,,experiment,cRDM,0.0,,,,1034.7149093000007,1005,24,female,True,10346,10353,False,False,expiration,trough
310,0.4849399868747158,25,down,down,0.7942660000007891,1.4253829000754408,,experiment,cRDM,0.0,,,,1037.064860999999,1005,24,female,True,10370,10378,False,False,expiration,inspiration
311,0.4849399868747158,25,up,up,0.5297001999970234,1.0682057916401273,,experiment,cRDM,0.0,,,,1039.1814369000024,1005,24,female,True,10391,10396,False,False,inspiration,expiration
312,0.4849399868747158,25,up,up,0.5368087999995623,1.158068513868414,,experiment,cRDM,0.0,,,,1041.1313303000024,1005,24,female,True,10410,10415,False,False,expiration,inspiration
313,0.4849399868747158,25,down,up,0.7794880000001285,1.2799552806168115,,experiment,cRDM,0.0,,,,1043.2146267999997,1005,24,female,True,10431,10439,False,False,expiration,expiration
314,0.4849399868747158,25,up,up,0.5649178000021493,1.0240096504166405,,experiment,cRDM,0.0,,,,1045.2812206000017,1005,24,female,True,10452,10458,False,False,peak,expiration
315,0.4849399868747158,25,down,down,0.6157983000011882,1.9523011735986788,,experiment,cRDM,0.0,,,,1048.0643320000017,1005,24,female,True,10480,10486,False,False,inspiration,expiration
316,0.4849399868747158,25,down,down,0.6559010999990278,1.0142721481173946,,experiment,cRDM,0.0,,,,1049.9642184000004,1005,24,female,True,10499,10506,False,False,expiration,inspiration
317,0.4849399868747158,25,down,down,0.6101404000000912,0.8970863104246327,,experiment,cRDM,0.0,,,,1051.780981,1005,24,female,True,10517,10523,False,False,expiration,expiration
318,0.4849399868747158,25,up,down,0.6842943000010564,0.7792537217858506,,experiment,cRDM,0.0,,,,1053.430905199999,1005,24,female,True,10533,10540,False,False,inspiration,expiration
319,0.4849399868747158,25,up,down,0.5862688999986858,0.9900966484025692,,experiment,cRDM,0.0,,,,1055.3808502999998,1005,24,female,True,10553,10559,False,False,expiration,inspiration
320,0.4849399868747158,25,down,down,0.6463578999973834,0.9441702483669474,,experiment,cRDM,0.0,,,,1057.1807851000012,1005,24,female,True,10571,10577,False,False,expiration,inspiration
321,0.4849399868747158,25,down,down,0.5140997999988031,0.4315983064674293,,experiment,cRDM,0.0,,,,1058.514025200002,1005,24,female,True,10584,10589,False,False,inspiration,inspiration
322,0.4849399868747158,25,up,down,0.6164492000025348,0.35557246385454144,,experiment,cRDM,0.0,,,,1059.6306592,1005,24,female,True,10595,10601,False,False,expiration,expiration
323,0.4849399868747158,25,up,up,0.4913037000005716,0.9511423544547196,,experiment,cRDM,0.0,,,,1061.463801599999,1005,24,female,True,10614,10619,False,False,inspiration,expiration
324,0.4849399868747158,25,up,up,0.44041709999873996,0.34547413670781624,,experiment,cRDM,0.0,,,,1062.5636995999994,1005,24,female,True,10625,10629,False,False,expiration,expiration
325,0.4849399868747158,25,up,up,0.5799728999991203,0.9734775518720468,,experiment,cRDM,0.0,,,,1064.2471361999997,1005,24,female,True,10641,10647,False,False,inspiration,expiration
326,0.4849399868747158,25,up,up,0.5246284999993804,0.4433974503632107,,experiment,cRDM,0.0,,,,1065.5304648999988,1005,24,female,True,10654,10659,False,False,expiration,expiration
327,0.4849399868747158,25,down,up,0.33389639999950305,1.5386890380791045,,experiment,cRDM,0.0,,,,1067.863616300001,1005,24,female,True,10678,10681,False,False,expiration,expiration
328,0.4849399868747158,25,down,down,0.49720830000296706,1.657833568230333,,experiment,cRDM,0.0,,,,1070.1969357000016,1005,24,female,True,10701,10706,False,False,expiration,expiration
329,0.4849399868747158,25,up,down,0.6032293999996909,0.3530560638023543,,experiment,cRDM,0.0,,,,1071.2968825000025,1005,24,female,True,10712,10718,False,False,expiration,inspiration
330,0.4849399868747158,25,down,up,0.5036526000003505,1.5419034362384811,,experiment,cRDM,0.0,,,,1073.7134588000008,1005,24,female,True,10736,10741,False,False,expiration,expiration
331,0.4849399868747158,25,down,down,0.5020573000001605,1.494063177214091,,experiment,cRDM,0.0,,,,1075.9800856000004,1005,24,female,True,10759,10764,False,False,expiration,expiration
332,0.4849399868747158,25,down,down,0.5258690000009665,0.76704581600279,,experiment,cRDM,0.0,,,,1077.513321800001,1005,24,female,True,10774,10779,False,False,inspiration,inspiration
333,0.4849399868747158,25,up,up,0.6008457000025373,0.7070211207927887,,experiment,cRDM,0.0,,,,1079.0132779000014,1005,24,female,True,10789,10795,False,False,expiration,expiration
334,0.4849399868747158,25,down,down,0.44160379999812,1.9299178561629944,,experiment,cRDM,0.0,,,,1081.7965091000003,1005,24,female,True,10817,10821,False,False,expiration,expiration
335,0.4849399868747158,25,down,up,0.40024609999818495,1.0083559810588674,,experiment,cRDM,0.0,,,,1083.496453300002,1005,24,female,True,10834,10838,False,False,inspiration,peak
336,0.4849399868747158,25,down,down,0.5847170999986702,1.8199049556649165,,experiment,cRDM,0.0,,,,1085.9963927999997,1005,24,female,True,10859,10865,False,False,inspiration,expiration
337,0.4849399868747158,25,up,up,0.5701646000015899,1.2766563859067432,,experiment,cRDM,0.0,,,,1088.1129414999998,1005,24,female,True,10880,10886,False,False,expiration,inspiration
338,0.4849399868747158,25,up,up,0.7482613000029232,1.3091296393706695,,experiment,cRDM,0.0,,,,1090.262848000002,1005,24,female,True,10901,10908,False,False,expiration,expiration
339,0.4849399868747158,25,down,down,0.4823374000006879,1.0445210810495027,,experiment,cRDM,0.0,,,,1092.3127765999998,1005,24,female,True,10922,10927,False,False,trough,inspiration
340,0.4849399868747158,25,up,down,0.8033622000002651,0.7597584462525645,,experiment,cRDM,0.0,,,,1093.8127497000025,1005,24,female,True,10937,10945,False,False,expiration,inspiration
341,0.4849399868747158,25,down,down,1.659773200000927,0.8891948645591166,,experiment,cRDM,0.0,,,,1095.7793502000022,1005,24,female,True,10957,10974,False,False,inspiration,expiration
342,0.4849399868747158,25,up,up,0.4630447000017739,0.9868765427593088,,experiment,cRDM,0.0,,,,1098.6790656000012,1005,24,female,True,10986,10991,False,False,inspiration,inspiration
343,0.4849399868747158,25,up,up,0.4719704999988608,1.1366478067781216,,experiment,cRDM,0.0,,,,1100.5291581999988,1005,24,female,True,11004,11009,False,False,expiration,expiration
344,130.0,25,M,up,0.8546330999997735,0.39063970505819295,,experiment,emotion,1.0,,,,1118.6284730000007,1005,24,female,True,11185,11194,False,False,inspiration,expiration
345,105.0,25,M,down,0.8626791999995476,1.215571877343958,,experiment,emotion,1.0,,,,1120.9784189999993,1005,24,female,True,11209,11218,False,False,expiration,expiration
346,122.0,25,F,,,1.0909207912882275,,experiment,emotion,1.0,,,,1123.2283057999994,1005,24,female,True,11231,0,False,False,inspiration,0
347,130.0,25,F,up,0.5029790999979014,1.508821523948992,,experiment,emotion,1.0,,,,1127.4281501000005,1005,24,female,True,11273,11278,False,False,inspiration,inspiration
348,122.0,25,M,up,1.222137799999473,1.4278946181830765,,experiment,emotion,1.0,,,,1129.6280657999996,1005,24,female,True,11295,11307,False,False,expiration,expiration
349,113.0,25,F,down,0.7341726000013296,1.5452813867464854,,experiment,emotion,1.0,,,,1132.6779577000016,1005,24,female,True,11326,11333,False,False,expiration,expiration
350,105.0,25,M,down,0.5745127999980468,1.2845617623600298,,experiment,emotion,1.0,,,,1134.994552799999,1005,24,female,True,11349,11355,False,False,inspiration,expiration
351,113.0,25,M,down,1.1066527999973914,1.2997770973986411,,experiment,emotion,1.0,,,,1137.1444494999996,1005,24,female,True,11370,11381,False,False,inspiration,expiration
352,130.0,25,F,up,0.6307042000007641,0.7665664139201476,,experiment,emotion,1.0,,,,1139.2943968,1005,24,female,True,11392,11398,False,False,expiration,inspiration
353,113.0,25,F,down,0.8284660999997868,1.0692715234781445,,experiment,emotion,1.0,,,,1141.2776618999994,1005,24,female,True,11412,11420,False,False,expiration,expiration
354,122.0,25,F,up,1.5899111999970046,1.540839398502596,,experiment,emotion,1.0,,,,1143.9441841000007,1005,24,female,True,11438,11454,False,False,expiration,inspiration
355,130.0,25,F,up,0.6139941000001272,0.8745317858708308,,experiment,emotion,1.0,,,,1146.6941172000004,1005,24,female,True,11466,11472,False,False,expiration,expiration
356,122.0,25,F,up,0.738080600000103,1.5579600372315607,,experiment,emotion,1.0,,,,1149.144009300002,1005,24,female,True,11490,11497,False,False,peak,expiration
357,105.0,25,F,down,0.6786315999997896,1.8945365584526932,,experiment,emotion,1.0,,,,1152.0604853000004,1005,24,female,True,11520,11527,False,False,expiration,expiration
358,113.0,25,M,up,1.1002864000001864,1.3815042157742423,,experiment,emotion,1.0,,,,1154.393818200002,1005,24,female,True,11543,11554,False,False,peak,expiration
359,105.0,25,M,down,0.7643935999985842,1.6216797803723848,,experiment,emotion,1.0,,,,1157.3936961,1005,24,female,True,11573,11581,False,False,expiration,expiration
360,130.0,25,M,up,0.6224579000008816,0.9596543202862208,,experiment,emotion,1.0,,,,1159.3936356000013,1005,24,female,True,11593,11599,False,False,inspiration,expiration
361,105.0,25,M,down,0.6112200999996276,1.3315950794119829,,experiment,emotion,1.0,,,,1161.6268979000015,1005,24,female,True,11615,11621,False,False,inspiration,inspiration
362,122.0,25,F,up,1.6699733999994348,1.8837916752867272,,experiment,emotion,1.0,,,,1164.4101348000004,1005,24,female,True,11643,11660,False,False,inspiration,expiration
363,122.0,25,M,down,0.6097292000013113,0.7413270177025963,,experiment,emotion,1.0,,,,1167.0933805000022,1005,24,female,True,11670,11676,False,False,inspiration,expiration
364,113.0,25,M,up,0.5344962000017404,0.5337472888877817,,experiment,emotion,1.0,,,,1168.5266040999995,1005,24,female,True,11684,11689,False,False,expiration,expiration
365,113.0,25,F,down,0.6895486999965215,1.7937063593241385,,experiment,emotion,1.0,,,,1171.1265354000025,1005,24,female,True,11710,11717,False,False,expiration,expiration
366,105.0,25,M,down,0.6353642000030959,1.5713798632332907,,experiment,emotion,1.0,,,,1173.659752800002,1005,24,female,True,11736,11742,False,False,expiration,expiration
367,130.0,25,F,,,0.4399841484072082,,experiment,emotion,1.0,,,,1175.0263870000015,1005,24,female,True,11749,0,False,False,expiration,0
368,122.0,25,F,down,0.9198423999987426,0.8215112053238278,,experiment,emotion,1.0,,,,1178.5262590999992,1005,24,female,True,11784,11793,False,False,inspiration,expiration
369,105.0,25,M,down,0.7146916999990935,1.7244815779161875,,experiment,emotion,1.0,,,,1181.459393000001,1005,24,female,True,11814,11821,False,False,inspiration,expiration
370,130.0,25,M,up,0.7040008000003581,1.6230213061724401,,experiment,emotion,1.0,,,,1184.0760885000018,1005,24,female,True,11840,11847,False,False,inspiration,peak
371,130.0,25,F,up,0.6964195000000473,0.9252117627296356,,experiment,emotion,1.0,,,,1185.992653199999,1005,24,female,True,11859,11866,False,False,expiration,trough
372,113.0,25,M,up,1.7045235000005048,0.8568097357750937,,experiment,emotion,1.0,,,,1187.8425676000004,1005,24,female,True,11877,11894,False,False,expiration,expiration
373,105.0,25,F,down,0.689280399998097,0.5921468666306311,,experiment,emotion,1.0,,,,1190.4258131999995,1005,24,female,True,11903,11910,False,False,inspiration,expiration
374,113.0,25,F,down,1.708000500002527,1.5159118422193898,,experiment,emotion,1.0,,,,1192.9090682999995,1005,24,female,True,11928,11945,False,False,inspiration,trough
375,122.0,25,F,down,0.8884656999980507,0.6798430143966709,,experiment,emotion,1.0,,,,1195.5756423999992,1005,24,female,True,11955,11964,False,False,inspiration,expiration
376,105.0,25,M,down,0.6618849000005866,0.957735806239092,,experiment,emotion,1.0,,,,1197.6922005000015,1005,24,female,True,11976,11983,False,False,expiration,inspiration
377,130.0,25,M,up,0.756558799999766,0.36450165857405176,,experiment,emotion,1.0,,,,1198.9755163000011,1005,24,female,True,11989,11997,False,False,inspiration,expiration
378,122.0,25,M,up,0.5910193999989133,1.7508275826829325,,experiment,emotion,1.0,,,,1201.742051000001,1005,24,female,True,12016,12022,False,False,inspiration,expiration
379,130.0,25,F,up,0.623763700001291,0.5170828137213861,,experiment,emotion,1.0,,,,1203.1253510999995,1005,24,female,True,12030,12036,False,False,expiration,inspiration
380,105.0,25,F,down,0.6118411999996171,1.5033318788395529,,experiment,emotion,1.0,,,,1205.5252621,1005,24,female,True,12054,12060,False,False,expiration,expiration
381,122.0,25,M,up,0.629183600001852,0.6877135030191965,,experiment,emotion,1.0,,,,1207.0918894999995,1005,24,female,True,12070,12076,False,False,expiration,expiration
382,113.0,25,F,down,0.698951099999249,1.7683267557840263,,experiment,emotion,1.0,,,,1209.7751076999996,1005,24,female,True,12097,12104,False,False,inspiration,peak
383,113.0,25,M,down,0.6450607999977365,1.7864283227197464,,experiment,emotion,1.0,,,,1212.5250053000016,1005,24,female,True,12124,12130,False,False,inspiration,inspiration
384,122.0,25,M,up,1.1189527999995337,1.6764370500777142,,experiment,emotion,1.0,,,,1215.108230400001,1005,24,female,True,12150,12161,False,False,inspiration,peak
385,130.0,25,M,up,0.6222759999982372,1.40882676603846,,experiment,emotion,1.0,,,,1217.924804000002,1005,24,female,True,12178,12184,False,False,trough,inspiration
386,113.0,25,F,down,1.073181100000511,1.2407016815015155,,experiment,emotion,1.0,,,,1220.057904199999,1005,24,female,True,12200,12211,False,False,expiration,inspiration
387,105.0,25,F,down,0.712832500001241,1.6897744163505533,,experiment,emotion,1.0,,,,1223.091279100001,1005,24,female,True,12230,12237,False,False,expiration,inspiration
388,105.0,25,M,down,0.4992104999982985,0.3298868139481531,,experiment,emotion,1.0,,,,1224.4078924000025,1005,24,female,True,12243,12248,False,False,expiration,expiration
389,113.0,25,F,down,0.7992849000002025,1.7353109878339692,,experiment,emotion,1.0,,,,1226.9078104,1005,24,female,True,12268,12276,False,False,inspiration,expiration
390,130.0,25,F,up,0.5900712000002386,1.9025850414880825,,experiment,emotion,1.0,,,,1229.8910369000005,1005,24,female,True,12298,12304,False,False,inspiration,expiration
391,122.0,25,M,down,0.7284876000012446,1.736746361634141,,experiment,emotion,1.0,,,,1232.5075954999993,1005,24,female,True,12324,12331,False,False,inspiration,expiration
392,105.0,25,M,down,0.6472748000014691,1.630229832991007,,experiment,emotion,1.0,,,,1235.140804900002,1005,24,female,True,12351,12357,False,False,inspiration,expiration
393,130.0,25,F,up,0.6290111999987857,1.6482493133522935,,experiment,emotion,1.0,,,,1237.7240894999995,1005,24,female,True,12376,12382,False,False,trough,inspiration
394,122.0,25,M,down,0.6098266999979387,0.6430131985940712,,experiment,emotion,1.0,,,,1239.2572523000015,1005,24,female,True,12392,12398,False,False,expiration,inspiration
395,122.0,25,F,down,1.424840799998492,1.9606809634907272,,experiment,emotion,1.0,,,,1242.1072311000025,1005,24,female,True,12420,12434,False,False,expiration,expiration
396,105.0,25,F,down,0.6196610000006331,1.4290386224964848,,experiment,emotion,1.0,,,,1245.2404121,1005,24,female,True,12452,12458,False,False,expiration,expiration
397,113.0,25,F,down,0.7140051999995194,1.1090664994502963,,experiment,emotion,1.0,,,,1247.2570741000018,1005,24,female,True,12472,12479,False,False,inspiration,expiration
398,130.0,25,M,up,0.7304416000006313,1.6816531164929207,,experiment,emotion,1.0,,,,1249.9236333000008,1005,24,female,True,12498,12505,False,False,inspiration,expiration
399,113.0,25,M,up,1.4015661000012187,0.30524989085829074,,experiment,emotion,1.0,,,,1251.2235484000012,1005,24,female,True,12511,12525,False,False,expiration,inspiration
400,113.0,25,F,down,0.8809182000004512,0.4404953496196627,,experiment,emotion,1.0,,,,1253.3401541000019,1005,24,female,True,12533,12542,False,False,peak,expiration
401,113.0,25,F,down,1.0423188999993729,1.3113125644547103,,experiment,emotion,1.0,,,,1255.806752200002,1005,24,female,True,12557,12567,False,False,inspiration,expiration
402,130.0,25,M,up,0.7467314999994414,1.0932357659365644,,experiment,emotion,1.0,,,,1258.223343900001,1005,24,female,True,12581,12588,False,False,inspiration,inspiration
403,122.0,25,M,up,1.4027024999995774,1.2017382761476925,,experiment,emotion,1.0,,,,1260.4564231000004,1005,24,female,True,12604,12618,False,False,expiration,expiration
404,105.0,25,M,down,0.8672321999983978,0.3904113077108925,,experiment,emotion,1.0,,,,1262.5398237000009,1005,24,female,True,12624,12633,False,False,expiration,expiration
405,105.0,25,M,down,0.5997050000005402,1.9378643928373251,,experiment,emotion,1.0,,,,1265.6063735000025,1005,24,female,True,12655,12661,False,False,expiration,inspiration
406,122.0,25,M,up,1.1201256999993348,1.1524638756837366,,experiment,emotion,1.0,,,,1267.6229449999992,1005,24,female,True,12675,12686,False,False,inspiration,expiration
407,130.0,25,F,up,0.6986208999987866,0.8572105745276299,,experiment,emotion,1.0,,,,1269.8895645000011,1005,24,female,True,12698,12705,False,False,inspiration,peak
408,130.0,25,F,up,1.1886373999986972,1.201616180849586,,experiment,emotion,1.0,,,,1272.0394608000024,1005,24,female,True,12719,12731,False,False,inspiration,expiration
409,105.0,25,M,down,0.532027699999162,1.8169165281592168,,experiment,emotion,1.0,,,,1275.3060275000025,1005,24,female,True,12752,12757,False,False,inspiration,inspiration
410,130.0,25,F,up,0.8453493999986676,1.363618632571634,,experiment,emotion,1.0,,,,1277.4558063000004,1005,24,female,True,12774,12782,False,False,expiration,expiration
411,113.0,25,F,down,1.0675475999996706,0.9890178790652148,,experiment,emotion,1.0,,,,1279.5725238000016,1005,24,female,True,12795,12806,False,False,expiration,expiration
412,122.0,25,F,down,1.4849811999993108,1.1278032540489782,,experiment,emotion,1.0,,,,1282.039093899999,1005,24,female,True,12819,12834,False,False,inspiration,expiration
413,113.0,25,M,down,1.1847565000025495,1.5638807514302833,,experiment,emotion,1.0,,,,1285.3723143000025,1005,24,female,True,12853,12865,False,False,expiration,expiration
414,105.0,25,F,down,1.0022437000006903,1.8534574710769252,,experiment,emotion,1.0,,,,1288.6888817,1005,24,female,True,12886,12896,False,False,inspiration,expiration
415,122.0,25,F,down,0.9693042000035348,0.7833591662362158,,experiment,emotion,1.0,,,,1290.7387653000005,1005,24,female,True,12906,12916,False,False,expiration,expiration
416,113.0,25,F,up,1.4607035000008182,1.9350307345529807,,experiment,emotion,1.0,,,,1293.9053218000008,1005,24,female,True,12938,12953,False,False,expiration,inspiration
417,122.0,25,M,up,0.6645117000007303,0.7982780617401761,,experiment,emotion,1.0,,,,1296.4385471000026,1005,24,female,True,12963,12970,False,False,inspiration,expiration
418,105.0,25,M,,,0.5478055775768583,,experiment,emotion,1.0,,,,1297.9218201000006,1005,24,female,True,12978,0,False,False,expiration,0
419,130.0,25,F,up,0.6980672999998205,1.7756095197641557,,experiment,emotion,1.0,,,,1302.4049974000009,1005,24,female,True,13023,13030,False,False,inspiration,expiration
420,122.0,25,M,up,1.4301177999986976,0.9272768113025812,,experiment,emotion,1.0,,,,1304.3049457000016,1005,24,female,True,13042,13056,False,False,inspiration,expiration
421,130.0,25,F,up,0.7608676000018022,0.39006987129539705,,experiment,emotion,1.0,,,,1306.388184899999,1005,24,female,True,13063,13071,False,False,expiration,inspiration
422,105.0,25,M,down,0.8192147000008845,0.6233162433817594,,experiment,emotion,1.0,,,,1308.0548268999992,1005,24,female,True,13080,13088,False,False,expiration,expiration
423,113.0,25,M,down,0.8011596000033023,1.6777865155378184,,experiment,emotion,1.0,,,,1310.837905700002,1005,24,female,True,13108,13116,False,False,expiration,inspiration
424,0.4849399868747158,25,up,up,0.7752276999999594,1.6126668447794843,,experiment,cRDM,1.0,,,,1334.853824400001,1005,24,female,True,13348,13356,False,False,inspiration,inspiration
425,0.4849399868747158,25,up,up,0.4763086999992083,0.8147655025922655,,experiment,cRDM,1.0,,,,1336.7037459999992,1005,24,female,True,13366,13371,False,False,expiration,expiration
426,0.4849399868747158,25,down,down,0.4002274999984365,1.2580792077190823,,experiment,cRDM,1.0,,,,1338.7036976000018,1005,24,female,True,13386,13390,False,False,inspiration,inspiration
427,0.4849399868747158,25,down,up,0.4758500999996613,1.9948041379767103,,experiment,cRDM,1.0,,,,1341.3702618999996,1005,24,female,True,13413,13418,False,False,inspiration,inspiration
428,0.4849399868747158,25,up,up,0.4935552999995707,0.4828034382361663,,experiment,cRDM,1.0,,,,1342.6035365000025,1005,24,female,True,13425,13430,False,False,inspiration,expiration
429,0.4849399868747158,25,down,up,0.5709504000005836,1.3594449865647222,,experiment,cRDM,1.0,,,,1344.7201114000018,1005,24,female,True,13446,13452,False,False,expiration,expiration
430,0.4849399868747158,25,up,up,0.767993800000113,1.716629348701742,,experiment,cRDM,1.0,,,,1347.2700432999989,1005,24,female,True,13472,13480,False,False,expiration,expiration
431,0.4849399868747158,25,up,up,0.516127900002175,1.0239397458979882,,experiment,cRDM,1.0,,,,1349.3199301000022,1005,24,female,True,13492,13497,False,False,inspiration,expiration
432,0.4849399868747158,25,down,up,0.5095147000029101,0.35414398751430304,,experiment,cRDM,1.0,,,,1350.4365526,1005,24,female,True,13503,13508,False,False,expiration,expiration
433,0.4849399868747158,25,down,down,0.7802477000004728,1.2124248632414112,,experiment,cRDM,1.0,,,,1352.4198198000013,1005,24,female,True,13523,13531,False,False,inspiration,expiration
434,0.4849399868747158,25,down,down,0.6246312000002945,0.4873688762398725,,experiment,cRDM,1.0,,,,1353.9364252000016,1005,24,female,True,13538,13544,False,False,inspiration,inspiration
435,0.4849399868747158,25,down,down,0.4807673000032082,0.8007716929376707,,experiment,cRDM,1.0,,,,1355.6363512000025,1005,24,female,True,13555,13560,False,False,expiration,expiration
436,0.4849399868747158,25,down,up,0.4167870999990555,1.922608604197846,,experiment,cRDM,1.0,,,,1358.3029418000006,1005,24,female,True,13582,13586,False,False,expiration,inspiration
437,0.4849399868747158,25,down,down,0.5821948999982851,1.1189124398460784,,experiment,cRDM,1.0,,,,1360.1028665000013,1005,24,female,True,13600,13606,False,False,inspiration,inspiration
438,0.4849399868747158,25,up,up,0.4930481000010332,1.696091628074191,,experiment,cRDM,1.0,,,,1362.6360931000015,1005,24,female,True,13625,13630,False,False,expiration,expiration
439,0.4849399868747158,25,up,up,0.5650152999987768,0.7888990894541335,,experiment,cRDM,1.0,,,,1364.1860516000015,1005,24,female,True,13641,13647,False,False,inspiration,peak
440,0.4849399868747158,25,up,up,0.5070985999991535,1.1662951363122758,,experiment,cRDM,1.0,,,,1366.1859800999991,1005,24,female,True,13661,13666,False,False,expiration,expiration
441,0.4849399868747158,25,up,up,0.43982559999858495,0.7749652573021488,,experiment,cRDM,1.0,,,,1367.7192689000005,1005,24,female,True,13676,13680,False,False,inspiration,expiration
442,0.4849399868747158,25,down,down,0.38380919999690377,1.8095427898183685,,experiment,cRDM,1.0,,,,1370.2358311000025,1005,24,female,True,13701,13705,False,False,inspiration,inspiration
443,0.4849399868747158,25,up,up,0.6269238999993831,0.4567274951285586,,experiment,cRDM,1.0,,,,1371.3691345000007,1005,24,female,True,13713,13719,False,False,expiration,expiration
444,0.4849399868747158,25,up,up,0.7097586999989289,0.4934124195517895,,experiment,cRDM,1.0,,,,1372.7523206000005,1005,24,female,True,13727,13734,False,False,inspiration,peak
445,0.4849399868747158,25,down,down,0.3671801000018604,0.7757127831065109,,experiment,cRDM,1.0,,,,1374.5023364000006,1005,24,female,True,13744,13748,False,False,expiration,expiration
446,0.4849399868747158,25,up,up,0.5227907999978925,1.2294177553956545,,experiment,cRDM,1.0,,,,1376.4022631000007,1005,24,female,True,13763,13768,False,False,peak,expiration
447,0.4849399868747158,25,down,down,0.4002287000002979,1.5165660796310507,,experiment,cRDM,1.0,,,,1378.70219,1005,24,female,True,13786,13790,False,False,inspiration,inspiration
448,0.4849399868747158,25,down,down,0.4392613999989408,1.0708078198228992,,experiment,cRDM,1.0,,,,1380.4687842999995,1005,24,female,True,13804,13808,False,False,inspiration,inspiration
449,0.4849399868747158,25,up,up,0.5327871999979834,1.8650183289719031,,experiment,cRDM,1.0,,,,1383.0352669999993,1005,24,female,True,13830,13835,False,False,expiration,expiration
450,0.4849399868747158,25,up,up,0.4825094999978319,0.7364977953308393,,experiment,cRDM,1.0,,,,1384.5686072999995,1005,24,female,True,13845,13850,False,False,inspiration,inspiration
451,0.4849399868747158,25,down,down,0.4741896999985329,1.9959173540284731,,experiment,cRDM,1.0,,,,1387.3018660000016,1005,24,female,True,13872,13877,False,False,expiration,expiration
452,0.4849399868747158,25,up,down,0.6509421999980987,1.8359343606651866,,experiment,cRDM,1.0,,,,1389.8850780999999,1005,24,female,True,13898,13905,False,False,inspiration,peak
453,0.4849399868747158,25,down,down,0.42204339999807416,1.4959018202422083,,experiment,cRDM,1.0,,,,1392.2850070000022,1005,24,female,True,13922,13926,False,False,expiration,expiration
454,0.4849399868747158,25,down,down,0.4217580000004091,0.3061672835313378,,experiment,cRDM,1.0,,,,1393.2683056999995,1005,24,female,True,13932,13936,False,False,inspiration,peak
455,0.4849399868747158,25,down,down,0.3504639999991923,1.1045377487668968,,experiment,cRDM,1.0,,,,1395.0682545000018,1005,24,female,True,13950,13954,False,False,expiration,expiration
456,0.4849399868747158,25,up,up,0.6433166999995592,1.390813956849426,,experiment,cRDM,1.0,,,,1397.1347275000005,1005,24,female,True,13971,13977,False,False,expiration,expiration
457,0.4849399868747158,25,up,down,0.41687690000253497,0.5983275972210869,,experiment,cRDM,1.0,,,,1398.6347349000025,1005,24,female,True,13986,13990,False,False,expiration,inspiration
458,0.4849399868747158,25,up,down,0.4416479999999865,0.8263245838284408,,experiment,cRDM,1.0,,,,1400.1514184000007,1005,24,female,True,14001,14005,False,False,expiration,expiration
459,0.4849399868747158,25,down,down,0.3671641000000818,0.678683650649319,,experiment,cRDM,1.0,,,,1401.5179969000021,1005,24,female,True,14014,14018,False,False,expiration,expiration
460,0.4849399868747158,25,down,down,0.3504126999978325,0.9606583259183431,,experiment,cRDM,1.0,,,,1403.1513412999993,1005,24,female,True,14031,14035,False,False,expiration,expiration
461,0.4849399868747158,25,up,up,0.5131613999983529,1.5826429979617456,,experiment,cRDM,1.0,,,,1405.4178902000021,1005,24,female,True,14053,14058,False,False,inspiration,expiration
462,0.4849399868747158,25,down,down,0.3671668999995745,1.1857716771077662,,experiment,cRDM,1.0,,,,1407.3844461000006,1005,24,female,True,14073,14077,False,False,expiration,inspiration
463,0.4849399868747158,25,up,up,0.41673630000150297,0.5585128869008931,,experiment,cRDM,1.0,,,,1408.6343979000012,1005,24,female,True,14085,14089,False,False,expiration,expiration
464,0.4849399868747158,25,up,down,0.41976140000042506,1.621662174525594,,experiment,cRDM,1.0,,,,1410.934316499999,1005,24,female,True,14108,14112,False,False,inspiration,inspiration
465,0.4849399868747158,25,up,up,0.4467884999976377,1.6131443149096767,,experiment,cRDM,1.0,,,,1413.2342151000012,1005,24,female,True,14131,14135,False,False,expiration,expiration
466,0.4849399868747158,25,down,down,0.5252309999996214,1.0638331082846941,,experiment,cRDM,1.0,,,,1415.0008310000012,1005,24,female,True,14149,14154,False,False,inspiration,expiration
467,0.4849399868747158,25,down,down,1.0005873000009158,1.779897828913185,,experiment,cRDM,1.0,,,,1417.5674393000006,1005,24,female,True,14175,14185,False,False,inspiration,expiration
468,0.4849399868747158,25,up,up,0.5493790000000445,0.4656929655057728,,experiment,cRDM,1.0,,,,1419.3006705000007,1005,24,female,True,14192,14197,False,False,expiration,inspiration
469,0.4849399868747158,25,down,down,1.4401625999998942,1.9685201956596663,,experiment,cRDM,1.0,,,,1422.0839253000013,1005,24,female,True,14220,14234,False,False,expiration,inspiration
470,0.4849399868747158,25,down,down,0.7145529999979772,1.3061676906093496,,experiment,cRDM,1.0,,,,1425.1004925000016,1005,24,female,True,14250,14257,False,False,expiration,inspiration
471,0.4849399868747158,25,up,up,0.5953267999975651,0.8655066828582092,,experiment,cRDM,1.0,,,,1426.9337195000005,1005,24,female,True,14268,14274,False,False,expiration,expiration
472,0.4849399868747158,25,up,up,1.4107769000002008,0.3103254352664063,,experiment,cRDM,1.0,,,,1428.1003065000007,1005,24,female,True,14280,14294,False,False,expiration,expiration
473,0.4849399868747158,25,down,down,0.6110741999982565,0.8038122760915899,,experiment,cRDM,1.0,,,,1430.5669688000016,1005,24,female,True,14305,14311,False,False,expiration,inspiration
474,0.4849399868747158,25,up,up,0.602168299999903,1.6732360220597458,,experiment,cRDM,1.0,,,,1433.1168488000005,1005,24,female,True,14330,14336,False,False,expiration,expiration
475,0.4849399868747158,25,down,down,0.4336326000011468,0.5535216439351089,,experiment,cRDM,1.0,,,,1434.533426599999,1005,24,female,True,14344,14348,False,False,inspiration,inspiration
476,0.4849399868747158,25,down,up,0.4676421000003757,0.4065172333455924,,experiment,cRDM,1.0,,,,1435.633402200001,1005,24,female,True,14355,14360,False,False,expiration,expiration
477,0.4849399868747158,25,down,down,0.3671393000004173,0.6165127639908896,,experiment,cRDM,1.0,,,,1436.9833368,1005,24,female,True,14369,14373,False,False,trough,inspiration
478,0.4849399868747158,25,up,up,0.4002559000000474,1.2099501321981352,,experiment,cRDM,1.0,,,,1438.8832815000023,1005,24,female,True,14388,14392,False,False,expiration,expiration
479,0.4849399868747158,25,up,down,0.41679560000193305,1.4597137979159127,,experiment,cRDM,1.0,,,,1441.0165326000024,1005,24,female,True,14409,14413,False,False,expiration,expiration
480,0.4849399868747158,25,down,down,0.6719797000005201,1.9268564534046029,,experiment,cRDM,1.0,,,,1443.6330713999994,1005,24,female,True,14436,14443,False,False,expiration,expiration
481,0.4849399868747158,25,down,down,0.528290600002947,0.7640049297848239,,experiment,cRDM,1.0,,,,1445.3497441,1005,24,female,True,14453,14458,False,False,trough,inspiration
482,0.4849399868747158,25,up,up,0.6447718999988865,1.4125627581259752,,experiment,cRDM,1.0,,,,1447.5662866999994,1005,24,female,True,14475,14481,False,False,expiration,expiration
483,0.4849399868747158,25,up,up,0.4398529999998573,0.4879161172753196,,experiment,cRDM,1.0,,,,1448.9662137000016,1005,24,female,True,14489,14493,False,False,inspiration,inspiration
484,0.4849399868747158,25,up,up,0.6278796999977203,0.5929021073865306,,experiment,cRDM,1.0,,,,1450.2661924999993,1005,24,female,True,14502,14508,False,False,expiration,expiration
485,0.4849399868747158,25,up,down,1.7012854000022344,1.886419186456104,,experiment,cRDM,1.0,,,,1453.0327510000025,1005,24,female,True,14529,14546,False,False,expiration,inspiration
486,0.4849399868747158,25,up,up,0.5426614999996673,0.5628230496816884,,experiment,cRDM,1.0,,,,1455.5493587000021,1005,24,female,True,14555,14560,False,False,expiration,expiration
487,0.4849399868747158,25,down,down,0.5080911999975797,1.3010077021843736,,experiment,cRDM,1.0,,,,1457.6659486999995,1005,24,female,True,14576,14581,False,False,inspiration,expiration
488,0.4849399868747158,25,down,down,0.5678540999979305,1.0676959887578068,,experiment,cRDM,1.0,,,,1459.499185200002,1005,24,female,True,14594,14600,False,False,expiration,inspiration
489,0.4849399868747158,25,up,up,0.5839477999979863,1.6694970138032397,,experiment,cRDM,1.0,,,,1461.9991005000008,1005,24,female,True,14619,14625,False,False,trough,inspiration
490,0.4849399868747158,25,down,down,0.4973850999995193,1.5646323030179103,,experiment,cRDM,1.0,,,,1464.4156478000007,1005,24,female,True,14643,14648,False,False,expiration,expiration
491,0.4849399868747158,25,down,down,0.6858589000003121,1.6551873475352998,,experiment,cRDM,1.0,,,,1466.8322009000005,1005,24,female,True,14668,14675,False,False,expiration,expiration
492,0.4849399868747158,25,down,down,0.5436047000002873,1.190791619695179,,experiment,cRDM,1.0,,,,1468.9655005000022,1005,24,female,True,14689,14694,False,False,inspiration,inspiration
493,0.4849399868747158,25,up,up,0.4002607000002172,1.5773273296445105,,experiment,cRDM,1.0,,,,1471.348774000002,1005,24,female,True,14713,14717,False,False,expiration,expiration
494,0.4849399868747158,25,down,down,0.4380803999993077,1.8600591700659619,,experiment,cRDM,1.0,,,,1473.8819784000007,1005,24,female,True,14738,14742,False,False,inspiration,inspiration
495,0.4849399868747158,25,down,down,0.4914859999989858,1.4105059704630711,,experiment,cRDM,1.0,,,,1475.9985478000015,1005,24,female,True,14759,14764,False,False,inspiration,inspiration
496,0.4849399868747158,25,down,down,0.6927969999997003,0.4034072976811308,,experiment,cRDM,1.0,,,,1477.1652278,1005,24,female,True,14771,14778,False,False,expiration,expiration
497,0.4849399868747158,25,up,up,1.6312879999968573,1.3545449247205643,,experiment,cRDM,1.0,,,,1479.481774,1005,24,female,True,14794,14810,False,False,inspiration,inspiration
498,0.4849399868747158,25,up,up,0.6474438000004739,0.8523092564408501,,experiment,cRDM,1.0,,,,1482.2315509000002,1005,24,female,True,14822,14828,False,False,inspiration,expiration
499,0.4849399868747158,25,down,down,0.5760814999994182,0.3638725597528669,,experiment,cRDM,1.0,,,,1483.5149548000006,1005,24,female,True,14834,14840,False,False,expiration,inspiration
500,0.4849399868747158,25,up,up,0.5681833000016923,1.363902540210364,,experiment,cRDM,1.0,,,,1485.7148646000023,1005,24,female,True,14856,14862,False,False,inspiration,peak
501,0.4849399868747158,25,down,down,0.6146550999983447,0.8371950031254523,,experiment,cRDM,1.0,,,,1487.3814792000012,1005,24,female,True,14873,14879,False,False,inspiration,inspiration
502,0.4849399868747158,25,up,up,0.7289221000028192,0.6029443355848263,,experiment,cRDM,1.0,,,,1488.8481419000018,1005,24,female,True,14888,14895,False,False,inspiration,expiration
503,0.4849399868747158,25,up,up,1.2633930999982113,1.5812117782413788,,experiment,cRDM,1.0,,,,1491.414670500002,1005,24,female,True,14913,14926,False,False,inspiration,expiration
504,130.0,25,M,up,0.7712430999999924,0.4075920852179641,,experiment,emotion,2.0,,,,1524.1467773000006,1005,24,female,True,15241,15249,False,False,inspiration,inspiration
505,105.0,25,M,down,1.4646524000017962,1.7119064569245792,,experiment,emotion,2.0,,,,1526.9133479000009,1005,24,female,True,15268,15283,False,False,inspiration,inspiration
506,122.0,25,F,up,0.7624915000014879,1.6304671191693552,,experiment,emotion,2.0,,,,1530.2965568,1005,24,female,True,15302,15310,False,False,expiration,expiration
507,130.0,25,F,up,1.6709362000001418,1.5355496070845316,,experiment,emotion,2.0,,,,1532.8631500000008,1005,24,female,True,15328,15345,False,False,peak,expiration
508,122.0,25,M,up,0.8205156000003626,0.8273750738880403,,experiment,emotion,2.0,,,,1535.6295361000011,1005,24,female,True,15356,15364,False,False,inspiration,expiration
509,113.0,25,F,up,0.6895977999993192,0.7897199536973781,,experiment,emotion,2.0,,,,1537.529438900001,1005,24,female,True,15375,15382,False,False,inspiration,inspiration
510,105.0,25,M,down,0.6648301999994146,1.495907347194238,,experiment,emotion,2.0,,,,1539.9961938000015,1005,24,female,True,15399,15406,False,False,expiration,inspiration
511,113.0,25,M,up,0.7356680999982927,0.5095711471950332,,experiment,emotion,2.0,,,,1541.4293916999993,1005,24,female,True,15414,15421,False,False,inspiration,inspiration
512,130.0,25,F,up,0.7681909000020823,0.6767364146636607,,experiment,emotion,2.0,,,,1543.1128262999994,1005,24,female,True,15430,15438,False,False,expiration,expiration
513,113.0,25,F,down,1.3458447000011802,1.968260123625911,,experiment,emotion,2.0,,,,1546.1291775999996,1005,24,female,True,15461,15474,False,False,expiration,inspiration
514,122.0,25,F,up,0.5741391999981715,1.204154293881179,,experiment,emotion,2.0,,,,1548.945894299999,1005,24,female,True,15489,15495,False,False,expiration,expiration
515,130.0,25,F,down,1.2508822999989206,0.7354302265148094,,experiment,emotion,2.0,,,,1550.529126100002,1005,24,female,True,15505,15518,False,False,inspiration,expiration
516,122.0,25,F,down,0.8191445999982534,1.876512797472212,,experiment,emotion,2.0,,,,1553.9289059000002,1005,24,female,True,15539,15547,False,False,expiration,expiration
517,105.0,25,F,down,0.5990875000024971,1.6543587522520309,,experiment,emotion,2.0,,,,1556.6789109000022,1005,24,female,True,15566,15572,False,False,expiration,expiration
518,113.0,25,M,down,0.5751865999991423,1.2149896926994332,,experiment,emotion,2.0,,,,1558.7788433000023,1005,24,female,True,15587,15593,False,False,peak,expiration
519,105.0,25,M,down,0.5326623000000836,1.8292003792421825,,experiment,emotion,2.0,,,,1561.4453520000025,1005,24,female,True,15614,15619,False,False,expiration,expiration
520,130.0,25,M,up,0.6753184999979567,1.026795700818542,,experiment,emotion,2.0,,,,1563.2786629000002,1005,24,female,True,15632,15639,False,False,inspiration,inspiration
521,105.0,25,M,down,0.7844030000014754,1.0458013760067846,,experiment,emotion,2.0,,,,1565.2786125999994,1005,24,female,True,15652,15660,False,False,trough,inspiration
522,122.0,25,F,down,0.6265663000012864,1.479089420660458,,experiment,emotion,2.0,,,,1567.8284891000005,1005,24,female,True,15677,15683,False,False,expiration,expiration
523,122.0,25,M,down,0.7795589000015752,1.0531543949588982,,experiment,emotion,2.0,,,,1569.7784283,1005,24,female,True,15697,15705,False,False,inspiration,expiration
524,113.0,25,M,down,0.4619538000006287,0.5772809621095911,,experiment,emotion,2.0,,,,1571.3950671999994,1005,24,female,True,15713,15718,False,False,expiration,trough
525,113.0,25,F,down,0.4626881000003778,0.6670922698636437,,experiment,emotion,2.0,,,,1572.778334300001,1005,24,female,True,15727,15732,False,False,inspiration,expiration
526,105.0,25,M,down,0.5594062999989546,0.9940851538021104,,experiment,emotion,2.0,,,,1574.5116128000006,1005,24,female,True,15744,15750,False,False,expiration,inspiration
527,130.0,25,F,down,0.6005068999984361,1.3181902185315526,,experiment,emotion,2.0,,,,1576.6615290000007,1005,24,female,True,15766,15772,False,False,expiration,expiration
528,122.0,25,F,down,0.5819951999983459,0.3526961874881539,,experiment,emotion,2.0,,,,1577.8781149999993,1005,24,female,True,15778,15784,False,False,inspiration,inspiration
529,105.0,25,M,down,0.4469916000016383,1.1155363737826007,,experiment,emotion,2.0,,,,1579.8280465999994,1005,24,female,True,15797,15801,False,False,expiration,expiration
530,130.0,25,M,down,1.3913891999982295,1.8501893784174919,,experiment,emotion,2.0,,,,1582.3946194999992,1005,24,female,True,15823,15837,False,False,expiration,inspiration
531,130.0,25,F,up,0.5197769000005792,0.6028815221693353,,experiment,emotion,2.0,,,,1584.6612607999994,1005,24,female,True,15846,15851,False,False,expiration,expiration
532,113.0,25,M,down,0.794174099999509,0.4698187922054207,,experiment,emotion,2.0,,,,1585.9278379999994,1005,24,female,True,15858,15866,False,False,expiration,inspiration
533,105.0,25,F,down,0.7102525999980571,0.7454437425842939,,experiment,emotion,2.0,,,,1587.7277749000025,1005,24,female,True,15876,15883,False,False,expiration,expiration
534,113.0,25,F,down,0.6509095000001253,0.6783527218349449,,experiment,emotion,2.0,,,,1589.3943688,1005,24,female,True,15893,15900,False,False,inspiration,inspiration
535,122.0,25,F,up,0.5477247000017087,1.972835772811604,,experiment,emotion,2.0,,,,1592.2942822000007,1005,24,female,True,15922,15927,False,False,inspiration,peak
536,105.0,25,M,down,0.7521120999990671,0.603865989014339,,experiment,emotion,2.0,,,,1593.7109208000004,1005,24,female,True,15936,15944,False,False,inspiration,inspiration
