,stimLvl,stimTime,rand,response,rt,precedingITI,trialNumber,trialType,stimuli,block,estIntens,estThres,estSlope,trialStart,subject,age,gender,headRest,onset,responsI,manBadOnset,manBadRespons,onset_phase,respons_phase
0,0.9,100,down,,,0.39136066060765184,,introTrial,cRDM,,,,,283.47551929999827,1006,22,female,True,2833,0,False,False,peak,0
1,150.0,100,F,,,1.1313706100532142,,introTrial,emotion,,,,,288.558686999997,1006,22,female,True,2884,0,False,False,expiration,0
2,0.9,25,up,up,1.2570012000032875,0.7665889534218735,,tutorial,cRDM,,,,,344.8898953999997,1006,22,female,True,3448,3461,False,False,inspiration,expiration
3,0.9,25,up,up,0.7298263999982737,1.8569721649237918,,tutorial,cRDM,,,,,348.27311459999686,1006,22,female,True,3482,3489,False,False,inspiration,expiration
4,0.9,25,down,down,0.6141275000009045,0.5165958299965592,,tutorial,cRDM,,,,,349.78976299999704,1006,22,female,True,3497,3503,False,False,expiration,inspiration
5,0.9,25,down,down,0.7529074999984005,1.64404881079148,,tutorial,cRDM,,,,,352.32298109999834,1006,22,female,True,3522,3530,False,False,expiration,expiration
6,0.9,25,up,up,0.41680439999981894,1.1236644458082916,,tutorial,cRDM,,,,,354.47288429999753,1006,22,female,True,3543,3547,False,False,inspiration,expiration
7,0.9,25,down,down,0.8160581000011007,0.8990843327011531,,tutorial,cRDM,,,,,356.0728433999975,1006,22,female,True,3559,3567,False,False,expiration,inspiration
8,0.9,25,up,up,0.4002503999981855,1.1572539430831057,,tutorial,cRDM,,,,,358.32274919999685,1006,22,female,True,3582,3586,False,False,expiration,expiration
9,0.9,25,down,down,0.31711490000088816,1.6928831482963425,,tutorial,cRDM,,,,,360.7060212999968,1006,22,female,True,3606,3609,False,False,peak,expiration
10,0.9,25,up,up,0.3671427999979642,0.6473014526701701,,tutorial,cRDM,,,,,362.03929479999715,1006,22,female,True,3619,3623,False,False,expiration,expiration
11,0.9,25,down,down,0.3671534999994037,0.4367882362327937,,tutorial,cRDM,,,,,363.1725603999985,1006,22,female,True,3630,3634,False,False,inspiration,inspiration
12,200.0,25,M,up,1.1285802000020342,0.5137032419188309,,tutorial,emotion,,,,,370.3722996999968,1006,22,female,True,3702,3713,False,False,peak,expiration
13,200.0,25,M,up,0.7887075999969966,0.7486947044888047,,tutorial,emotion,,,,,372.522227399997,1006,22,female,True,3724,3732,False,False,inspiration,inspiration
14,200.0,25,F,up,0.5187764000002062,1.82399825796504,,tutorial,emotion,,,,,375.4221212999983,1006,22,female,True,3753,3758,False,False,expiration,inspiration
15,0.0,25,F,down,0.449883500001306,1.8389250233113763,,tutorial,emotion,,,,,378.07203339999984,1006,22,female,True,3779,3783,False,False,expiration,expiration
16,0.0,25,M,down,0.4001792000017304,1.8079652506003117,,tutorial,emotion,,,,,380.6219196999992,1006,22,female,True,3805,3809,False,False,expiration,expiration
17,200.0,25,F,down,0.2835153999985778,1.306579360060229,,tutorial,emotion,,,,,382.62186440000005,1006,22,female,True,3825,3828,False,False,inspiration,inspiration
18,0.0,25,M,down,0.8124375000006694,0.902322500328368,,tutorial,emotion,,,,,384.2384585999971,1006,22,female,True,3841,3849,False,False,expiration,trough
19,200.0,25,M,up,0.33358859999862034,1.6570093699157806,,tutorial,emotion,,,,,386.9882737999978,1006,22,female,True,3869,3872,False,False,expiration,expiration
20,0.0,25,F,down,0.3835588000001735,0.911278229902278,,tutorial,emotion,,,,,388.60496889999916,1006,22,female,True,3885,3889,False,False,inspiration,inspiration
21,0.0,25,F,down,0.4490173999984109,1.136885181237228,,tutorial,emotion,,,,,390.4549004,1006,22,female,True,3903,3907,False,False,expiration,expiration
22,0.29,25,up,up,0.3505294999995385,1.7708873822476938,,psi_staircase_training,cRDM,,0.25,0.25693124029946324,0.10500000000000002,409.9208384999984,1006,22,female,True,4098,4102,False,False,expiration,expiration
23,0.25,25,up,up,0.2838330000013229,1.9510736198674852,,psi_staircase_training,cRDM,,0.21910266653183127,0.2260132002683493,0.10468632033873933,412.5707218999996,1006,22,female,True,4124,4127,False,False,expiration,expiration
24,0.21,25,down,up,0.36717829999906826,0.3294011500885012,,psi_staircase_training,cRDM,,0.1900540959403307,0.19684979615540016,0.10294672984249993,413.6040624999987,1006,22,female,True,4135,4139,False,False,expiration,expiration
25,0.32,25,down,down,0.4239407999994,1.0069575053611166,,psi_staircase_training,cRDM,,0.28193877959813873,0.2893209636160949,0.11183125795615867,415.3039767999981,1006,22,female,True,4152,4156,False,False,inspiration,peak
26,0.29,25,up,up,0.35066139999980805,0.7204067190808292,,psi_staircase_training,cRDM,,0.25942687694212696,0.2667634756990502,0.11114069577656796,416.7205790999978,1006,22,female,True,4166,4170,False,False,expiration,expiration
27,0.27,25,down,up,0.4168074000008346,1.0834068410136208,,psi_staircase_training,cRDM,,0.23867195095052604,0.2458822432686335,0.10922730430510502,418.5038567999982,1006,22,female,True,4184,4188,False,False,inspiration,expiration
28,0.34,25,up,up,0.44003950000114855,0.7535620193155613,,psi_staircase_training,cRDM,,0.3095700646318685,0.3173617612486154,0.11803488400507185,419.9538193999979,1006,22,female,True,4198,4202,False,False,expiration,expiration
29,0.33,25,down,down,0.2839298999970197,0.9328064419253485,,psi_staircase_training,cRDM,,0.2918098075291885,0.2995539490843272,0.1173144817028678,421.5869870999995,1006,22,female,True,4215,4218,False,False,inspiration,inspiration
30,0.32,25,down,down,0.4202050999992935,0.3738926165839099,,psi_staircase_training,cRDM,,0.2760740137711686,0.2836649683739273,0.11499388260300147,422.6536899999992,1006,22,female,True,4225,4229,False,False,expiration,expiration
31,0.31,25,up,up,0.4229111000022385,1.1281962120204838,,psi_staircase_training,cRDM,,0.2624584113970729,0.2698322462424223,0.1117047779777088,424.4870159999992,1006,22,female,True,4244,4248,False,False,inspiration,peak
32,0.26,25,down,down,0.4273332000011578,1.667370471397465,,psi_staircase_training,cRDM,,0.25073450411271925,0.2578711164378538,0.10811114054105984,426.8535518999997,1006,22,female,True,4267,4271,False,False,expiration,inspiration
33,0.26,25,down,up,0.2672342000005301,1.58856074383067,,psi_staircase_training,cRDM,,0.2349871353816606,0.2425891906891059,0.11516204500132085,429.13679989999946,1006,22,female,True,4290,4293,False,False,expiration,expiration
34,0.32,25,down,down,0.3838410999996995,0.7832233677128084,,psi_staircase_training,cRDM,,0.2787649633174042,0.28543903485029354,0.10110420078894818,430.62007889999944,1006,22,female,True,4305,4309,False,False,inspiration,inspiration
35,0.31,25,up,up,0.3837951999994402,0.4699241848869592,,psi_staircase_training,cRDM,,0.27023909114185585,0.276524244465906,0.09521255511461116,431.78672109999746,1006,22,female,True,4317,4321,False,False,expiration,expiration
36,0.3,25,up,up,0.6109379000008629,0.9862319998490072,,psi_staircase_training,cRDM,,0.2632117300449702,0.2691289466605627,0.0896387540748405,433.4699503999982,1006,22,female,True,4333,4339,False,False,inspiration,peak
37,0.3,25,down,down,0.5526773000019602,1.6443296095628053,,psi_staircase_training,cRDM,,0.25699405725538704,0.2626248193936111,0.08529931137423,436.0031982,1006,22,female,True,4359,4365,False,False,inspiration,inspiration
38,0.26,25,down,down,0.3171683000000485,0.7850507297970954,,psi_staircase_training,cRDM,,0.2522578269768805,0.2575875917398092,0.08073956116495479,437.6198103999996,1006,22,female,True,4375,4378,False,False,expiration,expiration
39,0.25,25,up,up,0.5417665999993915,1.5294013640998718,,psi_staircase_training,cRDM,,0.2404473098587549,0.24655519772651666,0.09252719548110876,439.8530997999988,1006,22,female,True,4397,4402,False,False,peak,expiration
40,0.25,25,up,up,0.4836056999993161,1.874192245615384,,psi_staircase_training,cRDM,,0.2270869799600493,0.23403617457675874,0.10527198643091266,442.5362991999973,1006,22,female,True,4424,4429,False,False,inspiration,expiration
41,0.25,25,up,up,0.4168210999996518,1.452139865472842,,psi_staircase_training,cRDM,,0.2135232722973858,0.2211911801265249,0.1161596319380171,444.7528790999968,1006,22,female,True,4446,4450,False,False,inspiration,inspiration
42,0.25,25,up,up,0.4961280999996234,1.9039743978164267,,psi_staircase_training,cRDM,,0.20064653730570148,0.20887267683087654,0.12461617442555985,447.35278899999685,1006,22,female,True,4472,4477,False,False,trough,inspiration
43,0.24,25,down,up,0.3004349000002549,0.715691762211933,,psi_staircase_training,cRDM,,0.18902980249872736,0.1976498302188352,0.13058310944455478,448.85276729999896,1006,22,female,True,4487,4490,False,False,expiration,expiration
44,0.25,25,down,down,0.3838240000004589,0.6064216334111352,,psi_staircase_training,cRDM,,0.22663531874036724,0.2341858075292773,0.11438087392482288,450.1526750999983,1006,22,female,True,4500,4504,False,False,expiration,inspiration
45,0.25,25,down,up,0.4769395000002987,1.6912004345596106,,psi_staircase_training,cRDM,,0.21561753537258554,0.22373707095276915,0.1230012521691534,452.53593120000005,1006,22,female,True,4524,4529,False,False,expiration,expiration
46,0.27,25,up,up,0.5431626999998116,1.7946727818951516,,psi_staircase_training,cRDM,,0.24617117094173036,0.2530113878474896,0.10362110445952036,455.0858154999987,1006,22,female,True,4550,4555,False,False,peak,expiration
47,0.25,25,up,down,0.4167955999982951,0.8371770813770516,,psi_staircase_training,cRDM,,0.2384146382737802,0.2455251314561748,0.10771546676995797,456.7357979999979,1006,22,female,True,4566,4570,False,False,expiration,trough
48,0.3,25,down,down,0.7495259000024816,0.3749002491129608,,psi_staircase_training,cRDM,,0.2606877622220277,0.2663333673129075,0.08552416435313745,457.8023952999974,1006,22,female,True,4577,4584,False,False,inspiration,expiration
49,0.28,25,down,down,0.8352874999982305,1.2560791602873451,,psi_staircase_training,cRDM,,0.2577941881677073,0.263034642756109,0.07938661884580607,460.0856497999994,1006,22,female,True,4600,4608,False,False,inspiration,expiration
50,0.28,25,up,up,0.3671353999998246,0.8375035976562502,,psi_staircase_training,cRDM,,0.25353113200481103,0.2586714971504895,0.07787038350669134,462.0522469999996,1006,22,female,True,4619,4623,False,False,expiration,inspiration
51,0.28,25,up,up,0.4167899999993097,0.8680762528598539,,psi_staircase_training,cRDM,,0.250020447982497,0.25500748181018584,0.07554759744051501,463.618849399998,1006,22,female,True,4635,4639,False,False,expiration,expiration
52,100.0,25,M,up,0.7448007999992114,1.0383630143181817,,psi_staircase_training,emotion,,100.0,100.0,25.00050000000001,469.9851119999985,1006,22,female,True,4699,4706,False,False,expiration,expiration
53,55.0,25,M,up,0.3834896000007575,1.3948365940874203,,psi_staircase_training,emotion,,54.742809467541896,54.742809467541896,25.00050000000011,472.48515309999857,1006,22,female,True,4724,4728,False,False,expiration,expiration
54,32.0,25,F,down,0.5364437999996879,1.4503001807463551,,psi_staircase_training,emotion,,31.96124636773396,31.96124636773396,24.34819504815393,474.718438099997,1006,22,female,True,4746,4751,False,False,inspiration,inspiration
55,45.0,25,F,up,0.5841771999985212,0.3491218129661458,,psi_staircase_training,emotion,,44.99556334762485,44.99556334762485,25.558429500417468,476.00172829999786,1006,22,female,True,4759,4765,False,False,expiration,expiration
56,30.0,25,M,down,0.6159411999979056,0.5554339926663177,,psi_staircase_training,emotion,,34.554257039774626,34.554257039774626,24.96788539775001,477.5350007999986,1006,22,female,True,4774,4780,False,False,expiration,inspiration
57,40.0,25,F,down,0.3168292999980622,0.5689017099009483,,psi_staircase_training,emotion,,40.47330514418536,40.47330514418536,22.495191219701894,479.0849373999991,1006,22,female,True,4790,4793,False,False,expiration,expiration
58,53.0,25,M,down,0.5513630000023113,1.7743699963666104,,psi_staircase_training,emotion,,46.879192919651324,46.879192919651324,23.190922395548988,481.65150269999873,1006,22,female,True,4815,4821,False,False,expiration,expiration
59,69.0,25,F,down,0.2668264999992971,1.2812086223354628,,psi_staircase_training,emotion,,55.88827411409554,55.88827411409554,29.60585566214457,483.83476679999876,1006,22,female,True,4837,4840,False,False,inspiration,inspiration
60,82.0,25,F,down,0.5245888999997987,1.8840123414809635,,psi_staircase_training,emotion,,66.14791386857182,66.14791386857182,34.35131506104303,486.50130729999734,1006,22,female,True,4864,4869,False,False,inspiration,inspiration
61,92.0,25,M,down,0.2669050000004063,1.9891858926602328,,psi_staircase_training,emotion,,76.31062455060055,76.31062455060055,37.324306223610975,489.36784649999765,1006,22,female,True,4893,4896,False,False,trough,inspiration
62,102.0,25,F,down,0.3168636000009428,1.287567036942613,,psi_staircase_training,emotion,,86.01558517162614,86.01558517162614,39.26105521671029,491.40114790000007,1006,22,female,True,4913,4916,False,False,expiration,expiration
63,111.0,25,F,down,0.3668580999983533,1.808054922074482,,psi_staircase_training,emotion,,95.62147911539287,95.62147911539287,40.722925122037076,493.9843571999992,1006,22,female,True,4939,4943,False,False,expiration,expiration
64,121.0,25,F,down,0.3670167999989644,0.9313263312262317,,psi_staircase_training,emotion,,105.33381095280994,105.33381095280994,41.67858342390238,495.6841339999992,1006,22,female,True,4956,4960,False,False,expiration,inspiration
65,132.0,25,M,down,0.2502640999991854,0.5182163155387141,,psi_staircase_training,emotion,,115.71987581880036,115.71987581880036,42.16083806929153,496.98418099999986,1006,22,female,True,4969,4972,False,False,peak,expiration
66,142.0,25,M,down,0.3668524000022444,1.8957862942497845,,psi_staircase_training,emotion,,127.39945281646871,127.39945281646871,41.97342079809293,499.65086249999877,1006,22,female,True,4995,4999,False,False,inspiration,peak
67,151.0,25,F,up,0.4654229000007035,0.8108586567774911,,psi_staircase_training,emotion,,140.38173621652578,140.38173621652578,40.711352847926996,501.2674364999984,1006,22,female,True,5011,5016,False,False,expiration,inspiration
68,133.0,25,F,up,0.23383240000111985,1.3758886264797952,,psi_staircase_training,emotion,,130.30495813547893,130.30495813547893,42.661776704579246,503.4671713999997,1006,22,female,True,5034,5036,False,False,expiration,expiration
69,123.0,25,M,up,0.31684730000051786,0.4956553715860523,,psi_staircase_training,emotion,,123.002323207337,123.002323207337,43.43265087622453,504.7339952999973,1006,22,female,True,5046,5049,False,False,inspiration,inspiration
70,117.0,25,M,up,0.23372110000127574,0.4254284827101384,,psi_staircase_training,emotion,,117.35791707002235,117.35791707002235,43.640836960647725,505.93398489999885,1006,22,female,True,5058,5060,False,False,expiration,expiration
71,113.0,25,M,up,0.2503150000011374,0.5708100209745759,,psi_staircase_training,emotion,,112.6926416897789,112.6926416897789,43.71706452430787,507.2670842999978,1006,22,female,True,5072,5075,False,False,trough,inspiration
72,109.0,25,M,up,0.3002048000016657,1.3307914002836554,,psi_staircase_training,emotion,,108.680148644963,108.680148644963,43.73886888280546,509.36741749999777,1006,22,female,True,5093,5096,False,False,expiration,expiration
73,104.0,25,F,up,0.31685490000018035,1.1475170317462362,,psi_staircase_training,emotion,,105.07330177204484,105.07330177204484,43.74803954272392,511.28374089999846,1006,22,female,True,5112,5115,False,False,inspiration,expiration
74,100.0,25,F,up,0.3168121000016981,1.4924776507457878,,psi_staircase_training,emotion,,101.68265959551223,101.68265959551223,43.77659385104327,513.5336614999978,1006,22,female,True,5134,5137,False,False,inspiration,inspiration
75,96.0,25,F,up,0.3001691999998002,1.2723253630615272,,psi_staircase_training,emotion,,98.49253969387631,98.49253969387631,43.81958390724251,515.5671889999976,1006,22,female,True,5155,5158,False,False,expiration,expiration
76,91.0,25,M,up,0.35015569999814034,0.3440699170065878,,psi_staircase_training,emotion,,95.44654773128408,95.44654773128408,43.883843835555744,516.6835601999992,1006,22,female,True,5166,5170,False,False,inspiration,inspiration
77,87.0,25,M,up,0.3001997000028496,0.34110293626864263,,psi_staircase_training,emotion,,92.45469618359728,92.45469618359728,43.9873008324292,517.8168089999998,1006,22,female,True,5177,5180,False,False,expiration,expiration
78,82.0,25,F,up,0.4712340000005497,1.88725228227834,,psi_staircase_training,emotion,,89.54248774975542,89.54248774975542,44.1153223404668,520.466681599999,1006,22,female,True,5204,5209,False,False,inspiration,peak
79,78.0,25,F,up,0.2668116999993799,0.7241150569664325,,psi_staircase_training,emotion,,86.6392646444175,86.6392646444175,44.28234962097145,522.0167065999995,1006,22,female,True,5219,5222,False,False,expiration,expiration
80,75.0,25,M,up,0.26684709999972256,0.6418448195901938,,psi_staircase_training,emotion,,83.77885540860137,83.77885540860137,44.46958471610678,523.4333063999984,1006,22,female,True,5233,5236,False,False,inspiration,inspiration
81,72.0,25,M,up,0.3668407000004663,1.694718264820166,,psi_staircase_training,emotion,,80.99319006323715,80.99319006323715,44.659660016558675,525.8832163999978,1006,22,female,True,5258,5262,False,False,expiration,inspiration
82,0.29,25,up,up,0.3005389000027208,0.683374321442896,,psi_staircase,cRDM,,0.25,0.25693124029946324,0.10500000000000002,552.3822503999982,1006,22,female,True,5523,5526,False,False,inspiration,inspiration
83,0.25,25,up,up,0.3168766000017058,0.4175542577381489,,psi_staircase,cRDM,,0.21910266653183127,0.2260132002683493,0.10468632033873933,553.4658038999987,1006,22,female,True,5534,5537,False,False,expiration,expiration
84,0.21,25,down,down,0.5001187000016216,1.6418972966850656,,psi_staircase,cRDM,,0.1900540959403307,0.19684979615540016,0.10294672984249993,555.7987694999974,1006,22,female,True,5557,5562,False,False,expiration,expiration
85,0.18,25,down,down,0.5121393000008538,0.5561487628288182,,psi_staircase,cRDM,,0.1635257589279754,0.1701521334256793,0.100381647756865,557.0987432000002,1006,22,female,True,5570,5575,False,False,expiration,inspiration
86,0.15,25,up,up,0.3004826000033063,0.6423754062696536,,psi_staircase,cRDM,,0.14018955742449365,0.14660133511875031,0.0971307628663642,558.5153245999974,1006,22,female,True,5584,5587,False,False,expiration,expiration
87,0.13,25,down,down,0.3337967999977991,0.9102909381976216,,psi_staircase,cRDM,,0.11987606021454796,0.12605547676183335,0.09361076941961036,560.0986349999985,1006,22,female,True,5600,5603,False,False,expiration,inspiration
88,0.11,25,up,up,0.2671381999971345,1.1367098719093105,,psi_staircase,cRDM,,0.10257735236965487,0.10849103445698656,0.08958521019937955,561.898551899998,1006,22,female,True,5618,5621,False,False,expiration,expiration
89,0.09,25,down,down,0.30054159999781405,1.2896032051129689,,psi_staircase,cRDM,,0.08784432595859408,0.09348182153209693,0.08540131486476357,563.8653857999998,1006,22,female,True,5638,5641,False,False,inspiration,inspiration
90,0.08,25,down,up,0.4296439999998256,1.921447367501376,,psi_staircase,cRDM,,0.07518520921180863,0.0805556301471181,0.08135545354720439,566.4652929999975,1006,22,female,True,5664,5668,False,False,inspiration,inspiration
91,0.13,25,up,down,0.3171255999986897,1.0892148873164846,,psi_staircase,cRDM,,0.1145374077699418,0.12103712105675656,0.09846288191283688,568.2482977000001,1006,22,female,True,5681,5684,False,False,expiration,expiration
92,0.2,25,down,up,0.400234000000637,1.550395275555424,,psi_staircase,cRDM,,0.16369417802888606,0.17147461567943656,0.11786432413417668,570.4815824999969,1006,22,female,True,5704,5708,False,False,expiration,expiration
93,0.3,25,down,down,0.33330819999901,1.8890499244537071,,psi_staircase,cRDM,,0.2302025415992223,0.23887160341210656,0.13132591729987175,573.0653053999995,1006,22,female,True,5730,5733,False,False,inspiration,expiration
94,0.27,25,down,down,0.5974876000000222,1.1286855477254,,psi_staircase,cRDM,,0.21173537047355195,0.22035308793140254,0.13054811173468994,574.8813910999997,1006,22,female,True,5748,5754,False,False,trough,inspiration
95,0.25,25,up,up,0.5638816999999108,1.161737098328515,,psi_staircase,cRDM,,0.19541771120490156,0.20393798261943735,0.12907192073481308,576.8980147000002,1006,22,female,True,5768,5774,False,False,expiration,expiration
96,0.23,25,up,down,0.2505493000026036,1.5838515379875984,,psi_staircase,cRDM,,0.18121020967334064,0.1896212605192332,0.12741735975985538,579.3145345999983,1006,22,female,True,5792,5795,False,False,expiration,expiration
97,0.29,25,down,down,0.6174635000024864,1.9671808359355183,,psi_staircase,cRDM,,0.23404569868563205,0.2426999154706413,0.1311010328838744,581.9644455999987,1006,22,female,True,5819,5825,False,False,peak,expiration
98,0.28,25,down,down,0.6288592999990215,1.7926815167623225,,psi_staircase,cRDM,,0.2203689624544771,0.22885680893299104,0.12858072173792245,584.6310273999989,1006,22,female,True,5845,5851,False,False,inspiration,expiration
99,0.27,25,up,down,0.28386269999828073,1.8558112895195056,,psi_staircase,cRDM,,0.2090512466329695,0.21732984711941425,0.12541089523963106,587.3809698999976,1006,22,female,True,5873,5876,False,False,inspiration,inspiration
100,0.32,25,up,up,0.4719669000005524,1.0662646403555485,,psi_staircase,cRDM,,0.2565668348005648,0.26594093250092155,0.14200636769348196,589.130877399999,1006,22,female,True,5890,5895,False,False,expiration,trough
101,0.31,25,up,down,0.4002413000016531,0.4452007645977253,,psi_staircase,cRDM,,0.24359570943960898,0.2528758715737052,0.14058335622205434,590.3141529999994,1006,22,female,True,5902,5906,False,False,inspiration,peak
102,0.37,25,up,up,0.4406425999986823,1.6672573247428275,,psi_staircase,cRDM,,0.29535815863068965,0.305338327518275,0.15118762125122248,592.6642415999995,1006,22,female,True,5926,5930,False,False,inspiration,inspiration
103,0.35000000000000003,25,down,down,0.3505651000014041,1.0454730344765275,,psi_staircase,cRDM,,0.2823794996162837,0.29240276658383085,0.15184050561253104,594.430658199999,1006,22,female,True,5943,5947,False,False,expiration,expiration
104,0.34,25,down,down,0.5112358999977005,0.6697291297806587,,psi_staircase,cRDM,,0.2702001398045759,0.2802286507707937,0.1519199459199839,595.7806434999984,1006,22,female,True,5957,5962,False,False,inspiration,inspiration
105,0.3,25,down,down,0.6316063999984179,1.5903505651885474,,psi_staircase,cRDM,,0.2591591241704576,0.269155852432166,0.1514384759623272,598.1471970999993,1006,22,female,True,5980,5986,False,False,expiration,expiration
106,0.3,25,up,down,0.3004049999981362,1.2325457154798016,,psi_staircase,cRDM,,0.24762648626651898,0.25767640176911155,0.1522441990438466,600.280415199999,1006,22,female,True,6002,6005,False,False,expiration,expiration
107,0.36,25,up,up,0.4174812999990536,1.2244495412883027,,psi_staircase,cRDM,,0.2874959476353852,0.2975634031778471,0.1525099096680228,602.1803761999981,1006,22,female,True,6021,6025,False,False,expiration,inspiration
108,0.36,25,down,down,0.4635907000010775,1.1766493058511451,,psi_staircase,cRDM,,0.27820144573825273,0.28819033443269704,0.15131971589527313,604.0303234999992,1006,22,female,True,6039,6044,False,False,expiration,expiration
109,0.3,25,down,down,0.6398924999994051,0.3483924504717135,,psi_staircase,cRDM,,0.27014458108169764,0.2800179483508176,0.14956970447812493,605.0969619999996,1006,22,female,True,6050,6056,False,False,expiration,inspiration
110,0.29,25,up,up,0.430727000002662,0.3759334912437206,,psi_staircase,cRDM,,0.25975614603139635,0.2698102040497594,0.15230695320285892,606.3801524999981,1006,22,female,True,6063,6067,False,False,inspiration,expiration
111,0.29,25,up,up,0.4894458999988274,1.8862048787487813,,psi_staircase,cRDM,,0.249846597415854,0.2600513236129908,0.15458939589532575,608.9634418999995,1006,22,female,True,6088,6093,False,False,inspiration,inspiration
112,0.29,25,down,up,0.4467939999994997,0.6931700739690337,,psi_staircase,cRDM,,0.2407515399272006,0.2510470354992517,0.15596444335497606,610.4301008000002,1006,22,female,True,6103,6107,False,False,expiration,expiration
113,0.35000000000000003,25,up,up,0.5608204999989539,1.7936516120136352,,psi_staircase,cRDM,,0.2716287166798401,0.2817542162996293,0.15338920801233846,612.9299522999972,1006,22,female,True,6128,6134,False,False,inspiration,expiration
114,0.29,25,down,down,0.3504896000013105,1.5459036458900648,,psi_staircase,cRDM,,0.2650573710896109,0.27506627805598904,0.1516229687709846,615.2965778999969,1006,22,female,True,6152,6156,False,False,expiration,expiration
115,0.29,25,up,up,0.4002274999984365,1.4313744898555818,,psi_staircase,cRDM,,0.2563025301667019,0.2664898376663705,0.15432552346338796,617.4131498999997,1006,22,female,True,6173,6177,False,False,inspiration,inspiration
116,0.29,25,down,down,0.3838485000014771,1.5062208412963278,,psi_staircase,cRDM,,0.2481706626144699,0.2584774407535285,0.1561353607499304,619.5964010999996,1006,22,female,True,6195,6199,False,False,expiration,expiration
117,0.28,25,up,up,0.4342677999993612,0.5090362756506741,,psi_staircase,cRDM,,0.24065629453954054,0.2510381966005641,0.1572733983111049,620.7795452999999,1006,22,female,True,6207,6211,False,False,inspiration,inspiration
118,0.28,25,down,down,0.2671927000010328,0.7267151315457894,,psi_staircase,cRDM,,0.2334132267411801,0.2438662396050552,0.1583506419178502,622.1963126999981,1006,22,female,True,6221,6224,False,False,expiration,expiration
119,0.27,25,up,up,0.4002779000002192,0.4702997112735817,,psi_staircase,cRDM,,0.2266835644943765,0.2371803984096745,0.15901447843204106,623.3629212999987,1006,22,female,True,6233,6237,False,False,trough,inspiration
120,0.27,25,up,down,0.5759295999996539,1.08671731828449,,psi_staircase,cRDM,,0.2201393107179024,0.23068225234513995,0.15971295511795616,625.1128727999967,1006,22,female,True,6250,6256,False,False,expiration,expiration
121,0.31,25,down,down,0.5377478000009432,0.9914813897118722,,psi_staircase,cRDM,,0.24317610333004835,0.25360910126684505,0.1580474397126997,626.9461427999995,1006,22,female,True,6268,6273,False,False,inspiration,inspiration
122,0.31,25,down,down,0.4340830000001006,0.3124786409484462,,psi_staircase,cRDM,,0.23772959682053624,0.2481293675828169,0.15754408776218984,628.0627368999994,1006,22,female,True,6280,6284,False,False,expiration,expiration
123,0.26,25,down,down,0.4202122000024247,0.4185917451684085,,psi_staircase,cRDM,,0.23271997706824224,0.243076006922563,0.156881465325605,629.1796843999982,1006,22,female,True,6291,6295,False,False,expiration,inspiration
124,0.26,25,up,down,0.5388238999985333,0.5657411034758113,,psi_staircase,cRDM,,0.22653658333188506,0.2369847354699881,0.15827700773637576,630.446003099998,1006,22,female,True,6303,6308,False,False,inspiration,expiration
125,0.33,25,up,up,0.5316467999982706,0.732058428052496,,psi_staircase,cRDM,,0.2461900867926804,0.2564060377639355,0.15475943779713622,631.9791812999974,1006,22,female,True,6319,6324,False,False,expiration,inspiration
126,0.26,25,down,down,0.2505076999987068,1.730105683798922,,psi_staircase,cRDM,,0.24210367459242385,0.2522252648992908,0.15332998659753938,634.5125153999978,1006,22,female,True,6344,6347,False,False,expiration,expiration
127,0.26,25,down,down,0.6626362999995763,1.0436066654350555,,psi_staircase,cRDM,,0.2362182663271785,0.24646897647626706,0.15528599776545748,636.2291587000001,1006,22,female,True,6361,6368,False,False,inspiration,expiration
128,0.26,25,down,down,0.4954671000014059,1.1582095025948815,,psi_staircase,cRDM,,0.2306147613855987,0.2409632567279434,0.1567673264812844,638.3123783999981,1006,22,female,True,6382,6387,False,False,trough,inspiration
129,0.26,25,up,up,0.3671480999983032,1.17900842754158,,psi_staircase,cRDM,,0.2252778294180599,0.2357009198838657,0.15789735337762895,640.2456343999984,1006,22,female,True,6401,6405,False,False,expiration,expiration
130,0.25,25,up,down,0.2671184999999241,1.2672673053555659,,psi_staircase,cRDM,,0.220187699874389,0.2306683706930213,0.15876962685042276,642.1955854999978,1006,22,female,True,6421,6424,False,False,inspiration,peak
131,0.34,25,up,up,0.3505417000014859,1.1140953666469249,,psi_staircase,cRDM,,0.2368592511595018,0.24713136752452303,0.15561027633261354,643.9787944999989,1006,22,female,True,6439,6443,False,False,expiration,inspiration
132,100.0,25,M,down,0.6146188999991864,1.5372584218951666,,psi_staircase,emotion,,100.0,100.0,25.00050000000001,650.5452482999973,1006,22,female,True,6504,6510,False,False,expiration,expiration
133,145.0,25,M,up,0.8950311999979021,1.992769085696872,,psi_staircase,emotion,,145.25719053245996,145.25719053245996,25.000500000000283,653.5118133999968,1006,22,female,True,6534,6543,False,False,inspiration,expiration
134,121.0,25,F,up,0.38349500000185793,0.6569545053279755,,psi_staircase,emotion,,120.36392901436103,120.36392901436103,25.71326925488699,655.4284012999998,1006,22,female,True,6553,6557,False,False,expiration,inspiration
135,97.0,25,F,up,0.2835018999976455,0.3440862640261148,,psi_staircase,emotion,,102.38876106084959,102.38876106084959,26.14633372628729,656.5283535999988,1006,22,female,True,6564,6567,False,False,inspiration,expiration
136,73.0,25,M,up,0.3001819000019168,0.6597123993482429,,psi_staircase,emotion,,82.84358992132628,82.84358992132628,31.43229144782805,657.9616346999974,1006,22,female,True,6578,6581,False,False,expiration,expiration
137,52.0,25,F,up,0.26683760000014445,1.7398097240185677,,psi_staircase,emotion,,62.56682795453205,62.56682795453205,34.340881921268696,660.4948874999973,1006,22,female,True,6604,6607,False,False,inspiration,peak
138,39.0,25,M,up,0.3835098000017752,1.2777732943503959,,psi_staircase,emotion,,44.537529999832266,44.537529999832266,34.280036470022296,662.5614549999991,1006,22,female,True,6624,6628,False,False,expiration,expiration
139,30.0,25,F,up,0.4214604000007967,0.5360607716483461,,psi_staircase,emotion,,31.25768922554525,31.25768922554525,32.2565576948039,663.8614025999996,1006,22,female,True,6637,6641,False,False,trough,inspiration
140,22.0,25,F,down,0.3668667000019923,0.9214517810203192,,psi_staircase,emotion,,22.18477274067352,22.18477274067352,29.37991440897152,665.5779917,1006,22,female,True,6655,6659,False,False,expiration,expiration
141,40.0,25,M,down,0.3837362000012945,0.6434368517562011,,psi_staircase,emotion,,29.711869272969174,29.711869272969174,32.91942046958947,666.9946722999994,1006,22,female,True,6669,6673,False,False,expiration,inspiration
142,51.0,25,F,down,0.3168521999978111,1.689449325195331,,psi_staircase,emotion,,38.78713263943168,38.78713263943168,38.27445969263977,669.4445515999978,1006,22,female,True,6693,6696,False,False,expiration,expiration
143,55.0,25,F,down,0.4002010999975028,0.5880115079430623,,psi_staircase,emotion,,47.035271724523525,47.035271724523525,39.988272295850635,670.7945091000001,1006,22,female,True,6707,6711,False,False,trough,inspiration
144,59.0,25,F,down,0.4001736000027449,1.256599268138635,,psi_staircase,emotion,,53.816420595111936,53.816420595111936,40.50953276516439,672.8111059999974,1006,22,female,True,6727,6731,False,False,expiration,expiration
145,66.0,25,M,down,0.3002360000027693,1.0804101916882118,,psi_staircase,emotion,,59.595336985501916,59.595336985501916,40.76819881824667,674.661015499998,1006,22,female,True,6746,6749,False,False,inspiration,peak
146,74.0,25,M,down,0.2835039000019606,1.9045626813823848,,psi_staircase,emotion,,64.9581237667024,64.9581237667024,41.06837396275653,677.327595499999,1006,22,female,True,6772,6775,False,False,inspiration,inspiration
147,81.0,25,F,up,0.456650099997205,0.9997137401075372,,psi_staircase,emotion,,70.1546222896294,70.1546222896294,41.47572141358429,679.0941845999988,1006,22,female,True,6790,6795,False,False,expiration,expiration
148,77.0,25,F,down,0.4168748000010965,1.8079895055261623,,psi_staircase,emotion,,66.77948140072981,66.77948140072981,41.16016100986819,681.7274360999983,1006,22,female,True,6816,6820,False,False,expiration,expiration
149,84.0,25,M,up,0.4547845000015514,1.431937436705446,,psi_staircase,emotion,,71.34192895782269,71.34192895782269,41.55134985006621,683.944028599999,1006,22,female,True,6838,6843,False,False,inspiration,expiration
150,80.0,25,M,down,0.3001446000016585,1.7681505213803888,,psi_staircase,emotion,,68.5202803322855,68.5202803322855,41.245391583652356,686.510585699998,1006,22,female,True,6864,6867,False,False,inspiration,inspiration
151,87.0,25,M,down,0.3332722000013746,0.6954319489781136,,psi_staircase,emotion,,72.6168203505682,72.6168203505682,41.641133950969135,687.9774490999989,1006,22,female,True,6879,6882,False,False,expiration,expiration
152,91.0,25,M,down,0.3835046000021976,1.2811095198448732,,psi_staircase,emotion,,76.72571028472241,76.72571028472241,42.151922018869755,690.0437872000003,1006,22,female,True,6899,6903,False,False,inspiration,expiration
153,95.0,25,F,up,0.4005889999971259,0.6825755207825918,,psi_staircase,emotion,,80.68031878678553,80.68031878678553,42.644584356626744,691.4769586999972,1006,22,female,True,6914,6918,False,False,expiration,expiration
154,93.0,25,F,down,0.3334528999985196,1.5040337732853888,,psi_staircase,emotion,,78.40114096075317,78.40114096075317,42.363637338883606,693.7436659999985,1006,22,female,True,6936,6939,False,False,expiration,expiration
155,97.0,25,F,up,0.3502855000006093,1.1617283582419942,,psi_staircase,emotion,,82.00032224006678,82.00032224006678,42.815526418466284,695.6767996999988,1006,22,female,True,6956,6960,False,False,inspiration,inspiration
156,95.0,25,M,up,0.4723329000007652,0.5168996166951506,,psi_staircase,emotion,,79.95754647920499,79.95754647920499,42.555646966872004,696.9435432999999,1006,22,female,True,6968,6973,False,False,expiration,expiration
157,92.0,25,M,up,0.33351260000199545,0.7765413121499437,,psi_staircase,emotion,,78.04403681186508,78.04403681186508,42.310838866656276,698.5434921999986,1006,22,female,True,6984,6987,False,False,inspiration,inspiration
158,61.0,25,F,up,0.4191843000007793,1.956152184781616,,psi_staircase,emotion,,76.19790608837553,76.19790608837553,42.09216823729971,701.2766357999973,1006,22,female,True,7012,7016,False,False,inspiration,inspiration
159,57.0,25,F,down,0.40019519999987097,1.3587013463720012,,psi_staircase,emotion,,73.20709403447583,73.20709403447583,42.491127437982655,703.4266256999981,1006,22,female,True,7033,7037,False,False,expiration,expiration
160,91.0,25,M,down,0.34989889999997104,1.5743112490927391,,psi_staircase,emotion,,74.82197494789209,74.82197494789209,42.26128932766544,705.7767988999984,1006,22,female,True,7057,7060,False,False,expiration,expiration
161,95.0,25,M,down,0.3835097000010137,1.392926756259787,,psi_staircase,emotion,,77.62524712865161,77.62524712865161,42.657197769868176,707.9264618999988,1006,22,female,True,7078,7082,False,False,inspiration,expiration
162,98.0,25,F,down,0.3501819999983127,0.8466106548512684,,psi_staircase,emotion,,80.40309533779755,80.40309533779755,43.08326526383147,709.5597137999976,1006,22,female,True,7094,7098,False,False,expiration,expiration
163,100.0,25,M,down,0.3168107000019518,0.7929772714566371,,psi_staircase,emotion,,83.12382739086769,83.12382739086769,43.499715550808276,711.1263515999998,1006,22,female,True,7110,7113,False,False,inspiration,expiration
164,102.0,25,F,up,0.5989479999989271,1.444899008539427,,psi_staircase,emotion,,85.75616714980742,85.75616714980742,43.87976276605688,713.3429288999977,1006,22,female,True,7132,7138,False,False,inspiration,inspiration
165,101.0,25,M,down,0.3168331999986549,1.721694045966939,,psi_staircase,emotion,,84.32163170470615,84.32163170470615,43.68396408125434,716.0261754999992,1006,22,female,True,7159,7162,False,False,expiration,trough
166,103.0,25,F,up,0.35015780000321683,1.68272645624874,,psi_staircase,emotion,,86.78624926567848,86.78624926567848,44.0309085855275,718.4927477999989,1006,22,female,True,7184,7188,False,False,expiration,expiration
167,102.0,25,M,up,0.31658360000074026,1.9319406836744115,,psi_staircase,emotion,,85.4345996827326,85.4345996827326,43.84872217020899,721.1762353999983,1006,22,female,True,7211,7214,False,False,peak,expiration
168,100.0,25,F,down,0.4263052999995125,0.361013758154011,,psi_staircase,emotion,,84.14788546488344,84.14788546488344,43.67082172769689,722.292599299999,1006,22,female,True,7222,7226,False,False,expiration,expiration
169,103.0,25,M,up,0.3835690000014438,1.8157950870049373,,psi_staircase,emotion,,86.35839439066672,86.35839439066672,43.966016536821506,724.8757454999977,1006,22,female,True,7248,7252,False,False,expiration,expiration
170,101.0,25,M,up,0.5317574999971839,0.6240245864309637,,psi_staircase,emotion,,85.14290429935569,85.14290429935569,43.79700241137106,726.259107799997,1006,22,female,True,7261,7266,False,False,expiration,inspiration
171,69.0,25,F,down,0.3834930999983044,0.6965728609983046,,psi_staircase,emotion,,83.95284611280913,83.95284611280913,43.63794499047674,727.8423907999968,1006,22,female,True,7277,7281,False,False,expiration,expiration
172,107.0,25,F,up,0.266951000001427,1.7392215292710709,,psi_staircase,emotion,,85.12233593966863,85.12233593966863,43.49174212667195,730.3589575999977,1006,22,female,True,7302,7305,False,False,inspiration,inspiration
173,62.0,25,F,down,0.3500691000008373,1.7893018916888461,,psi_staircase,emotion,,84.13632323705106,84.13632323705106,43.29248611728336,732.9255303999997,1006,22,female,True,7328,7332,False,False,inspiration,inspiration
174,112.0,25,M,up,0.3001987999996345,1.8555145891161384,,psi_staircase,emotion,,85.08092928145246,85.08092928145246,43.09424662169009,735.5587591999974,1006,22,female,True,7354,7357,False,False,inspiration,inspiration
175,57.0,25,M,down,0.400174499998684,1.207483358670654,,psi_staircase,emotion,,84.25221401149958,84.25221401149958,42.86331136054742,737.542028099997,1006,22,female,True,7374,7378,False,False,expiration,expiration
176,115.0,25,F,up,0.4192519999996875,1.1909656367897163,,psi_staircase,emotion,,85.04407298122456,85.04407298122456,42.63008200281364,739.5086021999997,1006,22,female,True,7394,7398,False,False,inspiration,expiration
177,54.0,25,F,down,0.5039636000001337,0.887563969513596,,psi_staircase,emotion,,84.31714135923352,84.31714135923352,42.37415018309325,741.1918983999968,1006,22,female,True,7411,7416,False,False,expiration,expiration
178,118.0,25,F,up,0.3001560999982757,0.8761638328667383,,psi_staircase,emotion,,85.01123705725047,85.01123705725047,42.11391260564736,742.9418570999987,1006,22,female,True,7428,7431,False,False,inspiration,expiration
179,52.0,25,M,down,0.3001838000018324,1.5042370223868071,,psi_staircase,emotion,,84.37612462216094,84.37612462216094,41.83499687906297,745.2084117999983,1006,22,female,True,7451,7454,False,False,inspiration,inspiration
180,120.0,25,M,up,0.4168312000001606,0.8334062669060036,,psi_staircase,emotion,,84.99879294202249,84.99879294202249,41.55011010901926,746.8250165999997,1006,22,female,True,7467,7471,False,False,expiration,expiration
181,50.0,25,M,down,0.2836434999990161,1.5470588612751914,,psi_staircase,emotion,,84.43104090364528,84.43104090364528,41.25006497657125,749.1747829999987,1006,22,female,True,7491,7494,False,False,inspiration,expiration
182,0.23376899262716386,25,down,up,0.6658581000010599,1.1425922485422402,,experiment,cRDM,0.0,,,,772.4739964999973,1006,22,female,True,7724,7731,False,False,expiration,expiration
183,0.23376899262716386,25,up,down,0.3337878999991517,0.701368130137834,,experiment,cRDM,0.0,,,,774.0907040999991,1006,22,female,True,7740,7743,False,False,inspiration,inspiration
184,0.23376899262716386,25,down,down,0.4875487999997858,1.23303425594081,,experiment,cRDM,0.0,,,,776.0072715999995,1006,22,female,True,7759,7764,False,False,inspiration,expiration
185,0.23376899262716386,25,up,up,0.4746631999987585,0.4090422535783908,,experiment,cRDM,0.0,,,,777.1741540000003,1006,22,female,True,7771,7776,False,False,expiration,expiration
186,0.23376899262716386,25,down,down,0.5076544000003196,1.2331131842169891,,experiment,cRDM,0.0,,,,779.1571287999977,1006,22,female,True,7790,7795,False,False,inspiration,inspiration
187,0.23376899262716386,25,down,down,0.5154685000015888,1.869438334773464,,experiment,cRDM,0.0,,,,781.7903927999977,1006,22,female,True,7817,7822,False,False,expiration,expiration
188,0.23376899262716386,25,up,up,0.43320219999804976,1.9146743292916348,,experiment,cRDM,0.0,,,,784.4736532999997,1006,22,female,True,7844,7848,False,False,expiration,expiration
189,0.23376899262716386,25,down,down,0.25043779999759863,1.8309525266151991,,experiment,cRDM,0.0,,,,787.006878799999,1006,22,female,True,7869,7872,False,False,inspiration,inspiration
190,0.23376899262716386,25,up,down,0.3004935999997542,1.4208267627016191,,experiment,cRDM,0.0,,,,789.1067819999989,1006,22,female,True,7890,7893,False,False,expiration,expiration
191,0.23376899262716386,25,up,up,0.41665479999937816,0.7515572793176251,,experiment,cRDM,0.0,,,,790.5400558999972,1006,22,female,True,7904,7908,False,False,inspiration,inspiration
192,0.23376899262716386,25,down,down,0.4002806000025885,0.559255826369601,,experiment,cRDM,0.0,,,,791.7900104999973,1006,22,female,True,7917,7921,False,False,expiration,expiration
193,0.23376899262716386,25,up,up,0.3838706999995338,1.1882342341146572,,experiment,cRDM,0.0,,,,793.6732134999983,1006,22,female,True,7936,7940,False,False,inspiration,inspiration
194,0.23376899262716386,25,up,down,0.3503160000000207,1.3637914587295532,,experiment,cRDM,0.0,,,,795.7232044999984,1006,22,female,True,7956,7960,False,False,expiration,expiration
195,0.23376899262716386,25,up,down,0.5857104000024265,0.3740087096895573,,experiment,cRDM,0.0,,,,796.7731279999971,1006,22,female,True,7967,7973,False,False,inspiration,inspiration
196,0.23376899262716386,25,down,down,0.4634602000005543,1.7382185701671726,,experiment,cRDM,0.0,,,,799.3563931999997,1006,22,female,True,7992,7997,False,False,expiration,inspiration
197,0.23376899262716386,25,down,down,0.4654794000016409,1.7288401670459803,,experiment,cRDM,0.0,,,,801.8063368000003,1006,22,female,True,8017,8022,False,False,expiration,expiration
198,0.23376899262716386,25,up,up,0.30049729999882396,1.2553589824154567,,experiment,cRDM,0.0,,,,803.7729246999987,1006,22,female,True,8037,8040,False,False,inspiration,peak
199,0.23376899262716386,25,up,down,0.3006330000025628,1.206890000694219,,experiment,cRDM,0.0,,,,805.6561033999969,1006,22,female,True,8056,8059,False,False,expiration,expiration
200,0.23376899262716386,25,down,down,0.5017155000023195,0.7701058644895575,,experiment,cRDM,0.0,,,,807.1061196999982,1006,22,female,True,8070,8075,False,False,inspiration,expiration
201,0.23376899262716386,25,down,down,0.5320876000005228,0.9953472343180658,,experiment,cRDM,0.0,,,,808.8727577999997,1006,22,female,True,8088,8093,False,False,expiration,inspiration
202,0.23376899262716386,25,up,up,0.38393340000038734,1.9826105020491864,,experiment,cRDM,0.0,,,,811.6558349999978,1006,22,female,True,8116,8120,False,False,expiration,expiration
203,0.23376899262716386,25,down,down,0.38384650000079995,1.5000462058726225,,experiment,cRDM,0.0,,,,813.8391926999975,1006,22,female,True,8137,8141,False,False,inspiration,expiration
204,0.23376899262716386,25,up,up,0.4167202999997244,0.4493402343746905,,experiment,cRDM,0.0,,,,814.9725550000003,1006,22,female,True,8149,8153,False,False,expiration,expiration
205,0.23376899262716386,25,down,down,0.4381881999979669,0.3923034072208271,,experiment,cRDM,0.0,,,,816.0556274999982,1006,22,female,True,8160,8164,False,False,inspiration,inspiration
206,0.23376899262716386,25,down,down,0.41677920000074653,1.0778304735989916,,experiment,cRDM,0.0,,,,817.8223940999997,1006,22,female,True,8177,8181,False,False,expiration,expiration
207,0.23376899262716386,25,up,up,0.3670170000004873,0.9890436197747432,,experiment,cRDM,0.0,,,,819.4890285000001,1006,22,female,True,8194,8198,False,False,inspiration,inspiration
208,0.23376899262716386,25,up,up,0.4345337000013387,1.459465712721462,,experiment,cRDM,0.0,,,,821.6222404999971,1006,22,female,True,8215,8219,False,False,expiration,inspiration
209,0.23376899262716386,25,down,down,0.28370210000139195,1.9851412300464764,,experiment,cRDM,0.0,,,,824.2888356999974,1006,22,female,True,8242,8245,False,False,expiration,expiration
210,0.23376899262716386,25,up,up,0.3171970000003057,0.5886316555065192,,experiment,cRDM,0.0,,,,825.5554507999988,1006,22,female,True,8255,8258,False,False,inspiration,inspiration
211,0.23376899262716386,25,down,down,0.3671476999988954,1.8086729629014284,,experiment,cRDM,0.0,,,,828.0386858999991,1006,22,female,True,8279,8283,False,False,expiration,inspiration
212,0.23376899262716386,25,up,up,0.3504401999998663,0.8617068151787415,,experiment,cRDM,0.0,,,,829.5719896999982,1006,22,female,True,8295,8299,False,False,expiration,expiration
213,0.23376899262716386,25,down,down,0.3504810999984329,1.676793902987609,,experiment,cRDM,0.0,,,,831.9218794999979,1006,22,female,True,8318,8322,False,False,inspiration,inspiration
214,0.23376899262716386,25,up,up,0.4002763999997114,0.7858140794300243,,experiment,cRDM,0.0,,,,833.3884865,1006,22,female,True,8333,8337,False,False,expiration,expiration
215,0.23376899262716386,25,down,down,0.3338254000009329,0.6405077764321647,,experiment,cRDM,0.0,,,,834.7050994999989,1006,22,female,True,8346,8349,False,False,expiration,inspiration
216,0.23376899262716386,25,up,up,0.35053100000004633,0.3300687182926105,,experiment,cRDM,0.0,,,,835.7217186999987,1006,22,female,True,8356,8360,False,False,inspiration,expiration
217,0.23376899262716386,25,down,down,0.3670891000001575,1.178201911080706,,experiment,cRDM,0.0,,,,837.571712099998,1006,22,female,True,8375,8379,False,False,expiration,expiration
218,0.23376899262716386,25,up,up,0.28384770000047865,1.0570513210049883,,experiment,cRDM,0.0,,,,839.2882618999976,1006,22,female,True,8392,8395,False,False,inspiration,expiration
219,0.23376899262716386,25,down,down,0.3838039000002027,0.4558157720020505,,experiment,cRDM,0.0,,,,840.4215614999994,1006,22,female,True,8403,8407,False,False,expiration,expiration
220,0.23376899262716386,25,up,down,0.36715320000075735,0.5219749806833265,,experiment,cRDM,0.0,,,,841.6215147000003,1006,22,female,True,8415,8419,False,False,inspiration,inspiration
221,0.23376899262716386,25,down,up,0.4873616000004404,1.1161150469956975,,experiment,cRDM,0.0,,,,843.4214436999972,1006,22,female,True,8433,8438,False,False,expiration,expiration
222,0.23376899262716386,25,down,down,0.30051989999992657,1.5516496406699791,,experiment,cRDM,0.0,,,,845.7213569999984,1006,22,female,True,8456,8459,False,False,expiration,expiration
223,0.23376899262716386,25,up,down,0.4791846000007354,1.0935167902835736,,experiment,cRDM,0.0,,,,847.5046218999997,1006,22,female,True,8474,8479,False,False,inspiration,inspiration
224,0.23376899262716386,25,down,down,0.300496200001362,0.3334024571951229,,experiment,cRDM,0.0,,,,848.5879212000001,1006,22,female,True,8485,8488,False,False,expiration,expiration
225,0.23376899262716386,25,up,up,0.3670351000000665,0.9190365154697226,,experiment,cRDM,0.0,,,,850.1878631000001,1006,22,female,True,8501,8505,False,False,expiration,inspiration
226,0.23376899262716386,25,up,down,0.2839821000015945,0.6943288262229533,,experiment,cRDM,0.0,,,,851.5543229999968,1006,22,female,True,8515,8518,False,False,expiration,expiration
227,0.23376899262716386,25,down,up,0.28384079999887035,1.7768720947203542,,experiment,cRDM,0.0,,,,854.0043808999982,1006,22,female,True,8539,8542,False,False,inspiration,inspiration
228,0.23376899262716386,25,down,down,0.6014809000007517,1.0214354928780287,,experiment,cRDM,0.0,,,,855.704325499999,1006,22,female,True,8556,8562,False,False,expiration,expiration
229,0.23376899262716386,25,up,up,0.2504144999984419,1.2495369514874417,,experiment,cRDM,0.0,,,,857.8042427999973,1006,22,female,True,8577,8580,False,False,peak,expiration
230,0.23376899262716386,25,down,down,0.2338558999981615,0.6579017281138393,,experiment,cRDM,0.0,,,,859.1375129999979,1006,22,female,True,8590,8592,False,False,expiration,expiration
231,0.23376899262716386,25,up,up,0.36743159999969066,1.373998628819817,,experiment,cRDM,0.0,,,,861.1708101999975,1006,22,female,True,8611,8615,False,False,expiration,expiration
232,0.23376899262716386,25,up,down,0.3173428000009153,0.4006186187420344,,experiment,cRDM,0.0,,,,862.2539202999977,1006,22,female,True,8622,8625,False,False,expiration,expiration
233,0.23376899262716386,25,up,up,0.35050250000131206,1.896292173644769,,experiment,cRDM,0.0,,,,864.8373025000002,1006,22,female,True,8647,8651,False,False,expiration,expiration
234,0.23376899262716386,25,up,down,0.3004576999992423,1.6645568184017894,,experiment,cRDM,0.0,,,,867.1872245999983,1006,22,female,True,8671,8674,False,False,expiration,expiration
235,0.23376899262716386,25,up,up,0.462274499997875,0.7500851310388819,,experiment,cRDM,0.0,,,,868.6205266999968,1006,22,female,True,8685,8690,False,False,expiration,inspiration
236,0.23376899262716386,25,down,down,0.2337799000015366,0.8317408141318381,,experiment,cRDM,0.0,,,,870.1705026999989,1006,22,female,True,8701,8703,False,False,expiration,expiration
237,0.23376899262716386,25,down,up,0.35044729999935953,1.4286586144698643,,experiment,cRDM,0.0,,,,872.2703997999997,1006,22,female,True,8722,8726,False,False,inspiration,inspiration
238,0.23376899262716386,25,down,down,0.5478055999992648,0.3058328560166229,,experiment,cRDM,0.0,,,,873.2369782999996,1006,22,female,True,8731,8736,False,False,expiration,expiration
239,0.23376899262716386,25,up,up,0.44985409999935655,0.8763528442930049,,experiment,cRDM,0.0,,,,874.9369314999968,1006,22,female,True,8748,8752,False,False,inspiration,inspiration
240,0.23376899262716386,25,down,down,0.4002733000015724,1.0746169493506823,,experiment,cRDM,0.0,,,,876.7368602999995,1006,22,female,True,8766,8770,False,False,expiration,expiration
241,0.23376899262716386,25,down,up,0.3671858000016073,0.9798565754855686,,experiment,cRDM,0.0,,,,878.4034810999983,1006,22,female,True,8783,8787,False,False,inspiration,peak
242,0.23376899262716386,25,down,down,0.40026550000038696,1.4542943628046057,,experiment,cRDM,0.0,,,,880.5367091999979,1006,22,female,True,8804,8808,False,False,expiration,inspiration
243,0.23376899262716386,25,up,down,0.45247709999966895,0.4391037201528801,,experiment,cRDM,0.0,,,,881.6532835999969,1006,22,female,True,8816,8821,False,False,inspiration,expiration
244,0.23376899262716386,25,down,down,0.5055094000017561,1.6864383910989444,,experiment,cRDM,0.0,,,,884.0533026999983,1006,22,female,True,8840,8845,False,False,inspiration,inspiration
245,0.23376899262716386,25,up,up,0.3171146999993653,1.2880248063371214,,experiment,cRDM,0.0,,,,886.1198820999997,1006,22,female,True,8860,8863,False,False,expiration,expiration
246,0.23376899262716386,25,up,up,0.4168322000004992,0.5935105698221727,,experiment,cRDM,0.0,,,,887.4031418999983,1006,22,female,True,8873,8877,False,False,inspiration,inspiration
247,0.23376899262716386,25,down,up,0.3338021000017761,1.3412739058953878,,experiment,cRDM,0.0,,,,889.4197521999995,1006,22,female,True,8893,8896,False,False,expiration,expiration
248,0.23376899262716386,25,up,up,0.3337926999993215,1.7620715251247991,,experiment,cRDM,0.0,,,,891.8696697999985,1006,22,female,True,8918,8921,False,False,expiration,expiration
249,0.23376899262716386,25,down,down,0.5135124000007636,0.5382600797906789,,experiment,cRDM,0.0,,,,893.0862875999992,1006,22,female,True,8930,8935,False,False,expiration,expiration
250,0.23376899262716386,25,up,down,0.3836655000013707,0.9265290631459576,,experiment,cRDM,0.0,,,,894.7695868999982,1006,22,female,True,8947,8951,False,False,inspiration,expiration
251,0.23376899262716386,25,down,up,0.2838787999971828,1.8201394391802528,,experiment,cRDM,0.0,,,,897.2861128999975,1006,22,female,True,8972,8975,False,False,inspiration,inspiration
252,0.23376899262716386,25,up,down,0.4570702999990317,1.1803681513439666,,experiment,cRDM,0.0,,,,899.1527092999968,1006,22,female,True,8991,8996,False,False,expiration,expiration
253,0.23376899262716386,25,down,down,0.5904990000017278,0.8450531285306141,,experiment,cRDM,0.0,,,,900.7193222999996,1006,22,female,True,9006,9012,False,False,expiration,inspiration
254,0.23376899262716386,25,down,up,0.4168425999996544,0.6225268200823575,,experiment,cRDM,0.0,,,,902.2025794999972,1006,22,female,True,9021,9025,False,False,peak,expiration
255,0.23376899262716386,25,down,up,0.6416128000018944,1.93639823370253,,experiment,cRDM,0.0,,,,904.8191814999992,1006,22,female,True,9047,9053,False,False,inspiration,inspiration
256,0.23376899262716386,25,down,down,0.4730433000004268,0.8115936211588008,,experiment,cRDM,0.0,,,,906.5357608999983,1006,22,female,True,9064,9069,False,False,expiration,expiration
257,0.23376899262716386,25,down,up,0.6700610000007146,1.8106403416291204,,experiment,cRDM,0.0,,,,909.085712199998,1006,22,female,True,9090,9097,False,False,expiration,expiration
258,0.23376899262716386,25,up,down,0.5692371999975876,0.9148839770731494,,experiment,cRDM,0.0,,,,910.9355958999986,1006,22,female,True,9108,9114,False,False,inspiration,inspiration
259,0.23376899262716386,25,up,up,0.4607337999987067,1.682075809071368,,experiment,cRDM,0.0,,,,913.452040199998,1006,22,female,True,9134,9139,False,False,expiration,expiration
260,0.23376899262716386,25,up,down,0.4613721000023361,1.8642110409485693,,experiment,cRDM,0.0,,,,916.0354154999986,1006,22,female,True,9159,9164,False,False,expiration,expiration
261,0.23376899262716386,25,up,up,0.3504395000018121,1.9334396685631925,,experiment,cRDM,0.0,,,,918.6853432999997,1006,22,female,True,9186,9190,False,False,inspiration,expiration
262,101.0,25,M,down,1.1896276000006765,0.8420259835803066,,experiment,emotion,0.0,,,,922.2351600999973,1006,22,female,True,9221,9233,False,False,inspiration,expiration
263,68.0,25,M,down,0.5023265000018,0.4091607766566028,,experiment,emotion,0.0,,,,924.1184496999997,1006,22,female,True,9240,9245,False,False,expiration,expiration
264,90.0,25,F,up,0.30017270000098506,0.684950835385745,,experiment,emotion,0.0,,,,925.5850853999983,1006,22,female,True,9255,9258,False,False,expiration,expiration
265,101.0,25,F,up,0.6712034000011045,1.7239685472459785,,experiment,emotion,0.0,,,,928.0016357999992,1006,22,female,True,9279,9286,False,False,expiration,expiration
266,90.0,25,M,down,0.4385883000031754,1.6762980093434832,,experiment,emotion,0.0,,,,930.6182064999994,1006,22,female,True,9305,9309,False,False,inspiration,expiration
267,79.0,25,F,up,0.4416521999992256,0.8742210414800438,,experiment,emotion,0.0,,,,932.2181553999981,1006,22,female,True,9321,9325,False,False,expiration,expiration
268,68.0,25,M,,,0.6270070410997108,,experiment,emotion,0.0,,,,933.5681033999972,1006,22,female,True,9335,0,False,False,inspiration,0
269,79.0,25,M,up,0.7538421000026574,1.5955645921963058,,experiment,emotion,0.0,,,,937.8679574999987,1006,22,female,True,9378,9386,False,False,peak,expiration
270,101.0,25,F,up,0.7856595999983256,0.9501763950637504,,experiment,emotion,0.0,,,,939.8511342999992,1006,22,female,True,9398,9406,False,False,inspiration,inspiration
271,79.0,25,F,down,0.5236694000013813,1.1067334372054654,,experiment,emotion,0.0,,,,942.0011229999983,1006,22,female,True,9419,9424,False,False,expiration,expiration
272,90.0,25,F,up,0.3835232999990694,0.8179363483297564,,experiment,emotion,0.0,,,,943.601055799998,1006,22,female,True,9435,9439,False,False,inspiration,inspiration
273,101.0,25,F,down,0.6557591999990109,1.531165727312074,,experiment,emotion,0.0,,,,945.8009932999994,1006,22,female,True,9457,9464,False,False,expiration,inspiration
274,90.0,25,F,down,0.8555197999994562,0.7650465184299242,,experiment,emotion,0.0,,,,947.4842500999983,1006,22,female,True,9474,9483,False,False,expiration,expiration
275,68.0,25,F,up,0.4167747000028612,0.7849303847993883,,experiment,emotion,0.0,,,,949.4175123999994,1006,22,female,True,9493,9497,False,False,inspiration,inspiration
276,79.0,25,M,up,0.5280356000002939,1.8989386130847643,,experiment,emotion,0.0,,,,952.0007480999992,1006,22,female,True,9519,9524,False,False,expiration,inspiration
277,68.0,25,M,down,0.7864399000027333,1.0257868043967464,,experiment,emotion,0.0,,,,953.8173461999976,1006,22,female,True,9537,9545,False,False,expiration,expiration
278,101.0,25,M,up,0.5341832999984035,0.919317188388766,,experiment,emotion,0.0,,,,955.8006051999984,1006,22,female,True,9557,9562,False,False,inspiration,inspiration
279,68.0,25,M,down,0.38347229999999394,1.8315563501298864,,experiment,emotion,0.0,,,,958.4338489999973,1006,22,female,True,9583,9587,False,False,trough,inspiration
280,90.0,25,F,up,0.38361989999975776,1.0247146309690611,,experiment,emotion,0.0,,,,960.1503275999968,1006,22,female,True,9601,9605,False,False,expiration,expiration
281,90.0,25,M,down,0.422761999998329,1.163806434110717,,experiment,emotion,0.0,,,,962.0170510999997,1006,22,female,True,9619,9623,False,False,inspiration,inspiration
282,79.0,25,M,down,0.4534861000029196,1.6910299591705067,,experiment,emotion,0.0,,,,964.4002871999983,1006,22,female,True,9643,9648,False,False,expiration,inspiration
283,79.0,25,F,down,0.6982414000012795,1.3761614568853893,,experiment,emotion,0.0,,,,966.4835452999977,1006,22,female,True,9664,9671,False,False,expiration,expiration
284,68.0,25,M,down,0.5163427000006777,1.8365519511570847,,experiment,emotion,0.0,,,,969.2834385999997,1006,22,female,True,9692,9697,False,False,expiration,expiration
285,101.0,25,F,up,0.8171005000003788,1.8422045953111617,,experiment,emotion,0.0,,,,971.9166764,1006,22,female,True,9718,9726,False,False,inspiration,expiration
286,90.0,25,F,down,0.6134880000026897,0.4819685276216595,,experiment,emotion,0.0,,,,973.4832717999997,1006,22,female,True,9734,9740,False,False,expiration,inspiration
287,68.0,25,M,up,0.4001763000014762,1.217075266651752,,experiment,emotion,0.0,,,,975.5832091999984,1006,22,female,True,9755,9759,False,False,expiration,expiration
288,101.0,25,M,down,0.4461148000009416,0.5818145364108089,,experiment,emotion,0.0,,,,976.8496512999992,1006,22,female,True,9768,9772,False,False,trough,inspiration
289,101.0,25,F,down,0.4296828000005917,1.2135932022705842,,experiment,emotion,0.0,,,,978.7831012999997,1006,22,female,True,9787,9791,False,False,expiration,expiration
290,79.0,25,M,down,0.6250614000018686,1.1353368739168928,,experiment,emotion,0.0,,,,980.5996835999975,1006,22,female,True,9805,9811,False,False,inspiration,inspiration
291,68.0,25,F,down,0.589156300000468,0.4455644731124156,,experiment,emotion,0.0,,,,981.9496585999988,1006,22,female,True,9819,9825,False,False,expiration,expiration
292,79.0,25,F,up,0.6812719000008656,0.7945232823062814,,experiment,emotion,0.0,,,,983.5995640999972,1006,22,female,True,9835,9842,False,False,inspiration,expiration
293,90.0,25,F,down,0.8349231000029249,0.7327377627470055,,experiment,emotion,0.0,,,,985.282883099997,1006,22,female,True,9852,9860,False,False,expiration,expiration
294,68.0,25,M,up,0.26684150000073714,1.236795083252157,,experiment,emotion,0.0,,,,987.616108899998,1006,22,female,True,9875,9878,False,False,expiration,expiration
295,101.0,25,M,down,0.3168331999986549,1.9054162170494768,,experiment,emotion,0.0,,,,990.2159987999984,1006,22,female,True,9901,9904,False,False,inspiration,inspiration
296,90.0,25,M,up,0.48983500000031205,1.7121517551996452,,experiment,emotion,0.0,,,,992.615923399997,1006,22,female,True,9925,9930,False,False,inspiration,peak
297,101.0,25,F,up,0.6736418000000413,1.3777273113303607,,experiment,emotion,0.0,,,,994.7491582999974,1006,22,female,True,9946,9953,False,False,expiration,inspiration
298,68.0,25,F,down,0.5830471000008401,0.923885323362782,,experiment,emotion,0.0,,,,996.6157566000003,1006,22,female,True,9965,9971,False,False,expiration,expiration
299,90.0,25,M,up,0.4524142999980541,0.3807416546670053,,experiment,emotion,0.0,,,,997.8323643999976,1006,22,female,True,9977,9982,False,False,expiration,inspiration
300,79.0,25,F,down,0.31681380000009085,1.548788436530103,,experiment,emotion,0.0,,,,1000.1156400999972,1006,22,female,True,10000,10003,False,False,expiration,expiration
301,79.0,25,M,up,0.4715576000016881,1.2170061472625495,,experiment,emotion,0.0,,,,1002.0322080999975,1006,22,female,True,10019,10024,False,False,inspiration,expiration
302,90.0,25,M,up,0.4185768999996071,0.37162109065276777,,experiment,emotion,0.0,,,,1003.1321811999987,1006,22,female,True,10030,10034,False,False,expiration,expiration
303,101.0,25,M,down,0.4001968000011402,1.6391407365330846,,experiment,emotion,0.0,,,,1005.4486727999974,1006,22,female,True,10054,10058,False,False,inspiration,expiration
304,79.0,25,F,up,0.3668491999997059,0.944086215541085,,experiment,emotion,0.0,,,,1007.0987059999969,1006,22,female,True,10070,10074,False,False,expiration,expiration
305,68.0,25,F,down,0.3835687999999209,1.305777127262614,,experiment,emotion,0.0,,,,1009.1152936,1006,22,female,True,10090,10094,False,False,inspiration,expiration
306,68.0,25,M,down,0.5068417000002228,0.7450633882494554,,experiment,emotion,0.0,,,,1010.5319151999976,1006,22,female,True,10104,10109,False,False,expiration,expiration
307,79.0,25,F,down,0.4002126999985194,1.5062027678457734,,experiment,emotion,0.0,,,,1012.8151803,1006,22,female,True,10127,10131,False,False,inspiration,expiration
308,101.0,25,F,down,0.5170190999997429,1.2751698870120085,,experiment,emotion,0.0,,,,1014.7817619999988,1006,22,female,True,10147,10152,False,False,expiration,expiration
309,90.0,25,M,up,0.468025400001352,0.7855787599796578,,experiment,emotion,0.0,,,,1016.3817019999988,1006,22,female,True,10163,10168,False,False,inspiration,inspiration
310,68.0,25,M,up,0.5187774999976682,0.3470530265893261,,experiment,emotion,0.0,,,,1017.4649960999997,1006,22,female,True,10174,10179,False,False,expiration,expiration
311,101.0,25,F,down,0.4802376000006916,1.9972030392216735,,experiment,emotion,0.0,,,,1020.2315449999987,1006,22,female,True,10201,10206,False,False,inspiration,expiration
312,90.0,25,M,,,0.5617303393209625,,experiment,emotion,0.0,,,,1021.5480167999997,1006,22,female,True,10215,0,False,False,expiration,0
313,90.0,25,F,up,0.2835343000006105,0.7528395522199756,,experiment,emotion,0.0,,,,1024.9980369999976,1006,22,female,True,10249,10252,False,False,expiration,expiration
314,68.0,25,F,down,0.3668579000004684,1.6408021212518755,,experiment,emotion,0.0,,,,1027.3146285999974,1006,22,female,True,10272,10276,False,False,expiration,expiration
315,79.0,25,F,up,0.36689880000267294,0.9642487805913728,,experiment,emotion,0.0,,,,1028.981226,1006,22,female,True,10289,10293,False,False,expiration,inspiration
316,101.0,25,M,up,0.2668577999975241,1.1664905508403929,,experiment,emotion,0.0,,,,1030.8311474999973,1006,22,female,True,10307,10310,False,False,expiration,expiration
317,79.0,25,M,down,0.3668936999965808,1.7746892919882449,,experiment,emotion,0.0,,,,1033.2810742999973,1006,22,female,True,10332,10336,False,False,inspiration,expiration
318,79.0,25,F,up,0.43480300000010175,1.9759782561378991,,experiment,emotion,0.0,,,,1035.9309689999973,1006,22,female,True,10358,10362,False,False,inspiration,inspiration
319,79.0,25,F,down,0.484910499999387,1.9398592520872664,,experiment,emotion,0.0,,,,1038.5808784999972,1006,22,female,True,10385,10390,False,False,peak,expiration
320,101.0,25,M,down,0.4919680999992124,0.7436083803794088,,experiment,emotion,0.0,,,,1040.080804199999,1006,22,female,True,10400,10405,False,False,expiration,trough
321,90.0,25,M,down,1.5137125000001106,1.6490244917429622,,experiment,emotion,0.0,,,,1042.514056,1006,22,female,True,10424,10439,False,False,expiration,inspiration
322,68.0,25,M,up,0.4398045000016282,1.3013410004339772,,experiment,emotion,0.0,,,,1045.6139386999969,1006,22,female,True,10455,10459,False,False,expiration,expiration
323,68.0,25,M,up,0.4999489000001631,0.9352613894134794,,experiment,emotion,0.0,,,,1047.263825099999,1006,22,female,True,10472,10477,False,False,inspiration,inspiration
324,90.0,25,M,up,0.8209381999986363,1.1870292052891105,,experiment,emotion,0.0,,,,1049.2138264999994,1006,22,female,True,10491,10499,False,False,expiration,expiration
325,101.0,25,F,down,0.42706349999934895,0.5942270742142836,,experiment,emotion,0.0,,,,1050.9137413999997,1006,22,female,True,10508,10512,False,False,inspiration,inspiration
326,101.0,25,F,up,1.4500727000013285,0.6022543350439775,,experiment,emotion,0.0,,,,1052.2136885,1006,22,female,True,10521,10536,False,False,expiration,expiration
327,68.0,25,M,down,0.4741728999979386,1.3353228800822772,,experiment,emotion,0.0,,,,1055.2635900999994,1006,22,female,True,10552,10557,False,False,peak,expiration
328,101.0,25,F,up,0.6069338000015705,1.9327240267642225,,experiment,emotion,0.0,,,,1057.9468120999989,1006,22,female,True,10579,10585,False,False,inspiration,expiration
329,79.0,25,F,down,0.4813467999993009,0.5885329938505844,,experiment,emotion,0.0,,,,1059.4134344999984,1006,22,female,True,10593,10598,False,False,expiration,expiration
330,90.0,25,F,up,0.5167918999977701,1.0157891219641677,,experiment,emotion,0.0,,,,1061.180048899998,1006,22,female,True,10611,10616,False,False,inspiration,expiration
331,79.0,25,M,up,0.4754347999987658,0.7945097263254666,,experiment,emotion,0.0,,,,1062.7633053999998,1006,22,female,True,10627,10632,False,False,expiration,expiration
332,68.0,25,F,up,0.4322200000024168,0.7330321374684561,,experiment,emotion,0.0,,,,1064.246607899997,1006,22,female,True,10642,10646,False,False,inspiration,peak
333,90.0,25,F,up,0.6206501000015123,1.9586974904624082,,experiment,emotion,0.0,,,,1066.9131574999992,1006,22,female,True,10668,10674,False,False,inspiration,inspiration
334,79.0,25,F,down,1.133368500002689,1.5840221879164238,,experiment,emotion,0.0,,,,1069.3963914999986,1006,22,female,True,10693,10704,False,False,expiration,inspiration
335,90.0,25,M,up,0.6361256000018329,0.9277335852238946,,experiment,emotion,0.0,,,,1071.7296360999972,1006,22,female,True,10716,10722,False,False,expiration,expiration
336,68.0,25,M,down,0.5364822000010463,0.9528107998004292,,experiment,emotion,0.0,,,,1073.5962658999997,1006,22,female,True,10735,10740,False,False,inspiration,expiration
337,101.0,25,F,up,0.7282027999972343,0.9081179101497349,,experiment,emotion,0.0,,,,1075.3295132999992,1006,22,female,True,10753,10760,False,False,expiration,inspiration
338,90.0,25,M,down,0.35009610000270186,1.2615379734420789,,experiment,emotion,0.0,,,,1077.596098799997,1006,22,female,True,10775,10779,False,False,expiration,expiration
339,101.0,25,F,down,0.5180995000009716,1.4831935607834996,,experiment,emotion,0.0,,,,1079.7626603999997,1006,22,female,True,10797,10802,False,False,expiration,expiration
340,68.0,25,M,up,0.4861172999990231,0.5964601292852154,,experiment,emotion,0.0,,,,1081.1626381999997,1006,22,female,True,10811,10816,False,False,expiration,inspiration
341,79.0,25,M,down,0.619413500000519,1.2096502073760087,,experiment,emotion,0.0,,,,1083.1125556999978,1006,22,female,True,10830,10836,False,False,expiration,expiration
342,0.23376899262716386,25,up,up,0.4168327000006684,1.7371187120053724,,experiment,cRDM,1.0,,,,1102.8451860999994,1006,22,female,True,11028,11032,False,False,inspiration,inspiration
343,0.23376899262716386,25,up,down,0.5550010000006296,1.832087363504476,,experiment,cRDM,1.0,,,,1105.3617519999968,1006,22,female,True,11053,11059,False,False,expiration,expiration
344,0.23376899262716386,25,down,down,0.4724371999982395,0.8311023076106023,,experiment,cRDM,1.0,,,,1107.028321599999,1006,22,female,True,11069,11074,False,False,inspiration,inspiration
345,0.23376899262716386,25,down,down,0.44200679999994463,1.976392175290489,,experiment,cRDM,1.0,,,,1109.7448024999976,1006,22,female,True,11097,11101,False,False,expiration,trough
346,0.23376899262716386,25,up,up,0.5175569000020914,0.6268883810309462,,experiment,cRDM,1.0,,,,1111.0781900000004,1006,22,female,True,11110,11115,False,False,inspiration,expiration
347,0.23376899262716386,25,down,down,0.31719239999802085,0.4665864907616765,,experiment,cRDM,1.0,,,,1112.3281283999968,1006,22,female,True,11122,11125,False,False,expiration,expiration
348,0.23376899262716386,25,up,up,0.4821281999975327,1.4321741964493295,,experiment,cRDM,1.0,,,,1114.4446222999975,1006,22,female,True,11144,11149,False,False,inspiration,expiration
349,0.23376899262716386,25,up,down,0.5200638999995135,0.9149968720897884,,experiment,cRDM,1.0,,,,1116.0946941999973,1006,22,female,True,11160,11165,False,False,expiration,expiration
350,0.23376899262716386,25,down,up,0.3838857000009739,0.3075932121375531,,experiment,cRDM,1.0,,,,1117.1779556999973,1006,22,female,True,11171,11175,False,False,trough,inspiration
351,0.23376899262716386,25,down,down,0.4168633000008413,1.2180650002525404,,experiment,cRDM,1.0,,,,1119.0945795999978,1006,22,female,True,11190,11194,False,False,expiration,expiration
352,0.23376899262716386,25,down,down,0.4999849000014365,1.4498179944135858,,experiment,cRDM,1.0,,,,1121.2277940999993,1006,22,female,True,11211,11216,False,False,inspiration,expiration
353,0.23376899262716386,25,down,down,0.470316199996887,1.946850935828723,,experiment,cRDM,1.0,,,,1123.9444606999969,1006,22,female,True,11239,11244,False,False,inspiration,inspiration
354,0.23376899262716386,25,down,down,0.3671075999991445,1.874615687856482,,experiment,cRDM,1.0,,,,1126.5609861999985,1006,22,female,True,11265,11269,False,False,expiration,expiration
355,0.23376899262716386,25,down,down,0.33364779999828903,1.263922004556982,,experiment,cRDM,1.0,,,,1128.5108889000005,1006,22,female,True,11284,11287,False,False,inspiration,inspiration
356,0.23376899262716386,25,up,down,0.35039870000036893,1.174854321424757,,experiment,cRDM,1.0,,,,1130.3608741999994,1006,22,female,True,11303,11307,False,False,expiration,expiration
357,0.23376899262716386,25,up,down,0.4002608000009785,1.3864532093632258,,experiment,cRDM,1.0,,,,1132.4273842000002,1006,22,female,True,11323,11327,False,False,peak,expiration
358,0.23376899262716386,25,up,up,0.35043450000011944,1.2622347264655391,,experiment,cRDM,1.0,,,,1134.3773722999977,1006,22,female,True,11343,11347,False,False,expiration,inspiration
359,0.23376899262716386,25,up,down,0.38392649999877904,0.9798937136605288,,experiment,cRDM,1.0,,,,1136.0439159999987,1006,22,female,True,11360,11364,False,False,expiration,expiration
360,0.23376899262716386,25,down,up,0.41689660000338336,0.8623096290573395,,experiment,cRDM,1.0,,,,1137.5938733000005,1006,22,female,True,11375,11379,False,False,expiration,inspiration
361,0.23376899262716386,25,up,down,0.4653701999995974,1.5915639094063565,,experiment,cRDM,1.0,,,,1139.860455099999,1006,22,female,True,11398,11403,False,False,expiration,expiration
362,0.23376899262716386,25,up,down,0.4450190999996266,0.7011175644250883,,experiment,cRDM,1.0,,,,1141.293729699999,1006,22,female,True,11412,11416,False,False,inspiration,inspiration
363,0.23376899262716386,25,down,up,0.3840149999996356,0.7617871175011823,,experiment,cRDM,1.0,,,,1142.743540299998,1006,22,female,True,11427,11431,False,False,expiration,expiration
364,0.23376899262716386,25,up,up,0.5338115999984439,0.4132143865055941,,experiment,cRDM,1.0,,,,1143.8269981999986,1006,22,female,True,11438,11443,False,False,expiration,inspiration
365,0.23376899262716386,25,down,down,0.2838330999984464,0.7605081957573194,,experiment,cRDM,1.0,,,,1145.376932299998,1006,22,female,True,11453,11456,False,False,expiration,expiration
366,0.23376899262716386,25,down,down,0.5039312999979302,1.8150689720725601,,experiment,cRDM,1.0,,,,1147.8768290999976,1006,22,female,True,11478,11483,False,False,inspiration,peak
367,0.23376899262716386,25,up,up,0.4168193000004976,1.238366082849511,,experiment,cRDM,1.0,,,,1149.8767474999984,1006,22,female,True,11498,11502,False,False,expiration,expiration
368,0.23376899262716386,25,up,down,0.4843395999996574,0.3884607090182936,,experiment,cRDM,1.0,,,,1150.943410699998,1006,22,female,True,11509,11514,False,False,expiration,expiration
369,0.23376899262716386,25,down,up,0.3505146000024979,1.8428433379767373,,experiment,cRDM,1.0,,,,1153.5266121999996,1006,22,female,True,11535,11539,False,False,expiration,expiration
370,0.23376899262716386,25,up,down,0.3005212999996729,0.9744232532820151,,experiment,cRDM,1.0,,,,1155.1765786999968,1006,22,female,True,11551,11554,False,False,expiration,trough
371,0.23376899262716386,25,down,up,0.5226801999997406,1.878126170263428,,experiment,cRDM,1.0,,,,1157.7430340999997,1006,22,female,True,11577,11582,False,False,expiration,expiration
372,0.23376899262716386,25,down,down,0.40059100000144104,1.3911375065420113,,experiment,cRDM,1.0,,,,1159.9097200999968,1006,22,female,True,11598,11602,False,False,inspiration,expiration
373,0.23376899262716386,25,down,down,0.5647781999978179,1.4960030123944394,,experiment,cRDM,1.0,,,,1162.092960799997,1006,22,female,True,11620,11626,False,False,expiration,inspiration
374,0.23376899262716386,25,up,up,0.4455110000017157,0.8629226351834571,,experiment,cRDM,1.0,,,,1163.7762277999973,1006,22,female,True,11637,11641,False,False,expiration,expiration
375,0.23376899262716386,25,up,down,0.2838255999995454,0.5416829433292323,,experiment,cRDM,1.0,,,,1165.009523599998,1006,22,female,True,11649,11652,False,False,expiration,expiration
376,0.23376899262716386,25,up,up,0.3671586999989813,1.6289467170896312,,experiment,cRDM,1.0,,,,1167.3260856999989,1006,22,female,True,11672,11676,False,False,expiration,expiration
377,0.23376899262716386,25,down,down,0.3504339999999502,1.89099078615877,,experiment,cRDM,1.0,,,,1169.8926605999984,1006,22,female,True,11698,11702,False,False,inspiration,expiration
378,0.23376899262716386,25,down,down,0.5638805000016873,0.30361764057435986,,experiment,cRDM,1.0,,,,1170.8759417,1006,22,female,True,11708,11714,False,False,expiration,expiration
379,0.23376899262716386,25,up,down,0.36716259999957396,1.4596905932893791,,experiment,cRDM,1.0,,,,1173.1758938999992,1006,22,female,True,11731,11735,False,False,inspiration,expiration
380,0.23376899262716386,25,down,up,0.4002729000021645,1.2145244698749869,,experiment,cRDM,1.0,,,,1175.0758322999973,1006,22,female,True,11750,11754,False,False,expiration,inspiration
381,0.23376899262716386,25,up,down,0.36725330000263057,1.0765792862649488,,experiment,cRDM,1.0,,,,1176.8423227999992,1006,22,female,True,11768,11772,False,False,expiration,expiration
382,0.23376899262716386,25,up,down,0.3338693000005151,0.7955202377575339,,experiment,cRDM,1.0,,,,1178.3256898,1006,22,female,True,11782,11785,False,False,expiration,inspiration
383,0.23376899262716386,25,up,up,0.6127640999984578,1.5559372019468334,,experiment,cRDM,1.0,,,,1180.5589717999976,1006,22,female,True,11805,11811,False,False,expiration,expiration
384,0.23376899262716386,25,down,down,0.4169465000013588,1.408606138761202,,experiment,cRDM,1.0,,,,1182.842182299999,1006,22,female,True,11828,11832,False,False,inspiration,inspiration
385,0.23376899262716386,25,down,down,0.8077472000004491,0.6114144516107036,,experiment,cRDM,1.0,,,,1184.1419909999968,1006,22,female,True,11841,11849,False,False,expiration,expiration
386,0.23376899262716386,25,up,up,0.4002663999999641,1.8595523023128824,,experiment,cRDM,1.0,,,,1187.0753711999969,1006,22,female,True,11870,11874,False,False,inspiration,expiration
387,0.23376899262716386,25,down,down,0.4483827000003657,0.36008324660665153,,experiment,cRDM,1.0,,,,1188.125317799997,1006,22,female,True,11880,11884,False,False,expiration,expiration
388,0.23376899262716386,25,down,up,0.3504583999965689,1.0182895300097352,,experiment,cRDM,1.0,,,,1189.8586284999985,1006,22,female,True,11898,11902,False,False,inspiration,inspiration
389,0.23376899262716386,25,up,down,0.3337753000014345,0.6814536490009926,,experiment,cRDM,1.0,,,,1191.2085559999978,1006,22,female,True,11911,11914,False,False,expiration,expiration
390,0.23376899262716386,25,up,up,0.3836518000025535,1.5656010981725668,,experiment,cRDM,1.0,,,,1193.4585184999996,1006,22,female,True,11934,11938,False,False,expiration,expiration
391,0.23376899262716386,25,down,down,0.5416624999998021,1.0803370361160582,,experiment,cRDM,1.0,,,,1195.2250574999996,1006,22,female,True,11951,11956,False,False,expiration,inspiration
392,0.23376899262716386,25,up,up,0.2671904999988328,0.7578946429250254,,experiment,cRDM,1.0,,,,1196.7750183999995,1006,22,female,True,11967,11970,False,False,expiration,expiration
393,0.23376899262716386,25,down,down,0.31712619999962044,0.3965427349372779,,experiment,cRDM,1.0,,,,1197.8583427999986,1006,22,female,True,11978,11981,False,False,expiration,expiration
394,0.23376899262716386,25,down,up,0.3171790999986115,1.166797635486044,,experiment,cRDM,1.0,,,,1199.6915993999976,1006,22,female,True,11996,11999,False,False,inspiration,expiration
395,0.23376899262716386,25,down,up,0.450598400002491,1.8885923817634345,,experiment,cRDM,1.0,,,,1202.2581661999975,1006,22,female,True,12022,12027,False,False,inspiration,inspiration
396,0.23376899262716386,25,up,up,0.4629238000015903,0.4141869068209564,,experiment,cRDM,1.0,,,,1203.3747969999968,1006,22,female,True,12033,12038,False,False,expiration,expiration
397,0.23376899262716386,25,up,down,0.3004719999989902,1.9473189960764068,,experiment,cRDM,1.0,,,,1206.0580163999985,1006,22,female,True,12060,12063,False,False,inspiration,expiration
398,0.23376899262716386,25,down,down,0.5078016000006755,0.478434969915332,,experiment,cRDM,1.0,,,,1207.2079371,1006,22,female,True,12071,12076,False,False,expiration,expiration
399,0.23376899262716386,25,down,down,0.5088209999994433,0.8792059119289177,,experiment,cRDM,1.0,,,,1208.8579138999996,1006,22,female,True,12088,12093,False,False,inspiration,inspiration
400,0.23376899262716386,25,up,down,0.3004906999995001,0.9767097961456714,,experiment,cRDM,1.0,,,,1210.6078200999984,1006,22,female,True,12105,12108,False,False,expiration,expiration
401,0.23376899262716386,25,up,down,0.4653268999973079,1.1857452542658868,,experiment,cRDM,1.0,,,,1212.4744464999967,1006,22,female,True,12124,12129,False,False,inspiration,expiration
402,0.23376899262716386,25,up,up,0.5540141000019503,0.9968897780481858,,experiment,cRDM,1.0,,,,1214.2077021999976,1006,22,female,True,12141,12147,False,False,expiration,inspiration
403,0.23376899262716386,25,up,down,0.4166715000028489,1.890982191284469,,experiment,cRDM,1.0,,,,1216.9075812999981,1006,22,female,True,12168,12172,False,False,inspiration,inspiration
404,0.23376899262716386,25,up,up,0.503899300001649,1.5651182830703998,,experiment,cRDM,1.0,,,,1219.1408744999972,1006,22,female,True,12191,12196,False,False,expiration,expiration
405,0.23376899262716386,25,down,down,0.494653500001732,1.6582188570182876,,experiment,cRDM,1.0,,,,1221.5740872999995,1006,22,female,True,12215,12220,False,False,expiration,expiration
406,0.23376899262716386,25,down,down,0.4403585000000021,0.6682281992748604,,experiment,cRDM,1.0,,,,1223.0073814999996,1006,22,female,True,12229,12233,False,False,expiration,inspiration
407,0.23376899262716386,25,up,up,0.41692909999983385,1.9438781948775767,,experiment,cRDM,1.0,,,,1225.6405073999995,1006,22,female,True,12256,12260,False,False,expiration,expiration
408,0.23376899262716386,25,down,down,0.3838872999986052,0.7512991211891724,,experiment,cRDM,1.0,,,,1227.0738798999992,1006,22,female,True,12270,12274,False,False,inspiration,inspiration
409,0.23376899262716386,25,down,down,0.6316139000009571,1.0186724972599943,,experiment,cRDM,1.0,,,,1228.7571903999994,1006,22,female,True,12287,12293,False,False,expiration,expiration
410,0.23376899262716386,25,down,up,0.517354499999783,1.9366044498769448,,experiment,cRDM,1.0,,,,1231.5903827999973,1006,22,female,True,12315,12320,False,False,expiration,expiration
411,0.23376899262716386,25,up,down,0.2506152999994811,0.8388472910033273,,experiment,cRDM,1.0,,,,1233.2070000999993,1006,22,female,True,12331,12334,False,False,trough,inspiration
412,0.23376899262716386,25,down,down,0.4504856000021391,0.5938814783036155,,experiment,cRDM,1.0,,,,1234.4902776999988,1006,22,female,True,12344,12349,False,False,expiration,expiration
413,0.23376899262716386,25,down,up,0.3171561000017391,1.3767818184868923,,experiment,cRDM,1.0,,,,1236.5902010999996,1006,22,female,True,12365,12368,False,False,inspiration,inspiration
414,0.23376899262716386,25,down,down,0.31716120000055525,1.275028462333507,,experiment,cRDM,1.0,,,,1238.5401577999985,1006,22,female,True,12385,12388,False,False,expiration,expiration
415,0.23376899262716386,25,up,up,0.3005268000015349,0.95953920006789,,experiment,cRDM,1.0,,,,1240.1734025999976,1006,22,female,True,12401,12404,False,False,inspiration,inspiration
416,0.23376899262716386,25,up,up,0.4168176999992284,0.5779132881236049,,experiment,cRDM,1.0,,,,1241.4400530999992,1006,22,female,True,12414,12418,False,False,expiration,trough
417,0.23376899262716386,25,down,down,0.48309860000154,1.9229109584082769,,experiment,cRDM,1.0,,,,1244.056633,1006,22,female,True,12440,12445,False,False,expiration,expiration
418,0.23376899262716386,25,up,up,0.33385009999983595,0.7003889254103506,,experiment,cRDM,1.0,,,,1245.489865399999,1006,22,female,True,12454,12457,False,False,expiration,expiration
419,0.23376899262716386,25,down,down,0.4168145000003278,0.4189621619052336,,experiment,cRDM,1.0,,,,1246.5898306999989,1006,22,female,True,12465,12469,False,False,inspiration,inspiration
420,0.23376899262716386,25,up,up,0.3671700999984751,1.432719849260208,,experiment,cRDM,1.0,,,,1248.7064194999984,1006,22,female,True,12486,12490,False,False,expiration,expiration
421,0.23376899262716386,25,up,down,0.3006165000006149,1.1181950857393848,,experiment,cRDM,1.0,,,,1250.5063381,1006,22,female,True,12504,12507,False,False,inspiration,inspiration
422,101.0,25,M,up,0.5590004999976372,1.6700378458983935,,experiment,emotion,1.0,,,,1258.8727463999967,1006,22,female,True,12588,12594,False,False,inspiration,peak
423,68.0,25,M,down,0.4168037999988883,1.5049190319916468,,experiment,emotion,1.0,,,,1261.2226125999987,1006,22,female,True,12611,12615,False,False,expiration,expiration
424,90.0,25,F,up,0.4646055999983218,0.7173802564536977,,experiment,emotion,1.0,,,,1262.6391320000002,1006,22,female,True,12626,12631,False,False,inspiration,inspiration
425,101.0,25,F,down,0.43362999999953905,1.8738073821731809,,experiment,emotion,1.0,,,,1265.2390908999987,1006,22,female,True,12652,12656,False,False,expiration,inspiration
426,90.0,25,M,down,0.4433295999988332,0.8963396541485285,,experiment,emotion,1.0,,,,1266.8223985999975,1006,22,female,True,12667,12671,False,False,expiration,expiration
427,79.0,25,F,down,0.4167882000001555,0.8509743713247064,,experiment,emotion,1.0,,,,1268.4057092999976,1006,22,female,True,12683,12687,False,False,expiration,inspiration
428,68.0,25,M,down,0.43913429999884096,1.4997924031126026,,experiment,emotion,1.0,,,,1270.605610999999,1006,22,female,True,12705,12709,False,False,expiration,expiration
429,79.0,25,M,down,0.4169843000017863,0.9300470843842934,,experiment,emotion,1.0,,,,1272.238756499999,1006,22,female,True,12722,12726,False,False,inspiration,inspiration
430,101.0,25,F,up,0.383518799997546,1.6325798415466846,,experiment,emotion,1.0,,,,1274.5721415999976,1006,22,female,True,12745,12749,False,False,expiration,inspiration
431,79.0,25,F,down,0.4450012000015704,1.3307731493601327,,experiment,emotion,1.0,,,,1276.588718799998,1006,22,female,True,12765,12769,False,False,expiration,expiration
432,90.0,25,F,up,0.31681639999806066,1.6157385971233074,,experiment,emotion,1.0,,,,1278.921957399998,1006,22,female,True,12788,12791,False,False,inspiration,expiration
433,101.0,25,F,down,0.3001867000020866,1.9406977155255616,,experiment,emotion,1.0,,,,1281.5552121999972,1006,22,female,True,12815,12818,False,False,inspiration,inspiration
434,90.0,25,F,down,0.5066242999964743,0.41951365493080106,,experiment,emotion,1.0,,,,1282.655163299998,1006,22,female,True,12826,12831,False,False,expiration,expiration
435,68.0,25,F,up,0.3336254000023473,1.9021947714153775,,experiment,emotion,1.0,,,,1285.3382926999984,1006,22,female,True,12853,12856,False,False,peak,expiration
436,79.0,25,M,up,0.4405043000006117,0.31496366508227663,,experiment,emotion,1.0,,,,1286.338227199998,1006,22,female,True,12863,12867,False,False,expiration,expiration
437,68.0,25,M,down,0.3002048000016657,0.8725789862401598,,experiment,emotion,1.0,,,,1287.9215399999996,1006,22,female,True,12879,12882,False,False,inspiration,inspiration
438,101.0,25,M,down,0.4002096000003803,1.7642938432473465,,experiment,emotion,1.0,,,,1290.3715325999985,1006,22,female,True,12903,12907,False,False,expiration,inspiration
439,68.0,25,M,down,0.633270000002085,1.6129398080683344,,experiment,emotion,1.0,,,,1292.6714482999996,1006,22,female,True,12926,12932,False,False,expiration,expiration
440,90.0,25,F,up,0.3835284000015236,1.4943771955210552,,experiment,emotion,1.0,,,,1295.0547152000001,1006,22,female,True,12950,12954,False,False,expiration,expiration
441,90.0,25,M,down,0.4381054999976186,1.8581260062615923,,experiment,emotion,1.0,,,,1297.6046138999989,1006,22,female,True,12975,12979,False,False,inspiration,peak
442,79.0,25,M,up,0.4595128000000841,1.2429870583808669,,experiment,emotion,1.0,,,,1299.5712348999987,1006,22,female,True,12995,13000,False,False,expiration,inspiration
443,79.0,25,F,down,0.2835245999995095,0.8164779634047443,,experiment,emotion,1.0,,,,1301.1211356999993,1006,22,female,True,13011,13014,False,False,expiration,expiration
444,68.0,25,M,down,0.416829300000245,1.4792540423063965,,experiment,emotion,1.0,,,,1303.2877621999978,1006,22,female,True,13032,13036,False,False,inspiration,inspiration
445,101.0,25,F,down,0.4002059000013105,0.9186799772062666,,experiment,emotion,1.0,,,,1304.9043244999993,1006,22,female,True,13048,13052,False,False,expiration,expiration
446,90.0,25,F,down,0.5454924000005121,1.663081462194156,,experiment,emotion,1.0,,,,1307.2542419999988,1006,22,female,True,13072,13077,False,False,expiration,expiration
447,68.0,25,M,down,0.5014975999984017,0.5304418722397168,,experiment,emotion,1.0,,,,1308.6042065999973,1006,22,female,True,13085,13090,False,False,expiration,inspiration
448,101.0,25,M,up,0.4001871999971627,1.9978098157056527,,experiment,emotion,1.0,,,,1311.3707746,1006,22,female,True,13113,13117,False,False,expiration,expiration
449,101.0,25,F,up,0.4990776999984519,1.6658141321393247,,experiment,emotion,1.0,,,,1313.7206561999992,1006,22,female,True,13137,13142,False,False,expiration,expiration
450,79.0,25,M,up,0.4001854000016465,0.602105448909835,,experiment,emotion,1.0,,,,1315.103964599999,1006,22,female,True,13150,13154,False,False,expiration,inspiration
451,68.0,25,F,down,0.3335145999990345,1.1855544845705224,,experiment,emotion,1.0,,,,1316.987224499997,1006,22,female,True,13169,13172,False,False,expiration,expiration
452,79.0,25,F,down,0.5702376999979606,1.2976895245280882,,experiment,emotion,1.0,,,,1318.9704743000002,1006,22,female,True,13189,13195,False,False,inspiration,expiration
453,90.0,25,F,down,0.3003138000021863,1.9664184799587887,,experiment,emotion,1.0,,,,1321.8037057999973,1006,22,female,True,13217,13220,False,False,inspiration,inspiration
454,68.0,25,M,down,0.30018550000022515,1.5505863175012076,,experiment,emotion,1.0,,,,1324.0536341999978,1006,22,female,True,13240,13243,False,False,expiration,expiration
455,101.0,25,M,up,0.4001656999971601,1.3573187734425192,,experiment,emotion,1.0,,,,1326.086904099997,1006,22,female,True,13260,13264,False,False,inspiration,expiration
456,90.0,25,M,down,0.5092145999988134,1.5187360141966497,,experiment,emotion,1.0,,,,1328.3035001999995,1006,22,female,True,13282,13287,False,False,expiration,inspiration
457,101.0,25,F,up,0.4471800999999687,1.558441634380643,,experiment,emotion,1.0,,,,1330.6365812999975,1006,22,female,True,13306,13310,False,False,expiration,expiration
458,68.0,25,F,down,0.4167796000001545,0.5045949184603755,,experiment,emotion,1.0,,,,1331.853347999997,1006,22,female,True,13318,13322,False,False,trough,inspiration
459,90.0,25,M,up,0.4178179999980785,1.3708354575112314,,experiment,emotion,1.0,,,,1333.9199051999967,1006,22,female,True,13338,13342,False,False,expiration,expiration
460,79.0,25,F,up,0.5363255000011122,0.7046501175643274,,experiment,emotion,1.0,,,,1335.3363797999993,1006,22,female,True,13353,13358,False,False,expiration,inspiration
461,79.0,25,M,up,0.4168112999977893,0.8369700130136866,,experiment,emotion,1.0,,,,1336.9698229999995,1006,22,female,True,13369,13373,False,False,expiration,expiration
462,90.0,25,M,down,0.4168040000004112,0.9166958002487008,,experiment,emotion,1.0,,,,1338.569757199999,1006,22,female,True,13385,13389,False,False,expiration,inspiration
463,101.0,25,M,up,0.3502200000002631,1.4612565267700306,,experiment,emotion,1.0,,,,1340.7196523999992,1006,22,female,True,13406,13410,False,False,expiration,expiration
464,79.0,25,F,down,0.7541180999978678,1.7536927686210801,,experiment,emotion,1.0,,,,1343.169615699997,1006,22,female,True,13431,13439,False,False,peak,expiration
465,68.0,25,F,down,0.5792825000025914,1.7059971081513712,,experiment,emotion,1.0,,,,1345.919468699998,1006,22,female,True,13458,13464,False,False,inspiration,expiration
466,68.0,25,M,down,0.4989588999997068,1.1493386704407726,,experiment,emotion,1.0,,,,1347.9027595999978,1006,22,female,True,13478,13483,False,False,trough,inspiration
467,79.0,25,F,down,0.30019829999946523,1.4042387654737845,,experiment,emotion,1.0,,,,1350.0859905999969,1006,22,female,True,13500,13503,False,False,expiration,expiration
468,101.0,25,F,down,0.3333376999980828,0.7224224145756707,,experiment,emotion,1.0,,,,1351.5026053,1006,22,female,True,13514,13517,False,False,inspiration,inspiration
469,90.0,25,M,up,0.3168900000018766,1.534427776406129,,experiment,emotion,1.0,,,,1353.7358093999976,1006,22,female,True,13537,13540,False,False,expiration,expiration
470,68.0,25,M,down,0.33335710000028485,1.2819595089857798,,experiment,emotion,1.0,,,,1355.7024499000001,1006,22,female,True,13556,13559,False,False,inspiration,expiration
471,101.0,25,F,up,0.4702801999992517,0.9698432928954044,,experiment,emotion,1.0,,,,1357.3523967999972,1006,22,female,True,13573,13578,False,False,expiration,expiration
472,90.0,25,M,down,0.3334716000026674,1.5614328300959468,,experiment,emotion,1.0,,,,1359.6523318,1006,22,female,True,13596,13599,False,False,peak,expiration
473,90.0,25,F,down,0.4604666999985057,1.4167340001766482,,experiment,emotion,1.0,,,,1361.7522415999993,1006,22,female,True,13617,13622,False,False,expiration,inspiration
474,68.0,25,F,down,0.3501733000011882,1.6819093126449558,,experiment,emotion,1.0,,,,1364.1521377999998,1006,22,female,True,13641,13645,False,False,expiration,expiration
475,79.0,25,F,down,0.4379619999999704,0.8760768850592122,,experiment,emotion,1.0,,,,1365.7187406999985,1006,22,female,True,13656,13660,False,False,inspiration,inspiration
476,101.0,25,M,down,0.3501929999983986,1.2796887713378435,,experiment,emotion,1.0,,,,1367.7186554000002,1006,22,female,True,13676,13680,False,False,expiration,expiration
477,79.0,25,M,down,0.4168074000008346,1.9431605995491184,,experiment,emotion,1.0,,,,1370.3519234999985,1006,22,female,True,13703,13707,False,False,expiration,expiration
478,79.0,25,F,down,0.4348347999984981,0.6645151415207182,,experiment,emotion,1.0,,,,1371.7018422,1006,22,female,True,13716,13720,False,False,expiration,inspiration
479,79.0,25,F,down,0.383522100000846,1.046205879002773,,experiment,emotion,1.0,,,,1373.451794499997,1006,22,female,True,13734,13738,False,False,expiration,expiration
480,101.0,25,M,up,0.350114199998643,1.5437815534932864,,experiment,emotion,1.0,,,,1375.6683868999974,1006,22,female,True,13756,13760,False,False,inspiration,expiration
481,90.0,25,M,up,0.5927225999985238,0.5368095647972269,,experiment,emotion,1.0,,,,1376.8849980999985,1006,22,female,True,13768,13774,False,False,expiration,expiration
482,68.0,25,M,up,0.4855198000004748,1.2445562182042018,,experiment,emotion,1.0,,,,1379.0181864999975,1006,22,female,True,13790,13795,False,False,inspiration,expiration
483,68.0,25,M,down,0.283534399997734,1.186327634638919,,experiment,emotion,1.0,,,,1380.9681864999984,1006,22,female,True,13809,13812,False,False,expiration,inspiration
484,90.0,25,M,up,0.5692576000001281,0.9395317834259822,,experiment,emotion,1.0,,,,1382.6014390999992,1006,22,female,True,13825,13831,False,False,expiration,expiration
485,101.0,25,F,down,0.3668474000005517,0.898516665815116,,experiment,emotion,1.0,,,,1384.3513901999975,1006,22,female,True,13843,13847,False,False,inspiration,inspiration
486,101.0,25,F,up,0.5737098999998125,0.7828290185743163,,experiment,emotion,1.0,,,,1385.8179872,1006,22,female,True,13858,13864,False,False,expiration,expiration
487,68.0,25,M,up,0.4548137999991013,1.757422184627836,,experiment,emotion,1.0,,,,1388.4178886999978,1006,22,female,True,13884,13889,False,False,expiration,expiration
488,101.0,25,F,down,0.4002166000027501,1.153111893660823,,experiment,emotion,1.0,,,,1390.3178297999984,1006,22,female,True,13902,13906,False,False,inspiration,inspiration
489,79.0,25,F,down,0.5533454999967944,1.626870571591375,,experiment,emotion,1.0,,,,1392.6343488999994,1006,22,female,True,13926,13932,False,False,expiration,inspiration
490,90.0,25,F,up,0.5666927999991458,1.2876993612393146,,experiment,emotion,1.0,,,,1394.7510043999973,1006,22,female,True,13947,13953,False,False,expiration,expiration
491,79.0,25,M,down,0.5244540999992751,1.7095963330120845,,experiment,emotion,1.0,,,,1397.2842488999993,1006,22,female,True,13972,13977,False,False,peak,expiration
492,68.0,25,F,down,0.5408477999990282,1.5431274992180368,,experiment,emotion,1.0,,,,1399.6508279999978,1006,22,female,True,13996,14001,False,False,inspiration,inspiration
493,90.0,25,F,up,0.5022981999973126,1.0540272865383626,,experiment,emotion,1.0,,,,1401.517404299997,1006,22,female,True,14015,14020,False,False,expiration,expiration
494,79.0,25,F,down,0.6550482000020565,1.5110147411581647,,experiment,emotion,1.0,,,,1403.8006712999993,1006,22,female,True,14037,14044,False,False,expiration,expiration
495,90.0,25,M,up,0.5440699000027962,0.519023086833774,,experiment,emotion,1.0,,,,1405.2506243999994,1006,22,female,True,14052,14057,False,False,expiration,inspiration
496,68.0,25,M,down,0.6595041000000492,1.2479381570381405,,experiment,emotion,1.0,,,,1407.3171904999979,1006,22,female,True,14072,14079,False,False,expiration,expiration
497,101.0,25,F,up,0.2835138000009465,1.4361006488209869,,experiment,emotion,1.0,,,,1409.6837941999984,1006,22,female,True,14096,14099,False,False,inspiration,expiration
498,90.0,25,M,down,0.3335058999982721,1.262721286232039,,experiment,emotion,1.0,,,,1411.650376999998,1006,22,female,True,14116,14119,False,False,expiration,inspiration
499,101.0,25,F,up,0.6603598999972746,1.4089874382725696,,experiment,emotion,1.0,,,,1413.7503192999975,1006,22,female,True,14137,14144,False,False,expiration,expiration
500,68.0,25,M,down,0.7714620000006107,1.1138044271102925,,experiment,emotion,1.0,,,,1415.8002323999972,1006,22,female,True,14157,14165,False,False,inspiration,expiration
501,79.0,25,M,down,0.4703331000018807,0.5818115989328208,,experiment,emotion,1.0,,,,1417.4333684999986,1006,22,female,True,14174,14179,False,False,expiration,expiration
502,0.23376899262716386,25,up,up,0.4976734000010765,0.5085647807625842,,experiment,cRDM,2.0,,,,1448.5490135999974,1006,22,female,True,14485,14490,False,False,expiration,expiration
503,0.23376899262716386,25,up,down,0.31709739999860176,0.985991496184386,,experiment,cRDM,2.0,,,,1450.298934399998,1006,22,female,True,14502,14505,False,False,inspiration,inspiration
504,0.23376899262716386,25,down,down,0.4908089000018663,0.5175752492349774,,experiment,cRDM,2.0,,,,1451.4988803999984,1006,22,female,True,14514,14519,False,False,expiration,expiration
505,0.23376899262716386,25,down,up,0.2837794000006397,1.634047165679502,,experiment,cRDM,2.0,,,,1453.8988291999995,1006,22,female,True,14538,14541,False,False,expiration,expiration
506,0.23376899262716386,25,up,up,0.4896287999981723,1.6043123251761844,,experiment,cRDM,2.0,,,,1456.1820569999982,1006,22,female,True,14561,14566,False,False,inspiration,inspiration
507,0.23376899262716386,25,down,down,0.5780421000017668,1.7585331004818383,,experiment,cRDM,2.0,,,,1458.6986400999995,1006,22,female,True,14586,14592,False,False,expiration,expiration
508,0.23376899262716386,25,up,down,0.4451769000006607,1.8175290084490296,,experiment,cRDM,2.0,,,,1461.3485411,1006,22,female,True,14613,14617,False,False,expiration,expiration
509,0.23376899262716386,25,up,up,0.7815264000018942,1.7019376634397252,,experiment,cRDM,2.0,,,,1463.7651370999995,1006,22,female,True,14637,14645,False,False,inspiration,expiration
510,0.23376899262716386,25,down,down,0.4179127999996126,0.8282387050649995,,experiment,cRDM,2.0,,,,1465.6317509,1006,22,female,True,14656,14660,False,False,expiration,expiration
511,0.23376899262716386,25,down,down,0.6820084999999381,0.7177435880255928,,experiment,cRDM,2.0,,,,1467.0316981999968,1006,22,female,True,14670,14677,False,False,inspiration,expiration
512,0.23376899262716386,25,down,up,0.31717159999971045,0.7297028748388641,,experiment,cRDM,2.0,,,,1468.6982432999976,1006,22,female,True,14686,14689,False,False,expiration,expiration
513,0.23376899262716386,25,down,down,0.28379819999827305,1.5009898693846693,,experiment,cRDM,2.0,,,,1470.8815332999984,1006,22,female,True,14708,14711,False,False,expiration,expiration
514,0.23376899262716386,25,down,down,0.5362593999998353,1.7266759736882398,,experiment,cRDM,2.0,,,,1473.2814521999971,1006,22,female,True,14732,14737,False,False,inspiration,peak
515,0.23376899262716386,25,down,up,0.4799659999989672,0.6863169660816199,,experiment,cRDM,2.0,,,,1474.7647074999984,1006,22,female,True,14747,14752,False,False,expiration,expiration
516,0.23376899262716386,25,up,up,0.40028460000030464,1.7694843138647969,,experiment,cRDM,2.0,,,,1477.2646091999993,1006,22,female,True,14772,14776,False,False,expiration,expiration
517,0.23376899262716386,25,up,up,0.42477750000034575,1.256734474427586,,experiment,cRDM,2.0,,,,1479.1978619999973,1006,22,female,True,14791,14795,False,False,inspiration,inspiration
518,0.23376899262716386,25,up,up,0.4768603000011353,0.9485377317150544,,experiment,cRDM,2.0,,,,1480.8478142999993,1006,22,female,True,14808,14813,False,False,expiration,expiration
519,0.23376899262716386,25,up,up,0.4166278999982751,0.9089876058434251,,experiment,cRDM,2.0,,,,1482.4977642999984,1006,22,female,True,14824,14828,False,False,inspiration,inspiration
520,0.23376899262716386,25,down,down,0.4953488999999536,0.3948060364505533,,experiment,cRDM,2.0,,,,1483.5643597999988,1006,22,female,True,14835,14840,False,False,expiration,expiration
521,0.23376899262716386,25,up,up,0.4367296000018541,1.7567369024732815,,experiment,cRDM,2.0,,,,1486.080950399999,1006,22,female,True,14860,14864,False,False,inspiration,expiration
522,0.23376899262716386,25,up,down,0.3504525999996986,0.44642488907091976,,experiment,cRDM,2.0,,,,1487.230942899998,1006,22,female,True,14872,14876,False,False,expiration,expiration
523,0.23376899262716386,25,down,up,0.4984960000001593,0.4589027454108427,,experiment,cRDM,2.0,,,,1488.3642134999973,1006,22,female,True,14883,14888,False,False,inspiration,inspiration
524,0.23376899262716386,25,up,down,0.31715510000140057,1.4595194110237308,,experiment,cRDM,2.0,,,,1490.5807817999994,1006,22,female,True,14905,14908,False,False,expiration,expiration
525,0.23376899262716386,25,down,up,0.2671005000011064,0.8809483574574322,,experiment,cRDM,2.0,,,,1492.1474463999984,1006,22,female,True,14921,14924,False,False,inspiration,inspiration
526,0.23376899262716386,25,down,up,0.4939845000008063,1.144319503301948,,experiment,cRDM,2.0,,,,1493.9806898999993,1006,22,female,True,14939,14944,False,False,expiration,expiration
527,0.23376899262716386,25,up,up,0.4974277000001166,1.1159574907129044,,experiment,cRDM,2.0,,,,1495.8472514999994,1006,22,female,True,14958,14963,False,False,inspiration,expiration
528,0.23376899262716386,25,up,down,0.3005259000019578,1.4143764030091837,,experiment,cRDM,2.0,,,,1498.0305617999984,1006,22,female,True,14980,14983,False,False,inspiration,inspiration
529,0.23376899262716386,25,down,up,0.35043299999961164,0.8093879759358837,,experiment,cRDM,2.0,,,,1499.5304952999975,1006,22,female,True,14995,14999,False,False,expiration,expiration
530,0.23376899262716386,25,up,up,0.3838230000001204,0.8581953902474266,,experiment,cRDM,2.0,,,,1501.0803964999975,1006,22,female,True,15010,15014,False,False,trough,inspiration
531,0.23376899262716386,25,down,down,0.4167895999999017,0.9431919212826104,,experiment,cRDM,2.0,,,,1502.6970096999976,1006,22,female,True,15026,15030,False,False,expiration,expiration
