,stimLvl,stimTime,rand,response,rt,precedingITI,trialNumber,trialType,stimuli,block,estIntens,estThres,estSlope,trialStart,subject,age,gender,headRest,onset,responsI,manBadOnset,manBadRespons,onset_phase,respons_phase
0,150.0,100,F,,,1.5390180523157495,,introTrial,emotion,,,,,231.6223887000015,1007,28,female,True,2315,0,False,False,inspiration,0
1,0.9,100,down,,,0.6005973187276389,,introTrial,cRDM,,,,,236.1555800000024,1007,28,female,True,2360,0,False,False,expiration,0
2,0.9,25,up,up,0.565092699998786,0.9473617477966398,,tutorial,cRDM,,,,,276.7207463000013,1007,28,female,True,2766,2772,False,False,peak,expiration
3,0.9,25,up,up,0.6317745000014838,1.2823530099095275,,tutorial,cRDM,,,,,278.8539810000002,1007,28,female,True,2787,2793,False,False,inspiration,inspiration
4,0.9,25,up,up,0.4167898999985482,1.9662612216425917,,tutorial,cRDM,,,,,281.7371989000021,1007,28,female,True,2816,2820,False,False,inspiration,inspiration
5,0.9,25,up,down,0.7046480000026349,0.7963850670289253,,tutorial,cRDM,,,,,283.2371328000008,1007,28,female,True,2831,2838,False,False,expiration,expiration
6,0.9,25,down,down,1.0396918000005826,1.01567251383864,,tutorial,cRDM,,,,,285.2370741000013,1007,28,female,True,2851,2861,False,False,inspiration,expiration
7,0.9,25,down,up,0.8701241000017035,0.8895055222378652,,tutorial,cRDM,,,,,287.4536408000022,1007,28,female,True,2873,2882,False,False,inspiration,expiration
8,0.9,25,down,down,0.4972014999984822,1.0477845072168883,,tutorial,cRDM,,,,,289.6535801999998,1007,28,female,True,2895,2900,False,False,inspiration,inspiration
9,0.9,25,down,up,0.5082593000006455,1.8038055716909247,,tutorial,cRDM,,,,,292.25350430000253,1007,28,female,True,2921,2926,False,False,inspiration,inspiration
10,0.9,25,down,up,0.5250519000001077,1.1931139476958916,,tutorial,cRDM,,,,,294.2367537999998,1007,28,female,True,2941,2946,False,False,expiration,expiration
11,0.9,25,up,up,0.400237300000299,1.501106060619822,,tutorial,cRDM,,,,,296.5366632000005,1007,28,female,True,2964,2968,False,False,expiration,expiration
12,200.0,25,M,up,0.4607561999982863,0.8042111830824229,,tutorial,emotion,,,,,305.00301820000095,1007,28,female,True,3049,3054,False,False,expiration,expiration
13,200.0,25,M,up,0.4002056999997876,0.9914817505365796,,tutorial,emotion,,,,,306.73627700000003,1007,28,female,True,3066,3070,False,False,inspiration,peak
14,200.0,25,F,up,0.31698299999698065,0.9311912144808779,,tutorial,emotion,,,,,308.3693843000001,1007,28,female,True,3083,3086,False,False,expiration,inspiration
15,0.0,25,F,down,0.6623385999992024,1.4385448759327164,,tutorial,emotion,,,,,310.5194630000005,1007,28,female,True,3104,3111,False,False,expiration,expiration
16,0.0,25,M,down,0.490712099999655,0.9303770831336272,,tutorial,emotion,,,,,312.38607180000326,1007,28,female,True,3123,3128,False,False,inspiration,expiration
17,200.0,25,F,up,0.7881624000001466,0.5222332303124123,,tutorial,emotion,,,,,313.6696152000004,1007,28,female,True,3136,3144,False,False,expiration,inspiration
18,0.0,25,M,down,0.6298884999996517,1.9430751772293868,,tutorial,emotion,,,,,316.68590420000334,1007,28,female,True,3166,3172,False,False,expiration,inspiration
19,200.0,25,M,down,0.4435711999976775,1.3309776272238996,,tutorial,emotion,,,,,318.91918200000146,1007,28,female,True,3188,3192,False,False,expiration,expiration
20,0.0,25,F,down,0.5513404000012088,1.211289904192663,,tutorial,emotion,,,,,320.8524023999998,1007,28,female,True,3207,3213,False,False,peak,expiration
21,0.0,25,F,up,0.6440313999992213,0.39105261423622295,,tutorial,emotion,,,,,322.0857230000001,1007,28,female,True,3220,3226,False,False,expiration,inspiration
22,0.29,25,up,up,0.33379989999957616,1.3758564227550183,,psi_staircase_training,cRDM,,0.25,0.25693124029946324,0.10500000000000002,336.2851926000003,1007,28,female,True,3362,3365,False,False,trough,inspiration
23,0.25,25,up,up,0.33390270000018063,1.9473007031801841,,psi_staircase_training,cRDM,,0.21910266653183127,0.2260132002683493,0.10468632033873933,338.9350863,1007,28,female,True,3388,3391,False,False,expiration,expiration
24,0.21,25,down,up,0.3171256999994512,0.8593694797555222,,psi_staircase_training,cRDM,,0.1900540959403307,0.19684979615540016,0.10294672984249993,340.5017325000008,1007,28,female,True,3404,3407,False,False,inspiration,expiration
25,0.32,25,down,up,0.6558100000002014,1.6854733533117046,,psi_staircase_training,cRDM,,0.28193877959813873,0.2893209636160949,0.11183125795615867,342.88495330000296,1007,28,female,True,3428,3435,False,False,inspiration,expiration
26,0.41,25,up,down,0.33386160000009113,1.7235287306945128,,psi_staircase_training,cRDM,,0.3628077164667927,0.3703536552616306,0.1143119469569305,345.55149770000213,1007,28,female,True,3454,3457,False,False,inspiration,peak
27,0.46,25,down,up,0.3507461000008334,0.9628536484206748,,psi_staircase_training,cRDM,,0.4171631026166111,0.4243110970127317,0.1082835653022706,347.2181150000033,1007,28,female,True,3471,3475,False,False,inspiration,inspiration
28,0.47,25,up,up,0.7586570999992546,1.094393679412732,,psi_staircase_training,cRDM,,0.4484299732927461,0.4552322350366991,0.10304612915676367,349.01805299999984,1007,28,female,True,3489,3497,False,False,expiration,expiration
29,0.47,25,down,up,0.8458446000004187,1.3549932415582968,,psi_staircase_training,cRDM,,0.4416179936118162,0.4488251947312691,0.1091804763429076,351.41795150000326,1007,28,female,True,3513,3521,False,False,expiration,expiration
30,0.48,25,down,up,0.4702313999987382,0.4626674260163432,,psi_staircase_training,cRDM,,0.461433600090953,0.4678216024228026,0.09677059456388376,352.98456440000155,1007,28,female,True,3529,3534,False,False,inspiration,inspiration
31,0.52,25,up,up,0.4916620000003604,1.2713031163571946,,psi_staircase_training,cRDM,,0.4739458151298945,0.4794800552469681,0.0838371182049098,355.001162800003,1007,28,female,True,3549,3554,False,False,expiration,expiration
32,0.52,25,down,up,0.40024280000216095,1.3200900247895768,,psi_staircase_training,cRDM,,0.4744664864246018,0.47956162517681206,0.0771852577414611,357.08443450000055,1007,28,female,True,3570,3574,False,False,expiration,expiration
33,0.52,25,down,down,0.5250747999998566,1.8208461470982376,,psi_staircase_training,cRDM,,0.4691645263720789,0.4779579599539396,0.1332100008373495,359.61765999999983,1007,28,female,True,3595,3600,False,False,expiration,expiration
34,0.52,25,down,up,0.5761984999990091,1.1978596490715596,,psi_staircase_training,cRDM,,0.468630087226137,0.4771497346315757,0.12906246774337699,361.6175890000013,1007,28,female,True,3615,3621,False,False,inspiration,inspiration
35,0.63,25,up,up,0.5529771000001347,1.9869775339950984,,psi_staircase_training,cRDM,,0.4707902166034632,0.4808253254156661,0.1520198953948978,364.45079110000006,1007,28,female,True,3643,3649,False,False,trough,inspiration
36,0.53,25,up,up,0.5606357999968168,0.5077272727784786,,psi_staircase_training,cRDM,,0.4705047516705722,0.4804183340037516,0.1501789145969226,365.784125000002,1007,28,female,True,3657,3663,False,False,expiration,expiration
37,0.53,25,down,down,0.7557219999980589,0.7733737807380632,,psi_staircase_training,cRDM,,0.4696167953263162,0.4794232999640677,0.14855681558806266,367.3840314000008,1007,28,female,True,3673,3681,False,False,inspiration,expiration
38,0.53,25,down,up,0.4821644999974524,1.2835941254691834,,psi_staircase_training,cRDM,,0.4687301284283955,0.4784192721317062,0.14677893780805687,369.70061870000063,1007,28,female,True,3696,3701,False,False,inspiration,inspiration
39,0.65,25,up,down,0.914184400000522,0.3868743464272147,,psi_staircase_training,cRDM,,0.4727810295183339,0.4830653990770349,0.1557958975606766,370.8505673,1007,28,female,True,3707,3716,False,False,expiration,expiration
40,0.66,25,up,up,0.4168250000002445,1.843930619408956,,psi_staircase_training,cRDM,,0.4749657484474536,0.4863725272742479,0.17279905544555266,373.88382070000085,1007,28,female,True,3738,3742,False,False,expiration,expiration
41,0.66,25,up,up,0.6496765999982017,0.4443003978403991,,psi_staircase_training,cRDM,,0.4747233980273072,0.4860457609157742,0.17152025495077636,375.01707069999975,1007,28,female,True,3749,3755,False,False,inspiration,inspiration
42,0.66,25,up,up,0.6567500000019209,0.5828763383918487,,psi_staircase_training,cRDM,,0.4744888032664711,0.4857248861182155,0.17021321559498154,376.5170221000008,1007,28,female,True,3764,3771,False,False,expiration,inspiration
43,0.66,25,down,down,0.5860988999993424,0.6792119218461858,,psi_staircase_training,cRDM,,0.4742623773859477,0.4854104477838561,0.16887993219208208,378.1336389000026,1007,28,female,True,3780,3786,False,False,expiration,expiration
44,0.66,25,down,up,0.5752534999992349,1.6207118790234811,,psi_staircase_training,cRDM,,0.4740444965726214,0.4851029651878695,0.16752257235850918,380.63353380000257,1007,28,female,True,3805,3811,False,False,expiration,expiration
45,0.66,25,down,down,0.5936786999991455,1.7254114193088443,,psi_staircase_training,cRDM,,0.4762371689947189,0.4882507324348444,0.18199111655541,383.2001149000025,1007,28,female,True,3831,3837,False,False,expiration,expiration
46,0.66,25,up,up,0.6507178999963799,0.6498051841845811,,psi_staircase_training,cRDM,,0.4759605836378152,0.487909684685832,0.18101458841917892,384.70005600000155,1007,28,female,True,3846,3853,False,False,inspiration,inspiration
47,0.66,25,up,up,0.4847384999993665,0.6346224591993116,,psi_staircase_training,cRDM,,0.4756888024512826,0.4875711154981984,0.18000283008840068,386.2499878000017,1007,28,female,True,3861,3866,False,False,expiration,expiration
48,0.66,25,down,down,0.5854600999991817,1.1569431477551089,,psi_staircase_training,cRDM,,0.4754223708270892,0.4872355987183758,0.17895627261417285,388.18328810000094,1007,28,female,True,3881,3887,False,False,inspiration,expiration
49,0.66,25,down,down,0.8396012000011979,1.0936766958805295,,psi_staircase_training,cRDM,,0.4751618294609948,0.4869037149290149,0.1778755202351861,390.1331839000013,1007,28,female,True,3900,3908,False,False,inspiration,peak
50,0.66,25,up,up,0.4759303999999247,1.2074890469957291,,psi_staircase_training,cRDM,,0.4749077099451528,0.4865760473700042,0.1767613553528465,392.4498011000032,1007,28,female,True,3923,3928,False,False,inspiration,inspiration
51,0.66,25,up,down,0.4577490999981819,1.7056259026395466,,psi_staircase_training,cRDM,,0.4746605301949062,0.4862531775773717,0.17561474174443692,394.88302820000166,1007,28,female,True,3948,3953,False,False,inspiration,inspiration
52,100.0,25,M,down,0.7463838000003307,1.6507939691160585,,psi_staircase_training,emotion,,100.0,100.0,25.00050000000001,402.1493910000026,1007,28,female,True,4020,4027,False,False,expiration,inspiration
53,145.0,25,M,down,0.7268127999996068,0.8030072959875805,,psi_staircase_training,emotion,,145.25719053245996,145.25719053245996,25.000500000000283,404.0659661000027,1007,28,female,True,4040,4047,False,False,expiration,expiration
54,168.0,25,F,up,0.4438305000003311,1.2431085181505914,,psi_staircase_training,emotion,,168.03875363226317,168.03875363226317,24.34819504815532,406.41592099999986,1007,28,female,True,4063,4067,False,False,inspiration,expiration
55,155.0,25,F,down,0.7721798999991734,1.3918911583728115,,psi_staircase_training,emotion,,155.004436652377,155.004436652377,25.558429500416704,408.63252940000166,1007,28,female,True,4085,4093,False,False,inspiration,expiration
56,170.0,25,M,up,0.5196703000001435,1.4297027549505248,,psi_staircase_training,emotion,,165.44574296022685,165.44574296022685,24.967885397748628,411.1990957000016,1007,28,female,True,4111,4116,False,False,inspiration,inspiration
57,160.0,25,F,up,0.6707850000020699,1.9495469645895558,,psi_staircase_training,emotion,,159.52669485581492,159.52669485581492,22.495191219702527,414.0489841000017,1007,28,female,True,4139,4146,False,False,inspiration,expiration
58,147.0,25,M,up,0.5315425000007963,1.490456851288824,,psi_staircase_training,emotion,,153.1208070803471,153.1208070803471,23.19092239554965,416.5822208000027,1007,28,female,True,4165,4170,False,False,inspiration,expiration
59,131.0,25,F,up,0.3168833999989147,1.3823416333681378,,psi_staircase_training,emotion,,144.11172588590583,144.11172588590583,29.605855662144407,418.84878970000136,1007,28,female,True,4187,4190,False,False,inspiration,inspiration
60,118.0,25,F,up,0.7813807999991695,0.5477219429570387,,psi_staircase_training,emotion,,133.8520861314293,133.8520861314293,34.35131506104172,420.1653824000023,1007,28,female,True,4201,4209,False,False,expiration,expiration
61,108.0,25,M,down,0.9183894999987388,0.6091335207467514,,psi_staircase_training,emotion,,123.68937544939743,123.68937544939743,37.32430622361097,421.91533700000224,1007,28,female,True,4218,4227,False,False,inspiration,expiration
62,113.0,25,F,down,0.8791595000002417,1.4233227037003682,,psi_staircase_training,emotion,,128.71838529850842,128.71838529850842,36.320703000281625,424.5985991000016,1007,28,female,True,4245,4254,False,False,inspiration,expiration
63,117.0,25,F,down,1.2546047999967411,1.2270330016570548,,psi_staircase_training,emotion,,132.69658451350887,132.69658451350887,35.39782691370229,427.0651381000025,1007,28,female,True,4269,4282,False,False,inspiration,expiration
64,116.0,25,F,down,0.8501090999998269,1.8236988644816048,,psi_staircase_training,emotion,,136.04160300639012,136.04160300639012,34.577639978321315,430.48169290000084,1007,28,female,True,4304,4313,False,False,inspiration,expiration
65,161.0,25,M,up,0.8605451000003086,1.743732784228862,,psi_staircase_training,emotion,,138.60010578601015,138.60010578601015,33.7693054271839,433.44825140000097,1007,28,female,True,4333,4342,False,False,inspiration,expiration
66,113.0,25,M,down,0.5603236999995715,1.470549375924784,,psi_staircase_training,emotion,,136.37133374073255,136.37133374073255,32.791729958312764,436.1314597000018,1007,28,female,True,4360,4366,False,False,inspiration,peak
67,162.0,25,F,down,0.6836621000002197,0.9661549687097304,,psi_staircase_training,emotion,,138.23086388387156,138.23086388387156,31.874934448306046,437.9980810000016,1007,28,female,True,4379,4386,False,False,expiration,inspiration
68,169.0,25,F,down,0.4877599000028568,1.8033058434337716,,psi_staircase_training,emotion,,143.99069059757682,143.99069059757682,35.291989541034454,440.84797260000056,1007,28,female,True,4407,4412,False,False,expiration,inspiration
69,174.0,25,M,down,0.3668198999985179,1.782260261878447,,psi_staircase_training,emotion,,149.60780435851126,149.60780435851126,37.884793332700255,443.4812224000016,1007,28,female,True,4434,4438,False,False,expiration,expiration
70,178.0,25,M,down,0.4655684999997902,1.7179905594497742,,psi_staircase_training,emotion,,154.95955836328346,154.95955836328346,39.76996580872017,445.9811345000016,1007,28,female,True,4459,4464,False,False,expiration,expiration
71,180.0,25,M,down,0.7093448999985412,0.6905976684805369,,psi_staircase_training,emotion,,159.9841230667555,159.9841230667555,41.15371120646028,447.5144157000032,1007,28,female,True,4474,4481,False,False,inspiration,expiration
72,182.0,25,M,down,0.4250625999993645,0.8254599547500043,,psi_staircase_training,emotion,,164.55192619536012,164.55192619536012,42.13202723937452,449.39766500000036,1007,28,female,True,4493,4497,False,False,expiration,trough
73,184.0,25,F,up,0.41675259999829,0.9594616214093812,,psi_staircase_training,emotion,,168.69935593183925,168.69935593183925,42.8614388762658,451.14757170000297,1007,28,female,True,4510,4514,False,False,expiration,expiration
74,183.0,25,F,up,0.6826067000001785,1.788178321782543,,psi_staircase_training,emotion,,166.5463837242869,166.5463837242869,42.53829355448345,453.71416000000323,1007,28,female,True,4536,4543,False,False,inspiration,expiration
75,183.0,25,F,down,1.152339899999788,1.921861689061092,,psi_staircase_training,emotion,,164.52591455285102,164.52591455285102,42.21385711119093,456.6473796999999,1007,28,female,True,4565,4577,False,False,peak,expiration
76,184.0,25,M,up,0.6701013999991119,1.0312888605494297,,psi_staircase_training,emotion,,168.1741163026186,168.1741163026186,42.859247299753925,459.1806303000012,1007,28,female,True,4591,4598,False,False,inspiration,expiration
77,184.0,25,M,up,0.8095240000002377,1.2581514963710316,,psi_staircase_training,emotion,,166.30058452313483,166.30058452313483,42.57697183818895,461.4472146000008,1007,28,female,True,4613,4621,False,False,inspiration,inspiration
78,183.0,25,F,up,0.668990299996949,1.7950814929604446,,psi_staircase_training,emotion,,164.5724320669129,164.5724320669129,42.29220682924788,464.41376440000016,1007,28,female,True,4643,4650,False,False,expiration,inspiration
79,182.0,25,F,up,1.0323473999997077,1.3986886084531158,,psi_staircase_training,emotion,,162.94790371672977,162.94790371672977,42.01208987735552,466.83034540000153,1007,28,female,True,4667,4677,False,False,expiration,expiration
80,143.0,25,M,up,0.8568607000015618,1.828550493216232,,psi_staircase_training,emotion,,161.4210066836649,161.4210066836649,41.7384193451171,470.04687340000237,1007,28,female,True,4699,4708,False,False,expiration,expiration
81,141.0,25,M,up,0.6842533000017283,0.965737880455642,,psi_staircase_training,emotion,,158.48599094758,158.48599094758,42.24224679279437,472.2134970000006,1007,28,female,True,4721,4728,False,False,inspiration,expiration
82,0.29,25,up,up,0.6354490999983682,0.43913847698385466,,psi_staircase,cRDM,,0.25,0.25693124029946324,0.10500000000000002,488.19625780000206,1007,28,female,True,4881,4887,False,False,expiration,expiration
83,0.25,25,up,up,0.4393229000015708,0.634146209263635,,psi_staircase,cRDM,,0.21910266653183127,0.2260132002683493,0.10468632033873933,489.7294992000025,1007,28,female,True,4896,4900,False,False,inspiration,inspiration
84,0.21,25,down,down,0.5056547000021965,0.9995405423214864,,psi_staircase,cRDM,,0.1900540959403307,0.19684979615540016,0.10294672984249993,491.44610070000266,1007,28,female,True,4913,4918,False,False,expiration,expiration
85,0.18,25,down,down,0.5304620000024443,1.9132477769058664,,psi_staircase,cRDM,,0.1635257589279754,0.1701521334256793,0.100381647756865,494.1293173000013,1007,28,female,True,4940,4945,False,False,expiration,expiration
86,0.15,25,up,up,0.4644634999967821,0.906577319581754,,psi_staircase,cRDM,,0.14018955742449365,0.14660133511875031,0.0971307628663642,495.829295800002,1007,28,female,True,4957,4962,False,False,inspiration,inspiration
87,0.13,25,down,down,0.5378596000009566,1.190454500665619,,psi_staircase,cRDM,,0.11987606021454796,0.12605547676183335,0.09361076941961036,497.7458611000001,1007,28,female,True,4977,4982,False,False,trough,inspiration
88,0.11,25,up,up,0.4003415000006498,0.8179596834196108,,psi_staircase,cRDM,,0.10257735236965487,0.10849103445698656,0.08958521019937955,499.36241839999997,1007,28,female,True,4993,4997,False,False,expiration,expiration
89,0.09,25,down,down,0.4003225000014936,0.931508143786122,,psi_staircase,cRDM,,0.08784432595859408,0.09348182153209693,0.08540131486476357,500.9623877000013,1007,28,female,True,5009,5013,False,False,inspiration,inspiration
90,0.08,25,down,up,0.4002403000013146,0.8808709831477075,,psi_staircase,cRDM,,0.07518520921180863,0.0805556301471181,0.08135545354720439,502.5290249999998,1007,28,female,True,5024,5028,False,False,expiration,expiration
91,0.13,25,up,up,0.7354618999997911,1.6114771261103151,,psi_staircase,cRDM,,0.1145374077699418,0.12103712105675656,0.09846288191283688,504.81226890000113,1007,28,female,True,5047,5054,False,False,expiration,expiration
92,0.13,25,down,up,0.8256039999978384,1.9968807006863856,,psi_staircase,cRDM,,0.1023941484636294,0.10857748278643099,0.09367011903258447,507.8121639000019,1007,28,female,True,5077,5085,False,False,expiration,expiration
93,0.19,25,down,up,0.5032836000027601,0.8876171793355669,,psi_staircase,cRDM,,0.14706319967505838,0.15506174292069666,0.12116836302112505,509.79542950000183,1007,28,female,True,5097,5102,False,False,inspiration,expiration
94,0.28,25,down,up,0.4169120000005933,0.9771728378487836,,psi_staircase,cRDM,,0.2085855782192348,0.21749882535008114,0.13502503279410796,511.52869420000206,1007,28,female,True,5114,5118,False,False,expiration,inspiration
95,0.36,25,up,up,0.7454447999989497,1.4825166717873222,,psi_staircase,cRDM,,0.2883224764526273,0.29751497385713954,0.13925534042565654,513.6952810000003,1007,28,female,True,5136,5143,False,False,expiration,expiration
96,0.33,25,up,up,0.4881772999979148,1.1292700640286526,,psi_staircase,cRDM,,0.2692970679506188,0.278651377724678,0.14170660427864204,515.8285343000025,1007,28,female,True,5157,5162,False,False,peak,expiration
97,0.32,25,down,up,0.5606161999967298,1.627565353628348,,psi_staircase,cRDM,,0.25096063730430457,0.2604375828178602,0.14356438904598373,518.1951077000012,1007,28,female,True,5181,5187,False,False,inspiration,expiration
98,0.38,25,down,up,0.4543572999973549,1.2725777994751393,,psi_staircase,cRDM,,0.3189759737262725,0.3282454564940317,0.1404215765957619,520.2784240000002,1007,28,female,True,5202,5207,False,False,inspiration,inspiration
99,0.43,25,up,up,0.5087244000023929,0.7452386640665711,,psi_staircase,cRDM,,0.3775568771875373,0.3864159881061011,0.13420493393097824,521.7449677000004,1007,28,female,True,5216,5221,False,False,expiration,expiration
100,0.42,25,up,up,0.5662171000003582,0.9894816595258438,,psi_staircase,cRDM,,0.36559074721389617,0.3746638558153523,0.13744674286168804,523.5115909000016,1007,28,female,True,5234,5240,False,False,inspiration,expiration
101,0.38,25,up,up,0.451578399999562,0.7455866853720686,,psi_staircase,cRDM,,0.3538992994199748,0.3631243449862507,0.13974840614514314,525.0781837000031,1007,28,female,True,5250,5255,False,False,expiration,inspiration
102,0.37,25,up,up,0.4836003000018536,0.4906938096695175,,psi_staircase,cRDM,,0.33965130288299045,0.349283544968164,0.1459169463539648,526.2781630000027,1007,28,female,True,5262,5267,False,False,inspiration,expiration
103,0.37,25,down,down,0.50200649999897,1.6103899361192917,,psi_staircase,cRDM,,0.3254525684502605,0.3354174587015198,0.15095616818583646,528.6446997000021,1007,28,female,True,5285,5290,False,False,inspiration,expiration
104,0.36,25,down,down,0.4637065999995684,1.375584064617547,,psi_staircase,cRDM,,0.31209112845230363,0.3222723268589676,0.154232978011525,530.7780133000015,1007,28,female,True,5307,5312,False,False,inspiration,inspiration
105,0.36,25,down,down,0.432564700000512,1.7154275159058887,,psi_staircase,cRDM,,0.2992615446949748,0.3095969130579978,0.15656846844589306,533.2112121000026,1007,28,female,True,5331,5335,False,False,inspiration,inspiration
106,0.36,25,up,up,0.8088784999999916,0.4669444634501057,,psi_staircase,cRDM,,0.28755368829375594,0.2979632922036705,0.15769304818730126,534.3778665000027,1007,28,female,True,5343,5351,False,False,expiration,expiration
107,0.31,25,up,up,0.6306069000020216,0.8062582082622514,,psi_staircase,cRDM,,0.2770074679756379,0.2874304100962093,0.1578951061247651,536.2611193000013,1007,28,female,True,5362,5368,False,False,inspiration,expiration
108,0.31,25,down,down,0.672328299999208,0.6290584465394164,,psi_staircase,cRDM,,0.2645474828175357,0.2751786399568335,0.16104931461007185,537.7944125000031,1007,28,female,True,5377,5384,False,False,expiration,inspiration
109,0.3,25,down,up,0.4484123999973235,1.8718992308359117,,psi_staircase,cRDM,,0.2529352447722087,0.26370661330465645,0.16317334950782084,540.5942776000012,1007,28,female,True,5405,5409,False,False,expiration,expiration
110,0.36,25,up,down,0.5635893000035139,0.4510359906324977,,psi_staircase,cRDM,,0.2919310238646173,0.3023113747527782,0.15724989989761173,541.7611660000001,1007,28,female,True,5417,5423,False,False,inspiration,expiration
111,0.39,25,up,up,0.675933200000145,1.3136298249365628,,psi_staircase,cRDM,,0.3287252608242056,0.3393043351807699,0.1602603227484806,543.9108145999999,1007,28,female,True,5438,5445,False,False,expiration,inspiration
112,0.38,25,down,down,0.442678799998248,1.7911769167383351,,psi_staircase,cRDM,,0.3201343441221481,0.33073613303229904,0.16060442106617484,546.6440382000002,1007,28,female,True,5465,5469,False,False,expiration,expiration
113,0.35000000000000003,25,up,up,0.5448655000000144,1.905305319526156,,psi_staircase,cRDM,,0.3117717812910385,0.3223888545885421,0.16083596125273597,549.2608748000022,1007,28,female,True,5492,5497,False,False,expiration,expiration
114,0.34,25,down,down,0.6648292999998375,0.3744324136744889,,psi_staircase,cRDM,,0.30266742072914365,0.31338881070772,0.16241623419659607,550.4439114000015,1007,28,female,True,5503,5510,False,False,expiration,inspiration
115,0.35000000000000003,25,up,up,0.4255537000026379,1.843632523199068,,psi_staircase,cRDM,,0.2937613689190891,0.3045777754612662,0.16385562148473473,553.2271637000013,1007,28,female,True,5531,5535,False,False,expiration,inspiration
116,0.34,25,down,down,0.4356478000008792,1.019608711447625,,psi_staircase,cRDM,,0.28578094573528623,0.2966263383802743,0.16429472627170805,554.9270716000028,1007,28,female,True,5548,5552,False,False,expiration,expiration
117,0.3,25,up,up,0.41680600000108825,0.7999520820150368,,psi_staircase,cRDM,,0.2779748897800228,0.2888529007351742,0.1647888546555431,556.4270042000026,1007,28,female,True,5563,5567,False,False,inspiration,inspiration
118,0.3,25,down,down,0.3672071000000869,1.280765192134162,,psi_staircase,cRDM,,0.2692838725120579,0.28029909188422464,0.1668673980567479,558.3936576000016,1007,28,female,True,5583,5587,False,False,expiration,expiration
119,0.3,25,up,up,0.35061449999921024,0.6567527000818417,,psi_staircase,cRDM,,0.2609865357180617,0.2721074026106305,0.1684678316246145,559.743573300002,1007,28,female,True,5596,5600,False,False,inspiration,inspiration
120,0.29,25,up,down,0.3837964999984251,0.5859490220670195,,psi_staircase,cRDM,,0.2530951050638861,0.2642969520403497,0.1696945830344041,561.010205300001,1007,28,female,True,5609,5613,False,False,expiration,expiration
121,0.35000000000000003,25,down,down,0.5385776000002807,0.6100200097536168,,psi_staircase,cRDM,,0.27911565752238954,0.2900519970704886,0.16567246307119474,562.3101775000032,1007,28,female,True,5622,5627,False,False,inspiration,inspiration
122,0.29,25,down,down,0.4946772000002966,1.5047084226037197,,psi_staircase,cRDM,,0.27305361266018296,0.2839652241877491,0.16529786313759273,564.6100581999998,1007,28,female,True,5645,5650,False,False,trough,inspiration
123,0.29,25,down,down,0.4936884000017017,0.8391290989406885,,psi_staircase,cRDM,,0.2655556739569657,0.27659206401122954,0.1671881085680203,566.2100084000012,1007,28,female,True,5661,5666,False,False,expiration,expiration
124,0.29,25,up,up,0.6331862999977602,1.9600178774568453,,psi_staircase,cRDM,,0.2583482652533784,0.26948503225151593,0.1687086992056813,568.9265691,1007,28,female,True,5688,5694,False,False,expiration,expiration
125,0.28,25,up,up,0.7642116999995778,1.9382177969100096,,psi_staircase,cRDM,,0.25143697974543644,0.2626549988547487,0.16993957150338565,571.7764824000005,1007,28,female,True,5717,5725,False,False,expiration,expiration
126,0.27,25,down,up,0.9189454000006664,0.40193830459790897,,psi_staircase,cRDM,,0.24458174470421376,0.25588265289838114,0.1711952419943457,573.2097470000008,1007,28,female,True,5731,5740,False,False,inspiration,expiration
127,0.31,25,down,down,0.477044900002511,1.233864749283449,,psi_staircase,cRDM,,0.2659589660323852,0.2769953247899593,0.16718763446060508,575.6096773999998,1007,28,female,True,5755,5760,False,False,expiration,inspiration
128,0.28,25,down,down,0.5331259000013233,1.0630584343689418,,psi_staircase,cRDM,,0.2600756915474076,0.2711459447404013,0.1677010946156851,577.4095788000012,1007,28,female,True,5773,5778,False,False,expiration,expiration
129,0.27,25,up,up,0.7305452000000514,1.4276341791879512,,psi_staircase,cRDM,,0.2537618240250273,0.2649193220602527,0.16902274962092853,579.6261659000012,1007,28,female,True,5795,5802,False,False,inspiration,expiration
130,0.27,25,up,up,0.6919906000002811,1.225490736618507,,psi_staircase,cRDM,,0.2474656491007214,0.2587140585541621,0.1703999488666892,581.8427546000021,1007,28,female,True,5818,5825,False,False,expiration,expiration
131,0.26,25,up,up,0.7110639000020456,1.763715624151858,,psi_staircase,cRDM,,0.2413639697774513,0.25269169519025103,0.17160149078023845,584.5426696000031,1007,28,female,True,5845,5852,False,False,expiration,expiration
132,100.0,25,M,down,0.7393293999994057,0.3250513207879913,,psi_staircase,emotion,,100.0,100.0,25.00050000000001,591.9423544000019,1007,28,female,True,5918,5925,False,False,inspiration,expiration
133,145.0,25,M,up,0.5074595000005502,1.2105930382659302,,psi_staircase,emotion,,145.25719053245996,145.25719053245996,25.000500000000283,594.2422861000014,1007,28,female,True,5941,5946,False,False,inspiration,inspiration
134,121.0,25,F,down,0.8434610000003886,0.30115446205231594,,psi_staircase,emotion,,120.36392901436103,120.36392901436103,25.71326925488699,595.3922869000016,1007,28,female,True,5953,5961,False,False,expiration,expiration
135,137.0,25,F,down,1.0652579999987208,0.5579366066393586,,psi_staircase,emotion,,137.8359832966118,137.8359832966118,25.292325986285494,597.125519600002,1007,28,female,True,5970,5981,False,False,inspiration,expiration
136,154.0,25,M,down,0.8253124999973807,0.8582705661394086,,psi_staircase,emotion,,150.04293000169994,150.04293000169994,27.054990449744093,599.4254241000018,1007,28,female,True,5993,6001,False,False,trough,inspiration
137,169.0,25,F,down,0.6816635999966819,0.4846977605400912,,psi_staircase,emotion,,162.48778761572078,162.48778761572078,31.633749893690556,601.0920663000034,1007,28,female,True,6010,6017,False,False,expiration,expiration
138,176.0,25,M,up,0.4508334000020113,0.8107994523673867,,psi_staircase,emotion,,172.4668533112933,172.4668533112933,33.5517456397867,602.9419451000032,1007,28,female,True,6028,6033,False,False,inspiration,expiration
139,168.0,25,F,up,0.4395014000001538,1.2278762099695328,,psi_staircase,emotion,,166.60392579132397,166.60392579132397,33.438391391496246,604.9752298000021,1007,28,female,True,6049,6053,False,False,inspiration,inspiration
140,177.0,25,F,up,0.8256030999982613,0.9126664940611624,,psi_staircase,emotion,,160.82118258843684,160.82118258843684,33.01134822266731,606.6751564000006,1007,28,female,True,6066,6074,False,False,expiration,expiration
141,141.0,25,M,up,0.6184045000009064,0.8860620309214546,,psi_staircase,emotion,,157.19669514758908,157.19669514758908,31.810874785158187,608.7583203000031,1007,28,female,True,6087,6093,False,False,inspiration,expiration
142,130.0,25,F,up,0.5337231999983487,0.9863111417470678,,psi_staircase,emotion,,149.81145684901782,149.81145684901782,34.322776846423764,610.7250179000002,1007,28,female,True,6106,6111,False,False,expiration,inspiration
143,122.0,25,F,up,0.5127541000001656,1.7486272833888843,,psi_staircase,emotion,,142.35820677865155,142.35820677865155,36.734180886615455,613.3749297000031,1007,28,female,True,6133,6138,False,False,expiration,expiration
144,116.0,25,F,up,0.6715506000000461,0.6607550639013858,,psi_staircase,emotion,,135.1694190776388,135.1694190776388,38.65830219990876,614.9081956000008,1007,28,female,True,6148,6155,False,False,inspiration,expiration
145,111.0,25,M,up,0.49457460000121506,1.162946542678671,,psi_staircase,emotion,,128.41634548807926,128.41634548807926,40.116744963113256,617.1081117000032,1007,28,female,True,6170,6175,False,False,inspiration,inspiration
146,106.0,25,M,down,0.5399557999990066,0.5651583467514729,,psi_staircase,emotion,,122.09596729213564,122.09596729213564,41.23584890786605,618.5247176000012,1007,28,female,True,6184,6189,False,False,expiration,expiration
147,108.0,25,F,down,0.41679889999795705,0.814407973362014,,psi_staircase,emotion,,125.37680008497294,125.37680008497294,40.74279369879086,620.2246623000027,1007,28,female,True,6201,6205,False,False,inspiration,inspiration
148,111.0,25,F,down,0.4851639999978943,0.6504396174185512,,psi_staircase,emotion,,128.20038344424975,128.20038344424975,40.27635140280325,621.6245957000027,1007,28,female,True,6215,6220,False,False,expiration,expiration
149,113.0,25,M,down,0.4551847000002454,1.3703762638229935,,psi_staircase,emotion,,130.7534999437167,130.7534999437167,39.84660587045582,623.824539600002,1007,28,female,True,6237,6242,False,False,expiration,expiration
150,153.0,25,M,down,0.5586044999981823,0.756688282159279,,psi_staircase,emotion,,133.05444876133345,133.05444876133345,39.44816041291005,625.3911407000014,1007,28,female,True,6253,6259,False,False,inspiration,inspiration
151,157.0,25,M,down,0.3668408999983512,1.0521124855150945,,psi_staircase,emotion,,137.5519458814583,137.5519458814583,40.46511535318154,627.3743922000032,1007,28,female,True,6273,6277,False,False,expiration,expiration
152,161.0,25,M,down,0.4517462000003434,1.239279138145789,,psi_staircase,emotion,,141.80777937103295,141.80777937103295,41.32177122890079,629.391001,1007,28,female,True,6293,6298,False,False,peak,expiration
153,164.0,25,F,down,0.4984609999992245,1.0969698232426457,,psi_staircase,emotion,,145.8898354029501,145.8898354029501,42.082013427240256,631.3242492999998,1007,28,female,True,6312,6317,False,False,inspiration,inspiration
154,167.0,25,F,down,0.4468563999980688,1.0610774540143266,,psi_staircase,emotion,,149.77439393564708,149.77439393564708,42.733215890187005,633.2408325000033,1007,28,female,True,6331,6335,False,False,expiration,expiration
155,169.0,25,F,down,0.4836362000023655,1.1327536596878507,,psi_staircase,emotion,,153.49290453381604,153.49290453381604,43.301926591172545,635.1741177000004,1007,28,female,True,6351,6356,False,False,expiration,expiration
156,172.0,25,M,down,1.0386647999985144,0.5044250726191271,,psi_staircase,emotion,,157.01103713581912,157.01103713581912,43.78015759703673,636.5240540000012,1007,28,female,True,6364,6374,False,False,expiration,inspiration
157,174.0,25,M,down,0.4168662999982189,0.9386672797990564,,psi_staircase,emotion,,160.40531397945432,160.40531397945432,44.210965200453636,638.8572292999997,1007,28,female,True,6388,6392,False,False,expiration,expiration
158,176.0,25,F,down,0.4475643000005221,1.0255833853747145,,psi_staircase,emotion,,163.6318355273741,163.6318355273741,44.581493764563426,640.6571361000024,1007,28,female,True,6406,6410,False,False,inspiration,expiration
159,178.0,25,F,down,1.0035103000009258,0.8883934953518837,,psi_staircase,emotion,,166.70003024583104,166.70003024583104,44.90357564093052,642.3571902000002,1007,28,female,True,6423,6433,False,False,expiration,inspiration
160,180.0,25,M,up,0.9289575000002516,1.3414792073404411,,psi_staircase,emotion,,169.61375542026363,169.61375542026363,45.185483041287135,645.0737626000008,1007,28,female,True,6450,6459,False,False,expiration,inspiration
161,179.0,25,M,up,0.4350161000002117,1.405168862426106,,psi_staircase,emotion,,167.68372353004503,167.68372353004503,45.012182167335304,647.7736871000016,1007,28,female,True,6477,6481,False,False,expiration,expiration
162,178.0,25,F,up,0.7958085999998729,0.6088304045373676,,psi_staircase,emotion,,165.85144779471526,165.85144779471526,44.83844521519478,649.156924400002,1007,28,female,True,6491,6499,False,False,inspiration,expiration
163,177.0,25,M,up,0.6605081999987306,0.8791861628702953,,psi_staircase,emotion,,164.11768240935646,164.11768240935646,44.66601972071018,651.1902285000033,1007,28,female,True,6511,6518,False,False,expiration,inspiration
164,175.0,25,F,up,0.7025806999990891,1.575320139641622,,psi_staircase,emotion,,162.47843369655368,162.47843369655368,44.496212113210404,653.7900933000019,1007,28,female,True,6537,6544,False,False,expiration,expiration
165,174.0,25,M,up,0.6953938999977254,1.0816913308053882,,psi_staircase,emotion,,160.897357586334,160.897357586334,44.33431172543442,655.9233251000005,1007,28,female,True,6558,6565,False,False,inspiration,expiration
166,172.0,25,F,up,0.7591226000004099,0.4339834456624127,,psi_staircase,emotion,,159.3986037458763,159.3986037458763,44.177119250949296,657.4066103000006,1007,28,female,True,6573,6581,False,False,expiration,inspiration
167,169.0,25,M,up,0.6071506000007503,0.7894560178673415,,psi_staircase,emotion,,157.94584437775504,157.94584437775504,44.03062167602937,659.3065442000006,1007,28,female,True,6592,6598,False,False,expiration,expiration
168,165.0,25,F,up,1.0719587999992657,1.4469757173597246,,psi_staircase,emotion,,156.50577446774525,156.50577446774525,43.90295561042942,661.7397620000012,1007,28,female,True,6617,6628,False,False,expiration,expiration
169,147.0,25,M,up,0.9414488000002166,1.6611813547689502,,psi_staircase,emotion,,155.04670655871303,155.04670655871303,43.805654838839686,664.8063192000009,1007,28,female,True,6647,6656,False,False,expiration,expiration
170,140.0,25,M,,,0.9922637763874148,,psi_staircase,emotion,,153.15255916766608,153.15255916766608,43.92475253850334,667.1062620000013,1007,28,female,True,6670,0,False,False,inspiration,0
171,140.0,25,F,up,1.0462127999999211,0.9922637763874148,,psi_staircase,emotion,,153.15255916766608,153.15255916766608,43.92475253850334,670.7894620000006,1007,28,female,True,6707,6717,False,False,expiration,expiration
172,136.0,25,F,up,1.4390512999998464,1.7306933792812216,,psi_staircase,emotion,,151.15267931928975,151.15267931928975,44.14034319158257,673.9226656999998,1007,28,female,True,6738,6752,False,False,expiration,inspiration
173,134.0,25,F,up,0.7648005000010016,1.6384820791927632,,psi_staircase,emotion,,149.1383524062566,149.1383524062566,44.39134409407425,677.355876200003,1007,28,female,True,6773,6781,False,False,expiration,trough
174,132.0,25,F,up,0.7585594999982277,0.5988421696832014,,psi_staircase,emotion,,147.1670425997724,147.1670425997724,44.637129807463396,679.0891683000009,1007,28,female,True,6790,6798,False,False,inspiration,expiration
175,131.0,25,M,up,0.6050050999983796,0.36397842729020397,,psi_staircase,emotion,,145.23358037682675,145.23358037682675,44.87717218883997,680.5557131000022,1007,28,female,True,6805,6811,False,False,expiration,inspiration
176,129.0,25,M,up,0.4603429999988293,0.9670111977092704,,psi_staircase,emotion,,143.36275639441132,143.36275639441132,45.09701370840618,682.472360300002,1007,28,female,True,6824,6829,False,False,expiration,expiration
177,127.0,25,F,up,0.4877865999987989,0.8299219085304896,,psi_staircase,emotion,,141.52070023355634,141.52070023355634,45.312427612295714,684.1389490000001,1007,28,female,True,6840,6845,False,False,inspiration,expiration
178,126.0,25,F,up,0.9348682999989252,0.3603119131818772,,psi_staircase,emotion,,139.70441883309252,139.70441883309252,45.522625973356476,685.3558385000033,1007,28,female,True,6853,6862,False,False,expiration,expiration
179,125.0,25,F,up,0.8854113000015786,0.7067827913516185,,psi_staircase,emotion,,137.938944302889,137.938944302889,45.715803422387644,687.3554660000009,1007,28,female,True,6873,6882,False,False,inspiration,expiration
180,123.0,25,M,up,0.4402939999999944,1.662289174195039,,psi_staircase,emotion,,136.22039814804418,136.22039814804418,45.89423327801895,690.2554014000017,1007,28,female,True,6902,6906,False,False,expiration,expiration
181,122.0,25,M,down,0.5690424999993411,0.9952621273789926,,psi_staircase,emotion,,134.51877156117013,134.51877156117013,46.069232683183905,692.0386548000024,1007,28,female,True,6920,6926,False,False,inspiration,inspiration
182,123.0,25,M,down,0.5734823999991931,1.7427622982323925,,psi_staircase,emotion,,135.6055456309015,135.6055456309015,45.963203805355136,694.7052388000011,1007,28,female,True,6946,6952,False,False,inspiration,inspiration
183,0.235260653229576,25,down,up,0.7290313000012247,1.2381586920151404,,experiment,cRDM,0.0,,,,701.3716760000025,1007,28,female,True,7013,7020,False,False,expiration,expiration
184,0.235260653229576,25,down,up,0.5075254000003042,1.3232326837885189,,experiment,cRDM,0.0,,,,703.6882423000025,1007,28,female,True,7036,7041,False,False,inspiration,expiration
185,0.235260653229576,25,down,up,0.4588562999997521,0.8563653005566265,,experiment,cRDM,0.0,,,,705.304854500002,1007,28,female,True,7052,7057,False,False,expiration,inspiration
186,0.235260653229576,25,up,down,0.5049530000032973,1.87139227958919,,experiment,cRDM,0.0,,,,707.9047464000032,1007,28,female,True,7078,7083,False,False,expiration,expiration
187,0.235260653229576,25,up,up,0.6010408000001917,1.787105984663355,,experiment,cRDM,0.0,,,,710.4546641000015,1007,28,female,True,7104,7110,False,False,expiration,expiration
188,0.235260653229576,25,up,up,0.6584847999984049,1.9061079648925052,,experiment,cRDM,0.0,,,,713.2212204000025,1007,28,female,True,7131,7138,False,False,expiration,expiration
189,0.235260653229576,25,up,up,0.6645376999986183,1.023296027159133,,experiment,cRDM,0.0,,,,715.171166600001,1007,28,female,True,7151,7158,False,False,expiration,trough
190,0.235260653229576,25,up,up,0.5349296999993385,0.7355143648202437,,experiment,cRDM,0.0,,,,716.8377540000001,1007,28,female,True,7167,7172,False,False,inspiration,expiration
191,0.235260653229576,25,down,up,0.7463492999995651,0.3636062253642021,,experiment,cRDM,0.0,,,,718.0043697000001,1007,28,female,True,7179,7186,False,False,expiration,expiration
192,0.235260653229576,25,down,up,0.6920543000014732,0.8330953059441681,,experiment,cRDM,0.0,,,,719.8376349000027,1007,28,female,True,7197,7204,False,False,inspiration,expiration
193,0.235260653229576,25,up,up,0.6260932999975921,0.5521823986458692,,experiment,cRDM,0.0,,,,721.3375840000008,1007,28,female,True,7212,7218,False,False,expiration,expiration
194,0.235260653229576,25,down,up,0.6052359000022989,1.6019955377776038,,experiment,cRDM,0.0,,,,723.8374840000032,1007,28,female,True,7237,7243,False,False,expiration,expiration
195,0.235260653229576,25,down,down,0.7013222999994468,1.9301031958598602,,experiment,cRDM,0.0,,,,726.637381200002,1007,28,female,True,7265,7272,False,False,expiration,expiration
196,0.235260653229576,25,up,up,0.5654461999984051,1.6785267425537067,,experiment,cRDM,0.0,,,,729.2872877000009,1007,28,female,True,7292,7298,False,False,expiration,expiration
197,0.235260653229576,25,down,up,0.5441429999991669,0.7947805370352515,,experiment,cRDM,0.0,,,,730.9205400000028,1007,28,female,True,7308,7313,False,False,expiration,inspiration
198,0.235260653229576,25,down,up,0.4995491999980004,1.2646941501996485,,experiment,cRDM,0.0,,,,732.9871424000012,1007,28,female,True,7329,7334,False,False,expiration,expiration
199,0.235260653229576,25,up,up,0.4326207000012801,1.1404446635708725,,experiment,cRDM,0.0,,,,734.8870833000002,1007,28,female,True,7348,7352,False,False,peak,expiration
200,0.235260653229576,25,up,up,0.3338624999996682,1.7387002701277836,,experiment,cRDM,0.0,,,,737.3203291000027,1007,28,female,True,7372,7375,False,False,inspiration,inspiration
201,0.235260653229576,25,down,up,0.3838849999992817,1.5526685771855682,,experiment,cRDM,0.0,,,,739.5534899000012,1007,28,female,True,7395,7399,False,False,inspiration,inspiration
202,0.235260653229576,25,up,up,0.4608240999987174,1.9552793196211868,,experiment,cRDM,0.0,,,,742.186832000003,1007,28,female,True,7421,7426,False,False,trough,inspiration
203,0.235260653229576,25,down,up,0.4002992999994604,1.9619369835690696,,experiment,cRDM,0.0,,,,744.8700407000032,1007,28,female,True,7448,7452,False,False,expiration,inspiration
204,0.235260653229576,25,down,up,0.5761305000014545,0.985717063072878,,experiment,cRDM,0.0,,,,746.5366350000003,1007,28,female,True,7464,7470,False,False,expiration,expiration
205,0.235260653229576,25,up,up,0.4861521999991965,1.7598399795889834,,experiment,cRDM,0.0,,,,749.1365291000003,1007,28,female,True,7490,7495,False,False,inspiration,expiration
206,0.235260653229576,25,down,up,0.5932348999995156,1.0445066186760898,,experiment,cRDM,0.0,,,,750.9364792000015,1007,28,female,True,7508,7514,False,False,expiration,inspiration
207,0.235260653229576,25,up,up,0.5602398999981233,0.8399485256548211,,experiment,cRDM,0.0,,,,752.6364167000029,1007,28,female,True,7525,7531,False,False,expiration,expiration
208,0.235260653229576,25,up,up,0.5106722999989871,0.9499851110110163,,experiment,cRDM,0.0,,,,754.4030187000026,1007,28,female,True,7543,7548,False,False,inspiration,inspiration
209,0.235260653229576,25,down,up,0.42110590000083903,1.6405643590354386,,experiment,cRDM,0.0,,,,756.8195962000027,1007,28,female,True,7567,7571,False,False,expiration,inspiration
210,0.235260653229576,25,up,up,0.6081481999972311,0.6065211445954987,,experiment,cRDM,0.0,,,,758.1195431000016,1007,28,female,True,7580,7586,False,False,inspiration,expiration
211,0.235260653229576,25,down,up,0.6376035000030242,1.2786871746116015,,experiment,cRDM,0.0,,,,760.2530745000003,1007,28,female,True,7602,7608,False,False,trough,inspiration
212,0.235260653229576,25,up,up,0.6789141000008385,0.5974835960457119,,experiment,cRDM,0.0,,,,761.7527743000028,1007,28,female,True,7617,7624,False,False,expiration,expiration
213,0.235260653229576,25,up,up,0.4423745999993116,1.7422297894592529,,experiment,cRDM,0.0,,,,764.4193230000018,1007,28,female,True,7643,7647,False,False,inspiration,expiration
214,0.235260653229576,25,down,up,0.4857986999995774,1.2562071679242797,,experiment,cRDM,0.0,,,,766.3859097000023,1007,28,female,True,7663,7668,False,False,inspiration,inspiration
215,0.235260653229576,25,down,down,1.1725003000028664,0.6397621586499147,,experiment,cRDM,0.0,,,,767.7691974000007,1007,28,female,True,7677,7689,False,False,expiration,expiration
216,0.235260653229576,25,down,down,0.5549336000003677,1.1837019427357869,,experiment,cRDM,0.0,,,,770.3857625000019,1007,28,female,True,7703,7709,False,False,inspiration,expiration
217,0.235260653229576,25,down,down,0.3671665000001667,1.9240340631187656,,experiment,cRDM,0.0,,,,773.1356489999997,1007,28,female,True,7730,7734,False,False,inspiration,expiration
218,0.235260653229576,25,up,down,0.5690639999993437,1.4190645674287516,,experiment,cRDM,0.0,,,,775.2355968000011,1007,28,female,True,7751,7757,False,False,inspiration,inspiration
219,0.235260653229576,25,up,up,0.5442251999993459,1.4661196428256194,,experiment,cRDM,0.0,,,,777.5354757000023,1007,28,female,True,7774,7779,False,False,expiration,expiration
220,0.235260653229576,25,up,up,0.598345700000209,1.5203903147747262,,experiment,cRDM,0.0,,,,779.8523544000017,1007,28,female,True,7798,7804,False,False,expiration,expiration
221,0.235260653229576,25,down,up,0.9103561000010814,0.8229543217600229,,experiment,cRDM,0.0,,,,781.535338200003,1007,28,female,True,7814,7823,False,False,inspiration,expiration
222,0.235260653229576,25,up,up,0.6898051999996824,1.4481412322933012,,experiment,cRDM,0.0,,,,784.1518888999999,1007,28,female,True,7841,7848,False,False,inspiration,inspiration
223,0.235260653229576,25,down,up,0.9815156999975444,1.8392293141350728,,experiment,cRDM,0.0,,,,786.9351376000012,1007,28,female,True,7868,7878,False,False,inspiration,peak
224,0.235260653229576,25,down,up,0.8186687999987043,1.0531928620489903,,experiment,cRDM,0.0,,,,789.2350471000027,1007,28,female,True,7891,7899,False,False,expiration,inspiration
225,0.235260653229576,25,up,up,0.6990662999996857,0.534401978231114,,experiment,cRDM,0.0,,,,790.8516589999998,1007,28,female,True,7908,7915,False,False,peak,expiration
226,0.235260653229576,25,down,down,0.6868218000017805,1.9165883911290544,,experiment,cRDM,0.0,,,,793.7348835000013,1007,28,female,True,7936,7943,False,False,peak,expiration
227,0.235260653229576,25,up,up,0.5792344000001322,1.9291409589718156,,experiment,cRDM,0.0,,,,796.6014433000017,1007,28,female,True,7965,7971,False,False,inspiration,expiration
228,0.235260653229576,25,up,up,0.9766026000033888,0.4264737413900232,,experiment,cRDM,0.0,,,,797.8680891000004,1007,28,female,True,7978,7988,False,False,expiration,inspiration
229,0.235260653229576,25,up,up,0.6747082000001683,0.7231049792224562,,experiment,cRDM,0.0,,,,799.8179868000008,1007,28,female,True,7997,8004,False,False,peak,expiration
230,0.235260653229576,25,up,up,0.7969823999992514,0.8906894505490737,,experiment,cRDM,0.0,,,,801.6346428000032,1007,28,female,True,8016,8024,False,False,trough,inspiration
231,0.235260653229576,25,down,down,0.5128295000031358,1.5692616936529735,,experiment,cRDM,0.0,,,,804.2678443000003,1007,28,female,True,8042,8047,False,False,expiration,expiration
232,0.235260653229576,25,down,down,0.7842643999974825,0.3276293087919314,,experiment,cRDM,0.0,,,,805.3844622000032,1007,28,female,True,8053,8061,False,False,inspiration,peak
233,0.235260653229576,25,down,down,0.457294499999989,1.2082888271100678,,experiment,cRDM,0.0,,,,807.6343717000017,1007,28,female,True,8075,8080,False,False,expiration,inspiration
234,0.235260653229576,25,down,down,0.4849960999999894,0.9505164352452116,,experiment,cRDM,0.0,,,,809.3176559000021,1007,28,female,True,8092,8097,False,False,expiration,expiration
235,0.235260653229576,25,up,down,0.31717260000004904,1.8408062221793453,,experiment,cRDM,0.0,,,,811.9008859000023,1007,28,female,True,8118,8121,False,False,inspiration,expiration
236,0.235260653229576,25,up,up,0.5338596999972651,1.806958024284549,,experiment,cRDM,0.0,,,,814.4008234000031,1007,28,female,True,8143,8148,False,False,inspiration,expiration
237,0.235260653229576,25,up,up,0.6927075999992667,1.1257542958548936,,experiment,cRDM,0.0,,,,816.3339661999997,1007,28,female,True,8163,8170,False,False,expiration,inspiration
238,0.235260653229576,25,up,up,0.5223778999970818,1.7264905200361218,,experiment,cRDM,0.0,,,,819.0172883000014,1007,28,female,True,8189,8194,False,False,expiration,expiration
239,0.235260653229576,25,down,up,0.5708052000009047,1.7918836441520078,,experiment,cRDM,0.0,,,,821.5838644000032,1007,28,female,True,8215,8221,False,False,expiration,expiration
240,0.235260653229576,25,down,up,0.8795441000002029,0.895356871931893,,experiment,cRDM,0.0,,,,823.3171200000032,1007,28,female,True,8232,8241,False,False,expiration,inspiration
241,0.235260653229576,25,down,up,0.6815889999998035,1.814744082577349,,experiment,cRDM,0.0,,,,826.2670226000009,1007,28,female,True,8262,8269,False,False,expiration,inspiration
242,0.235260653229576,25,up,up,0.8090288000021246,1.423896215513879,,experiment,cRDM,0.0,,,,828.6336374000019,1007,28,female,True,8286,8294,False,False,expiration,expiration
243,0.235260653229576,25,up,up,0.6998550999996951,1.7105306719120568,,experiment,cRDM,0.0,,,,831.4168156000014,1007,28,female,True,8313,8320,False,False,expiration,expiration
244,0.235260653229576,25,down,up,0.7052312999985588,1.4911201324886807,,experiment,cRDM,0.0,,,,833.8834170000009,1007,28,female,True,8338,8345,False,False,peak,expiration
245,0.235260653229576,25,up,up,0.7270234999996319,1.3698586831575923,,experiment,cRDM,0.0,,,,836.2166398000007,1007,28,female,True,8361,8368,False,False,inspiration,peak
246,0.235260653229576,25,down,down,0.6427203999992344,0.43717736838478416,,experiment,cRDM,0.0,,,,837.6499672000027,1007,28,female,True,8376,8382,False,False,expiration,expiration
247,0.235260653229576,25,up,up,0.5778135000000475,1.5335811527608951,,experiment,cRDM,0.0,,,,840.0998510000028,1007,28,female,True,8400,8406,False,False,expiration,expiration
248,0.235260653229576,25,up,up,0.5531938999993145,1.0148206548712857,,experiment,cRDM,0.0,,,,841.9664564000012,1007,28,female,True,8419,8425,False,False,inspiration,inspiration
249,0.235260653229576,25,down,down,0.7543207000016992,1.6461219157535518,,experiment,cRDM,0.0,,,,844.4163433000031,1007,28,female,True,8443,8451,False,False,expiration,trough
250,0.235260653229576,25,up,up,0.7570313999967766,0.3349566457862317,,experiment,cRDM,0.0,,,,845.7496625000023,1007,28,female,True,8457,8465,False,False,inspiration,expiration
251,0.235260653229576,25,down,down,0.6474753000002238,0.9483114002113764,,experiment,cRDM,0.0,,,,847.7162144000031,1007,28,female,True,8476,8482,False,False,expiration,trough
252,0.235260653229576,25,down,down,0.6448982000001706,1.2162615546654096,,experiment,cRDM,0.0,,,,849.8328316000006,1007,28,female,True,8498,8504,False,False,expiration,expiration
253,0.235260653229576,25,down,down,0.670562900002551,1.730712271107652,,experiment,cRDM,0.0,,,,852.4660506000001,1007,28,female,True,8524,8531,False,False,inspiration,expiration
254,0.235260653229576,25,down,down,0.5731236999999965,1.8341478693655404,,experiment,cRDM,0.0,,,,855.232536200001,1007,28,female,True,8552,8558,False,False,inspiration,expiration
255,0.235260653229576,25,up,up,0.6181128999996872,1.501003448580161,,experiment,cRDM,0.0,,,,857.5825413000019,1007,28,female,True,8575,8581,False,False,inspiration,peak
256,0.235260653229576,25,down,up,0.84739719999925,0.9193966032483384,,experiment,cRDM,0.0,,,,859.3824827000026,1007,28,female,True,8593,8601,False,False,expiration,inspiration
257,0.235260653229576,25,down,down,1.053587200000038,0.4576127417776678,,experiment,cRDM,0.0,,,,860.9491073999997,1007,28,female,True,8609,8620,False,False,peak,expiration
258,0.235260653229576,25,down,down,0.7080504000005021,1.8429392888868523,,experiment,cRDM,0.0,,,,864.1156090000003,1007,28,female,True,8640,8647,False,False,inspiration,expiration
259,0.235260653229576,25,up,up,1.131465099999332,0.5514812397392548,,experiment,cRDM,0.0,,,,865.6321947000032,1007,28,female,True,8656,8667,False,False,expiration,expiration
260,0.235260653229576,25,up,up,1.3342442999964987,1.0955694981534343,,experiment,cRDM,0.0,,,,868.1154616000023,1007,28,female,True,8680,8693,False,False,inspiration,expiration
261,0.235260653229576,25,up,up,0.9029536000016378,1.5760794766870296,,experiment,cRDM,0.0,,,,871.298704300003,1007,28,female,True,8712,8721,False,False,expiration,inspiration
262,0.235260653229576,25,up,up,0.5050001000017801,1.082877270163195,,experiment,cRDM,0.0,,,,873.5486384000033,1007,28,female,True,8735,8740,False,False,expiration,expiration
263,154.0,25,M,down,0.5929209000023548,1.0272969506316976,,experiment,emotion,0.0,,,,888.3647311000022,1007,28,female,True,8883,8889,False,False,inspiration,expiration
264,142.0,25,M,down,0.8515021999992314,1.6932232957149078,,experiment,emotion,0.0,,,,890.931158000003,1007,28,female,True,8909,8918,False,False,inspiration,expiration
265,154.0,25,F,up,0.9217584000034548,0.3998059585974044,,experiment,emotion,0.0,,,,892.4478992000003,1007,28,female,True,8924,8933,False,False,expiration,trough
266,118.0,25,F,down,0.7155015999996976,1.139716342008787,,experiment,emotion,0.0,,,,894.7811529000028,1007,28,female,True,8947,8954,False,False,expiration,expiration
267,130.0,25,M,up,0.9309626000031128,1.8471651908880875,,experiment,emotion,0.0,,,,897.6477002000029,1007,28,female,True,8976,8985,False,False,inspiration,expiration
268,142.0,25,F,up,0.8170315000024857,1.298888238842739,,experiment,emotion,0.0,,,,900.1476283000011,1007,28,female,True,9001,9009,False,False,inspiration,inspiration
269,130.0,25,M,up,0.6835258999999496,0.9940501774269216,,experiment,emotion,0.0,,,,902.2141907000004,1007,28,female,True,9021,9028,False,False,expiration,expiration
270,118.0,25,M,down,0.8315457999997307,0.9950689553456832,,experiment,emotion,0.0,,,,904.1641278000025,1007,28,female,True,9041,9049,False,False,inspiration,expiration
271,118.0,25,F,up,0.8593043000000762,1.6454685159939484,,experiment,emotion,0.0,,,,906.8973724000025,1007,28,female,True,9068,9077,False,False,inspiration,expiration
272,154.0,25,F,up,0.7743523000026471,1.3589384388495285,,experiment,emotion,0.0,,,,909.3972743000012,1007,28,female,True,9093,9101,False,False,inspiration,inspiration
273,142.0,25,F,up,0.6937897000025259,1.2188404798049872,,experiment,emotion,0.0,,,,911.6638562000007,1007,28,female,True,9116,9123,False,False,expiration,expiration
274,130.0,25,F,up,0.6804437999999209,0.6119985010192164,,experiment,emotion,0.0,,,,913.247148800001,1007,28,female,True,9132,9139,False,False,inspiration,expiration
275,154.0,25,F,up,0.6206638000003295,1.3934767043953349,,experiment,emotion,0.0,,,,915.5970444000012,1007,28,female,True,9155,9161,False,False,trough,inspiration
276,118.0,25,F,down,0.8406230000000505,0.7170953648917513,,experiment,emotion,0.0,,,,917.1969809000003,1007,28,female,True,9171,9179,False,False,expiration,expiration
277,130.0,25,M,up,1.1177151999982016,0.34438757455132835,,experiment,emotion,0.0,,,,918.6469311,1007,28,female,True,9186,9197,False,False,inspiration,expiration
278,142.0,25,M,up,0.6311416999997164,0.8441986655987073,,experiment,emotion,0.0,,,,920.8635279000008,1007,28,female,True,9208,9214,False,False,expiration,trough
279,118.0,25,M,down,1.0402259000002232,1.9031875124150253,,experiment,emotion,0.0,,,,923.6634224000007,1007,28,female,True,9236,9246,False,False,expiration,trough
280,142.0,25,M,up,0.8529358000014327,0.4579393811006634,,experiment,emotion,0.0,,,,925.4467106000012,1007,28,female,True,9254,9263,False,False,inspiration,expiration
281,142.0,25,F,down,0.8433133999969868,0.3875606113808348,,experiment,emotion,0.0,,,,926.963330900002,1007,28,female,True,9269,9277,False,False,expiration,trough
282,154.0,25,M,up,0.8354293000011239,0.8225927714867629,,experiment,emotion,0.0,,,,928.9132140000003,1007,28,female,True,9288,9296,False,False,inspiration,expiration
283,118.0,25,M,down,0.7125543000001926,1.5974895321825175,,experiment,emotion,0.0,,,,931.6131019000023,1007,28,female,True,9315,9322,False,False,inspiration,expiration
284,130.0,25,F,up,0.8049309999987599,1.0535825370718894,,experiment,emotion,0.0,,,,933.6797199000031,1007,28,female,True,9336,9344,False,False,expiration,inspiration
285,154.0,25,M,up,0.9726921000001312,1.0514274342557803,,experiment,emotion,0.0,,,,935.8129534,1007,28,female,True,9357,9367,False,False,expiration,expiration
286,130.0,25,F,up,0.7253815000003669,0.8806993358940542,,experiment,emotion,0.0,,,,937.9462402000026,1007,28,female,True,9379,9386,False,False,inspiration,expiration
287,130.0,25,F,,,0.3239779147649812,,experiment,emotion,0.0,,,,939.2628418000023,1007,28,female,True,9392,0,False,False,trough,0
288,142.0,25,M,up,0.8723166999989189,1.920780973250787,,experiment,emotion,0.0,,,,943.879330300002,1007,28,female,True,9438,9447,False,False,expiration,expiration
289,154.0,25,M,up,0.6590611999999965,1.2445807184948288,,experiment,emotion,0.0,,,,946.2625784000012,1007,28,female,True,9462,9469,False,False,peak,expiration
290,118.0,25,F,down,0.7234588999999687,1.2214905649522851,,experiment,emotion,0.0,,,,948.4291983000003,1007,28,female,True,9484,9491,False,False,inspiration,expiration
291,142.0,25,M,up,1.0098404999989723,1.4224019258785952,,experiment,emotion,0.0,,,,950.8457711000011,1007,28,female,True,9508,9518,False,False,inspiration,expiration
292,118.0,25,F,down,0.8859929999998712,1.5601261070387646,,experiment,emotion,0.0,,,,953.695653900002,1007,28,female,True,9536,9545,False,False,inspiration,expiration
293,130.0,25,F,up,0.9874846000020624,1.6475846937740422,,experiment,emotion,0.0,,,,956.512183900002,1007,28,female,True,9564,9574,False,False,inspiration,expiration
294,154.0,25,F,up,0.8065206000028411,1.2792818721864587,,experiment,emotion,0.0,,,,959.0621160000011,1007,28,female,True,9590,9598,False,False,inspiration,expiration
295,142.0,25,M,up,1.2999304000004486,0.3389096397305421,,experiment,emotion,0.0,,,,960.4787182,1007,28,female,True,9604,9617,False,False,expiration,inspiration
296,118.0,25,M,down,0.8357278000003134,0.8059423195979332,,experiment,emotion,0.0,,,,962.861965,1007,28,female,True,9628,9636,False,False,expiration,expiration
297,130.0,25,M,down,1.3777781999997387,1.3419742617853287,,experiment,emotion,0.0,,,,965.311857800003,1007,28,female,True,9652,9666,False,False,peak,expiration
298,130.0,25,F,down,0.7644919999984268,0.4843801358195233,,experiment,emotion,0.0,,,,967.4451445000012,1007,28,female,True,9674,9682,False,False,inspiration,expiration
299,154.0,25,F,down,0.7185777999984566,0.9510612982627143,,experiment,emotion,0.0,,,,969.4450591000025,1007,28,female,True,9694,9701,False,False,expiration,inspiration
300,142.0,25,M,down,0.7719584000005852,0.4336705608835686,,experiment,emotion,0.0,,,,970.8616739000026,1007,28,female,True,9708,9716,False,False,inspiration,expiration
301,154.0,25,F,down,0.6653363000004902,0.3365086522439894,,experiment,emotion,0.0,,,,972.2283025000032,1007,28,female,True,9722,9729,False,False,expiration,inspiration
302,118.0,25,M,down,0.8461160000006203,1.4304581165098245,,experiment,emotion,0.0,,,,974.6115129999997,1007,28,female,True,9745,9753,False,False,expiration,expiration
303,130.0,25,M,down,0.6204771000011533,0.5056706386992662,,experiment,emotion,0.0,,,,976.2281452000025,1007,28,female,True,9762,9768,False,False,inspiration,inspiration
304,118.0,25,M,down,0.5889007999976457,1.2688353668735939,,experiment,emotion,0.0,,,,978.3947413000025,1007,28,female,True,9783,9789,False,False,expiration,inspiration
305,118.0,25,F,down,0.5303376000010758,1.2162581048440164,,experiment,emotion,0.0,,,,980.4613212000003,1007,28,female,True,9804,9809,False,False,expiration,expiration
306,154.0,25,F,down,0.4740775999998732,1.1290239207743376,,experiment,emotion,0.0,,,,982.3945614000003,1007,28,female,True,9823,9828,False,False,inspiration,expiration
307,142.0,25,M,up,1.0027881999994859,0.6459006133130134,,experiment,emotion,0.0,,,,983.7778521,1007,28,female,True,9837,9847,False,False,expiration,inspiration
308,130.0,25,F,down,0.9691725000011502,1.3827336096648388,,experiment,emotion,0.0,,,,986.4444421000007,1007,28,female,True,9864,9874,False,False,expiration,expiration
309,142.0,25,F,up,1.4339195000029576,0.5451603358813788,,experiment,emotion,0.0,,,,988.2277160000012,1007,28,female,True,9882,9896,False,False,inspiration,expiration
310,154.0,25,M,up,1.0977156000008108,0.5744335779173387,,experiment,emotion,0.0,,,,990.5109213000032,1007,28,female,True,9904,9915,False,False,expiration,inspiration
311,130.0,25,M,,,1.5288113254216484,,experiment,emotion,0.0,,,,993.4108228000003,1007,28,female,True,9933,0,False,False,expiration,0
312,154.0,25,F,,,1.1929725616477065,,experiment,emotion,0.0,,,,997.2773690000032,1007,28,female,True,9972,0,False,False,expiration,0
313,142.0,25,M,down,0.7721011000030558,1.6213896045791942,,experiment,emotion,0.0,,,,1001.6105317,1007,28,female,True,10015,10023,True,True,expiration,inspiration
314,118.0,25,F,down,0.9742151999998896,1.8272697457942275,,experiment,emotion,0.0,,,,1004.5104200000025,1007,28,female,True,10044,10054,True,True,inspiration,expiration
315,142.0,25,F,down,0.5659460999995645,0.9336254947182006,,experiment,emotion,0.0,,,,1006.6936681000008,1007,28,female,True,10066,10072,True,False,expiration,inspiration
316,130.0,25,F,down,0.6336937999985821,0.5808215473412042,,experiment,emotion,0.0,,,,1008.1269363000027,1007,28,female,True,10081,10087,False,False,peak,expiration
317,154.0,25,M,down,0.5307901000014681,1.7617863560300282,,experiment,emotion,0.0,,,,1010.7768399000017,1007,28,female,True,10107,10112,False,False,inspiration,expiration
318,118.0,25,M,down,0.862875200000417,0.8608941321421879,,experiment,emotion,0.0,,,,1012.4267818000008,1007,28,female,True,10124,10133,False,False,expiration,inspiration
319,142.0,25,F,down,0.3501528999986476,1.7924148953803714,,experiment,emotion,0.0,,,,1015.3433833000017,1007,28,female,True,10153,10157,False,False,expiration,expiration
320,142.0,25,F,down,0.6099685999979556,0.39381722094856025,,experiment,emotion,0.0,,,,1016.4266915000007,1007,28,female,True,10164,10170,False,False,inspiration,inspiration
321,118.0,25,M,down,0.6093722000005073,0.7891858173943123,,experiment,emotion,0.0,,,,1018.0932630000025,1007,28,female,True,10180,10186,False,False,expiration,expiration
322,154.0,25,M,down,0.4928607000001648,1.1493544897871324,,experiment,emotion,0.0,,,,1020.1267663,1007,28,female,True,10201,10206,False,False,peak,expiration
323,154.0,25,M,down,0.5691966999984288,0.3807465612940935,,experiment,emotion,0.0,,,,1021.276463000002,1007,28,female,True,10212,10218,False,False,expiration,expiration
324,130.0,25,M,down,0.6959354999999051,1.8384239059551128,,experiment,emotion,0.0,,,,1023.9596988000012,1007,28,female,True,10239,10246,False,False,expiration,expiration
325,130.0,25,M,down,0.3668195999998716,1.6071178129248451,,experiment,emotion,0.0,,,,1026.5429333999998,1007,28,female,True,10265,10269,False,False,expiration,expiration
326,118.0,25,F,down,0.4605554999980086,0.8968297305961037,,experiment,emotion,0.0,,,,1028.1261021000028,1007,28,female,True,10281,10286,False,False,trough,inspiration
327,130.0,25,F,down,0.4171722999999474,1.8581914524904843,,experiment,emotion,0.0,,,,1030.7094467000024,1007,28,female,True,10306,10310,False,False,expiration,expiration
328,154.0,25,M,down,0.5777052999983425,1.0259846030529471,,experiment,emotion,0.0,,,,1032.4259210000016,1007,28,female,True,10324,10330,False,False,inspiration,expiration
329,142.0,25,F,down,0.4586882000003243,1.3280797956969446,,experiment,emotion,0.0,,,,1034.6259335000032,1007,28,female,True,10346,10351,False,False,inspiration,inspiration
330,118.0,25,F,down,0.4168231000003289,1.6102396772815122,,experiment,emotion,0.0,,,,1036.9592127000033,1007,28,female,True,10369,10373,False,False,expiration,expiration
331,118.0,25,F,down,0.5728533000001335,1.1065304833223677,,experiment,emotion,0.0,,,,1038.775823,1007,28,female,True,10387,10393,False,False,inspiration,expiration
332,142.0,25,M,down,0.4639368999996805,1.6247256720061884,,experiment,emotion,0.0,,,,1041.225724400003,1007,28,female,True,10412,10417,False,False,inspiration,inspiration
333,130.0,25,F,down,0.6273380999991787,0.4775786629959141,,experiment,emotion,0.0,,,,1042.4422897000004,1007,28,female,True,10424,10430,False,False,expiration,expiration
334,154.0,25,F,down,0.3334971000003861,1.91533703404478,,experiment,emotion,0.0,,,,1045.2755778000028,1007,28,female,True,10452,10455,False,False,expiration,expiration
335,118.0,25,F,down,0.5527989000001979,0.8824487988870582,,experiment,emotion,0.0,,,,1046.8588441000031,1007,28,female,True,10468,10474,False,False,inspiration,inspiration
336,130.0,25,M,down,0.5105072000005748,1.1441040488416103,,experiment,emotion,0.0,,,,1048.8421372000012,1007,28,female,True,10488,10493,False,False,expiration,expiration
337,118.0,25,M,down,0.5892619000005652,0.8911311020552255,,experiment,emotion,0.0,,,,1050.5253577000003,1007,28,female,True,10505,10511,False,False,inspiration,expiration
338,142.0,25,F,down,0.519585799997003,0.3683281479245779,,experiment,emotion,0.0,,,,1051.7420375000004,1007,28,female,True,10517,10522,False,False,expiration,expiration
339,154.0,25,M,down,0.681865899998229,1.9110347397045424,,experiment,emotion,0.0,,,,1054.4419100000014,1007,28,female,True,10544,10551,False,False,expiration,expiration
340,130.0,25,F,down,0.6787695000020904,0.3932746976312999,,experiment,emotion,0.0,,,,1055.791849600002,1007,28,female,True,10557,10564,False,False,expiration,inspiration
341,154.0,25,M,down,0.5855712999982643,1.6730356077601685,,experiment,emotion,0.0,,,,1058.4250839000017,1007,28,female,True,10584,10590,False,False,expiration,inspiration
342,142.0,25,M,down,0.9000484999996843,0.35877083701474444,,experiment,emotion,0.0,,,,1059.6416215999998,1007,28,female,True,10596,10605,False,False,inspiration,expiration
343,0.235260653229576,25,up,up,0.6858463999997184,0.9963810968976003,,experiment,cRDM,1.0,,,,1067.1247842000012,1007,28,female,True,10670,10677,False,False,inspiration,expiration
344,0.235260653229576,25,up,up,0.7639307000026747,1.7602626855393029,,experiment,cRDM,1.0,,,,1069.8246696000024,1007,28,female,True,10697,10705,False,False,inspiration,expiration
345,0.235260653229576,25,down,down,0.5956901999998081,0.4038852794562026,,experiment,cRDM,1.0,,,,1071.2579719000025,1007,28,female,True,10712,10718,False,False,expiration,expiration
346,0.235260653229576,25,down,up,0.6420958999988216,0.9154411540603472,,experiment,cRDM,1.0,,,,1073.0245745999998,1007,28,female,True,10730,10736,False,False,inspiration,expiration
347,0.235260653229576,25,up,up,0.7028205999995407,0.3337807107726189,,experiment,cRDM,1.0,,,,1074.2578318000014,1007,28,female,True,10742,10749,False,False,expiration,expiration
348,0.235260653229576,25,down,down,0.4167754000009154,0.5348427687531077,,experiment,cRDM,1.0,,,,1075.7578151000016,1007,28,female,True,10757,10761,False,False,inspiration,inspiration
349,0.235260653229576,25,up,up,0.5615002000013192,1.7360113739155976,,experiment,cRDM,1.0,,,,1078.1741438000026,1007,28,female,True,10781,10787,False,False,trough,inspiration
350,0.235260653229576,25,up,up,0.8651004000021203,1.959829155503408,,experiment,cRDM,1.0,,,,1080.9575901000026,1007,28,female,True,10809,10818,False,False,expiration,inspiration
351,0.235260653229576,25,down,down,0.6637874000007287,1.3105679594538004,,experiment,cRDM,1.0,,,,1083.3908201000013,1007,28,female,True,10833,10840,False,False,expiration,expiration
352,0.235260653229576,25,down,up,0.5075552000016614,1.5463429943381948,,experiment,cRDM,1.0,,,,1085.8740898000033,1007,28,female,True,10858,10863,False,False,expiration,expiration
353,0.235260653229576,25,down,down,0.5983009000010497,1.6130992308480925,,experiment,cRDM,1.0,,,,1088.2573182000017,1007,28,female,True,10882,10888,False,False,inspiration,expiration
354,0.235260653229576,25,down,up,0.5784267999988515,1.2894912477067226,,experiment,cRDM,1.0,,,,1090.4072115000017,1007,28,female,True,10903,10909,False,False,inspiration,inspiration
355,0.235260653229576,25,down,down,0.6124522999998591,1.804196214796228,,experiment,cRDM,1.0,,,,1093.0571451000033,1007,28,female,True,10930,10936,False,False,trough,inspiration
356,0.235260653229576,25,down,down,0.774219599999924,1.7947669871591303,,experiment,cRDM,1.0,,,,1095.7403992,1007,28,female,True,10957,10965,False,False,expiration,inspiration
357,0.235260653229576,25,up,up,0.6336243000005197,0.9758721645927464,,experiment,cRDM,1.0,,,,1097.756988600002,1007,28,female,True,10977,10983,False,False,expiration,expiration
358,0.235260653229576,25,up,up,0.7693820999993477,1.5512360878191336,,experiment,cRDM,1.0,,,,1100.1902106000016,1007,28,female,True,11001,11009,False,False,inspiration,expiration
359,0.235260653229576,25,up,up,0.5880959999994957,0.34077538040822875,,experiment,cRDM,1.0,,,,1101.573498400001,1007,28,female,True,11015,11021,False,False,expiration,expiration
360,0.235260653229576,25,up,up,0.5762403000007907,0.5003862633578127,,experiment,cRDM,1.0,,,,1102.9233729000007,1007,28,female,True,11029,11035,False,False,inspiration,expiration
361,0.235260653229576,25,down,down,0.6142196000000695,0.8148951888879266,,experiment,cRDM,1.0,,,,1104.573372400002,1007,28,female,True,11045,11051,False,False,expiration,expiration
362,0.235260653229576,25,up,up,0.4003122000030999,1.5213094935206442,,experiment,cRDM,1.0,,,,1106.973294000003,1007,28,female,True,11069,11073,False,False,expiration,expiration
363,0.235260653229576,25,up,up,0.6270585000020219,1.2055281452987692,,experiment,cRDM,1.0,,,,1108.8565505000006,1007,28,female,True,11088,11094,False,False,inspiration,expiration
364,0.235260653229576,25,down,down,0.5254596999984642,1.9727145505222896,,experiment,cRDM,1.0,,,,1111.7231489000003,1007,28,female,True,11117,11122,False,False,inspiration,expiration
365,0.235260653229576,25,up,up,0.5222582999995211,0.6407064077589981,,experiment,cRDM,1.0,,,,1113.1563714000004,1007,28,female,True,11131,11136,False,False,expiration,expiration
366,0.235260653229576,25,down,down,0.3505138999971677,1.4446807829739778,,experiment,cRDM,1.0,,,,1115.3896443000012,1007,28,female,True,11153,11157,False,False,expiration,expiration
367,0.235260653229576,25,down,up,0.416794700002356,1.2838479764021085,,experiment,cRDM,1.0,,,,1117.3396019000031,1007,28,female,True,11173,11177,False,False,inspiration,inspiration
368,0.235260653229576,25,up,up,0.7404299000008905,0.3867358166110587,,experiment,cRDM,1.0,,,,1118.4061853000019,1007,28,female,True,11183,11190,False,False,expiration,expiration
369,0.235260653229576,25,up,up,0.4832075000012992,0.4766387472316301,,experiment,cRDM,1.0,,,,1119.8894799000007,1007,28,female,True,11198,11203,False,False,inspiration,inspiration
370,0.235260653229576,25,down,down,0.6338305999997829,1.4282972871586896,,experiment,cRDM,1.0,,,,1122.0728190000011,1007,28,female,True,11220,11226,False,False,expiration,expiration
371,0.235260653229576,25,up,up,0.482944999999745,0.7023459990870654,,experiment,cRDM,1.0,,,,1123.672676500002,1007,28,female,True,11236,11241,False,False,inspiration,peak
372,0.235260653229576,25,down,down,0.4168391999992309,1.8721753982083515,,experiment,cRDM,1.0,,,,1126.2892407,1007,28,female,True,11262,11266,False,False,inspiration,inspiration
373,0.235260653229576,25,down,down,0.7811139000004914,1.7008042103377423,,experiment,cRDM,1.0,,,,1128.6724919000008,1007,28,female,True,11286,11294,False,False,expiration,inspiration
374,0.235260653229576,25,down,down,0.4167810000035388,0.986202131913859,,experiment,cRDM,1.0,,,,1130.7057538000008,1007,28,female,True,11306,11310,False,False,expiration,expiration
375,0.235260653229576,25,up,down,0.8162083999995957,0.5301123660598066,,experiment,cRDM,1.0,,,,1131.922348,1007,28,female,True,11318,11326,False,False,expiration,inspiration
376,0.235260653229576,25,up,down,0.4940051999983552,1.4648400331384102,,experiment,cRDM,1.0,,,,1134.4556260999998,1007,28,female,True,11344,11349,False,False,expiration,expiration
377,0.235260653229576,25,up,down,0.5524473999976179,0.5676322507429434,,experiment,cRDM,1.0,,,,1135.7722178000004,1007,28,female,True,11357,11363,False,False,inspiration,inspiration
378,0.235260653229576,25,down,down,0.4950954999985697,1.3601796888215028,,experiment,cRDM,1.0,,,,1137.9555048000002,1007,28,female,True,11379,11384,False,False,expiration,expiration
379,0.235260653229576,25,down,down,0.4822937000026286,1.84034699476366,,experiment,cRDM,1.0,,,,1140.5554074000027,1007,28,female,True,11405,11410,False,False,expiration,expiration
380,0.235260653229576,25,up,down,0.5143599000002723,1.8038933928097447,,experiment,cRDM,1.0,,,,1143.105263100002,1007,28,female,True,11430,11435,False,False,expiration,expiration
381,0.235260653229576,25,down,down,0.486206300000049,0.5538669224629541,,experiment,cRDM,1.0,,,,1144.4384396000025,1007,28,female,True,11444,11449,False,False,expiration,inspiration
382,0.235260653229576,25,up,down,0.4901456000006874,1.6386590341363825,,experiment,cRDM,1.0,,,,1146.8385055,1007,28,female,True,11468,11473,False,False,expiration,expiration
383,0.235260653229576,25,up,down,0.3671509999985574,1.577357749765039,,experiment,cRDM,1.0,,,,1149.1550490000009,1007,28,female,True,11491,11495,False,False,expiration,expiration
384,0.235260653229576,25,up,down,0.5466511999984505,1.867171991105438,,experiment,cRDM,1.0,,,,1151.7049466000024,1007,28,female,True,11516,11521,False,False,inspiration,peak
385,0.235260653229576,25,down,down,0.5844031999986328,1.7705958932990091,,experiment,cRDM,1.0,,,,1154.288193700002,1007,28,female,True,11542,11548,False,False,inspiration,inspiration
386,0.235260653229576,25,down,down,0.4752014000005147,1.1882477378114151,,experiment,cRDM,1.0,,,,1156.3213970000031,1007,28,female,True,11563,11568,False,False,expiration,expiration
387,0.235260653229576,25,up,up,0.6055578000014066,0.6795810082724655,,experiment,cRDM,1.0,,,,1157.7381029000023,1007,28,female,True,11577,11583,False,False,inspiration,expiration
388,0.235260653229576,25,down,down,0.575297799998225,1.014014874903541,,experiment,cRDM,1.0,,,,1159.6213290000014,1007,28,female,True,11596,11602,False,False,expiration,trough
389,0.235260653229576,25,down,down,0.5766710999996576,1.7311661959296094,,experiment,cRDM,1.0,,,,1162.1879295,1007,28,female,True,11621,11627,False,False,expiration,expiration
390,0.235260653229576,25,up,up,0.6035168000016711,0.7856289792624807,,experiment,cRDM,1.0,,,,1163.821076600001,1007,28,female,True,11638,11644,False,False,inspiration,inspiration
391,0.235260653229576,25,up,up,0.9048347999996622,1.3603966300304462,,experiment,cRDM,1.0,,,,1166.0377960000005,1007,28,female,True,11660,11669,False,False,expiration,inspiration
392,0.235260653229576,25,down,down,0.4785229999979492,0.7206608855281058,,experiment,cRDM,1.0,,,,1167.9210724000004,1007,28,female,True,11679,11684,False,False,expiration,expiration
393,0.235260653229576,25,up,up,0.4229478999986896,0.8226414762988876,,experiment,cRDM,1.0,,,,1169.487638300001,1007,28,female,True,11694,11698,False,False,inspiration,inspiration
394,0.235260653229576,25,down,down,0.5646875999991607,0.5510071380709608,,experiment,cRDM,1.0,,,,1170.720949800001,1007,28,female,True,11707,11713,False,False,expiration,expiration
395,0.235260653229576,25,down,up,0.8274191000018618,0.9004252443269529,,experiment,cRDM,1.0,,,,1172.4542118999998,1007,28,female,True,11724,11732,False,False,expiration,inspiration
396,0.235260653229576,25,down,down,0.6157816999984789,1.827923918521284,,experiment,cRDM,1.0,,,,1175.3708004,1007,28,female,True,11753,11759,False,False,expiration,inspiration
397,0.235260653229576,25,up,up,0.5208591000009619,0.927659740501033,,experiment,cRDM,1.0,,,,1177.1707427,1007,28,female,True,11771,11776,False,False,expiration,expiration
398,0.235260653229576,25,up,up,0.8529597000015201,0.7653211719802631,,experiment,cRDM,1.0,,,,1178.720636500002,1007,28,female,True,11787,11796,False,False,trough,inspiration
399,0.235260653229576,25,down,down,0.6320255999999063,1.6336257860872412,,experiment,cRDM,1.0,,,,1181.470556100001,1007,28,female,True,11814,11820,False,False,expiration,inspiration
400,0.235260653229576,25,down,down,0.5191118000002461,1.2356533221067485,,experiment,cRDM,1.0,,,,1183.6037926000024,1007,28,female,True,11835,11840,False,False,expiration,expiration
401,0.235260653229576,25,up,up,0.6182261000030849,0.8318202579034224,,experiment,cRDM,1.0,,,,1185.2203122000028,1007,28,female,True,11852,11858,False,False,trough,inspiration
402,0.235260653229576,25,up,up,0.63993919999848,1.272468271025017,,experiment,cRDM,1.0,,,,1187.3536536000026,1007,28,female,True,11873,11879,False,False,expiration,expiration
403,0.235260653229576,25,up,up,0.5806250999994518,0.8797395562181645,,experiment,cRDM,1.0,,,,1189.136939400003,1007,28,female,True,11891,11897,False,False,inspiration,expiration
404,0.235260653229576,25,up,up,0.5124116000006325,0.640671264466725,,experiment,cRDM,1.0,,,,1190.6201940000028,1007,28,female,True,11905,11910,False,False,expiration,trough
405,0.235260653229576,25,up,up,0.3671964000022854,1.61095746749926,,experiment,cRDM,1.0,,,,1193.0200802000002,1007,28,female,True,11929,11933,False,False,expiration,expiration
406,0.235260653229576,25,down,up,0.5668975999979011,1.2985339041543869,,experiment,cRDM,1.0,,,,1194.9866976000012,1007,28,female,True,11949,11955,False,False,inspiration,expiration
407,0.235260653229576,25,down,down,0.6942888999983552,1.629249873534377,,experiment,cRDM,1.0,,,,1197.4533064000025,1007,28,female,True,11974,11981,False,False,inspiration,expiration
408,0.235260653229576,25,up,up,0.5050837999988289,1.9316210600033636,,experiment,cRDM,1.0,,,,1200.3365306000014,1007,28,female,True,12003,12008,False,False,inspiration,expiration
409,0.235260653229576,25,down,down,0.6938528000027873,1.3250208944341766,,experiment,cRDM,1.0,,,,1202.4197397000025,1007,28,female,True,12023,12030,False,False,inspiration,inspiration
410,0.235260653229576,25,down,down,0.7371922999991511,0.3652713326396792,,experiment,cRDM,1.0,,,,1203.7364009000012,1007,28,female,True,12037,12044,False,False,expiration,expiration
411,0.235260653229576,25,down,down,0.5146768000013253,1.7851786380690624,,experiment,cRDM,1.0,,,,1206.5029358000031,1007,28,female,True,12064,12069,False,False,expiration,expiration
412,0.235260653229576,25,up,up,0.5723987000019406,1.2037823104643255,,experiment,cRDM,1.0,,,,1208.4861886,1007,28,female,True,12084,12090,False,False,inspiration,peak
413,0.235260653229576,25,down,down,0.5241337000006752,1.1591269037725416,,experiment,cRDM,1.0,,,,1210.4694559000018,1007,28,female,True,12104,12109,False,False,expiration,inspiration
414,0.235260653229576,25,down,down,0.43390440000075614,1.2416524178709996,,experiment,cRDM,1.0,,,,1212.5026885000007,1007,28,female,True,12124,12128,False,False,expiration,expiration
415,0.235260653229576,25,down,down,0.4169856000007712,1.0969536562861741,,experiment,cRDM,1.0,,,,1214.3026296000025,1007,28,female,True,12142,12146,False,False,inspiration,inspiration
416,0.235260653229576,25,up,up,0.6440263999975286,0.8359787227667548,,experiment,cRDM,1.0,,,,1215.802588100003,1007,28,female,True,12157,12163,False,False,expiration,expiration
417,0.235260653229576,25,up,down,0.5152368999988539,1.3998478450383165,,experiment,cRDM,1.0,,,,1218.1024585000016,1007,28,female,True,12180,12185,False,False,expiration,expiration
418,0.235260653229576,25,down,down,0.6389125999994576,1.414774744669897,,experiment,cRDM,1.0,,,,1220.285761500003,1007,28,female,True,12202,12208,False,False,inspiration,expiration
419,0.235260653229576,25,up,up,0.5879628000002413,1.3921046101955354,,experiment,cRDM,1.0,,,,1222.585624700001,1007,28,female,True,12225,12231,False,False,inspiration,inspiration
420,0.235260653229576,25,down,down,0.6256319999993138,0.7790645192160379,,experiment,cRDM,1.0,,,,1224.2189730000027,1007,28,female,True,12242,12248,False,False,expiration,expiration
421,0.235260653229576,25,up,up,0.4910108000003674,1.0756536180363068,,experiment,cRDM,1.0,,,,1226.1855605000019,1007,28,female,True,12261,12266,False,False,inspiration,expiration
422,0.235260653229576,25,up,up,0.5161251999998058,1.1093766098121365,,experiment,cRDM,1.0,,,,1228.0355003000004,1007,28,female,True,12280,12285,False,False,expiration,inspiration
423,154.0,25,M,up,0.7957925000009709,1.7993645734899115,,experiment,emotion,1.0,,,,1236.5018073000028,1007,28,female,True,12364,12372,False,False,trough,inspiration
424,142.0,25,M,down,0.7611947000004875,1.5895907127436897,,experiment,emotion,1.0,,,,1239.1683900000025,1007,28,female,True,12391,12399,False,False,trough,inspiration
425,154.0,25,F,down,0.5515868000002229,0.7195674110570833,,experiment,emotion,1.0,,,,1240.934988800003,1007,28,female,True,12409,12415,False,False,expiration,expiration
426,118.0,25,F,down,0.8569835999987845,0.7938428686559823,,experiment,emotion,1.0,,,,1242.5516026000005,1007,28,female,True,12425,12434,False,False,inspiration,expiration
427,130.0,25,M,down,0.5617203000001609,0.4409199018294447,,experiment,emotion,1.0,,,,1244.1348682000025,1007,28,female,True,12441,12447,False,False,expiration,expiration
428,142.0,25,F,down,1.303522599999269,1.4018847287245662,,experiment,emotion,1.0,,,,1246.368132800002,1007,28,female,True,12463,12476,False,False,expiration,expiration
429,130.0,25,M,down,0.4402617000014288,1.949359889254056,,experiment,emotion,1.0,,,,1249.9013212000027,1007,28,female,True,12498,12502,False,False,expiration,expiration
430,118.0,25,M,down,0.5321899000009579,1.167543054379138,,experiment,emotion,1.0,,,,1251.784571,1007,28,female,True,12517,12522,False,False,inspiration,peak
431,118.0,25,F,down,0.6734168000002683,1.7755272236892128,,experiment,emotion,1.0,,,,1254.3511577000027,1007,28,female,True,12543,12550,False,False,inspiration,inspiration
432,154.0,25,F,down,0.6654875000022002,1.0408814115424367,,experiment,emotion,1.0,,,,1256.3510902000016,1007,28,female,True,12563,12570,False,False,expiration,expiration
433,142.0,25,F,down,0.4909441999989213,1.8697249763682864,,experiment,emotion,1.0,,,,1259.1676493000016,1007,28,female,True,12591,12596,False,False,expiration,expiration
434,130.0,25,F,down,0.6076871000004758,0.5111298427885133,,experiment,emotion,1.0,,,,1260.4509509000018,1007,28,female,True,12604,12610,False,False,trough,inspiration
435,154.0,25,F,up,0.6907690000007278,1.8792724500876703,,experiment,emotion,1.0,,,,1263.2008080000014,1007,28,female,True,12631,12638,False,False,expiration,expiration
436,118.0,25,F,down,0.7478588000012678,1.6766265913475868,,experiment,emotion,1.0,,,,1265.850741000002,1007,28,female,True,12658,12665,False,False,expiration,expiration
437,130.0,25,M,down,0.7159241999979713,0.5362937976906358,,experiment,emotion,1.0,,,,1267.4006714000025,1007,28,female,True,12673,12680,False,False,inspiration,inspiration
438,142.0,25,M,down,0.8566003999985696,0.7888473316262399,,experiment,emotion,1.0,,,,1269.1839314000024,1007,28,female,True,12691,12700,False,False,expiration,expiration
439,118.0,25,M,down,0.5157507000003534,1.7467789830372102,,experiment,emotion,1.0,,,,1272.0838436000013,1007,28,female,True,12720,12725,False,False,expiration,expiration
440,142.0,25,M,up,1.0318914000017685,1.8100095433207204,,experiment,emotion,1.0,,,,1274.6837431000022,1007,28,female,True,12746,12756,False,False,inspiration,expiration
441,142.0,25,F,up,0.8339067000015348,0.7003429670503603,,experiment,emotion,1.0,,,,1276.6836710000025,1007,28,female,True,12766,12774,False,False,expiration,inspiration
442,154.0,25,M,up,0.5583202999987407,0.498661471763985,,experiment,emotion,1.0,,,,1278.300259300002,1007,28,female,True,12782,12788,False,False,expiration,expiration
443,118.0,25,M,up,0.9680474000015238,1.7134843902025705,,experiment,emotion,1.0,,,,1280.8335257,1007,28,female,True,12808,12818,False,False,inspiration,expiration
444,130.0,25,F,down,0.8354868999995233,0.5671965072064642,,experiment,emotion,1.0,,,,1282.650105800003,1007,28,female,True,12826,12834,False,False,expiration,inspiration
445,154.0,25,M,up,0.6246071999994456,1.0953761515071403,,experiment,emotion,1.0,,,,1284.850034500003,1007,28,female,True,12848,12854,False,False,expiration,expiration
446,130.0,25,F,down,0.6650145999992674,1.8291696138910611,,experiment,emotion,1.0,,,,1287.5665933000016,1007,28,female,True,12875,12882,False,False,inspiration,expiration
447,130.0,25,F,down,0.6417282999973395,0.5419384987052406,,experiment,emotion,1.0,,,,1289.0498773,1007,28,female,True,12890,12896,False,False,expiration,expiration
448,142.0,25,M,down,0.7004197999995085,0.9079865291665272,,experiment,emotion,1.0,,,,1290.8831488000033,1007,28,female,True,12908,12915,False,False,inspiration,expiration
449,154.0,25,M,down,0.4002018999999564,0.6361539366819813,,experiment,emotion,1.0,,,,1292.483074300002,1007,28,female,True,12924,12928,False,False,expiration,trough
450,118.0,25,F,down,0.5183466999988013,1.2335773450323289,,experiment,emotion,1.0,,,,1294.4162012000015,1007,28,female,True,12944,12949,False,False,expiration,expiration
451,142.0,25,M,down,0.5423652999998012,1.2565186747740775,,experiment,emotion,1.0,,,,1296.4662798999998,1007,28,female,True,12964,12969,False,False,inspiration,inspiration
452,118.0,25,F,down,0.5393752000018139,1.743119462420778,,experiment,emotion,1.0,,,,1299.0161953000024,1007,28,female,True,12990,12995,False,False,inspiration,inspiration
453,130.0,25,F,down,0.4508263000025181,1.1254716108823912,,experiment,emotion,1.0,,,,1300.9827626000006,1007,28,female,True,13009,13014,False,False,expiration,expiration
454,154.0,25,F,down,0.6048981999992975,1.9781743548151285,,experiment,emotion,1.0,,,,1303.6826652000016,1007,28,female,True,13036,13042,False,False,expiration,trough
455,142.0,25,M,down,0.5600020999991102,1.077899033396322,,experiment,emotion,1.0,,,,1305.6325942000005,1007,28,female,True,13056,13062,False,False,expiration,expiration
456,118.0,25,M,down,0.6427576999994926,1.4448997390424376,,experiment,emotion,1.0,,,,1307.9158689000033,1007,28,female,True,13079,13085,False,False,inspiration,inspiration
457,130.0,25,M,down,0.4659906999986561,1.043581587628885,,experiment,emotion,1.0,,,,1309.8657652000004,1007,28,female,True,13098,13103,False,False,expiration,expiration
458,130.0,25,F,down,0.536503300001641,0.7841080029949035,,experiment,emotion,1.0,,,,1311.3990405000004,1007,28,female,True,13113,13118,False,False,inspiration,inspiration
459,154.0,25,F,down,0.4689126999983273,0.9247651515417749,,experiment,emotion,1.0,,,,1313.1156531000015,1007,28,female,True,13131,13136,False,False,expiration,expiration
460,142.0,25,M,down,0.4169099999999162,1.6575909311956838,,experiment,emotion,1.0,,,,1315.5154592000001,1007,28,female,True,13155,13159,False,False,expiration,expiration
461,154.0,25,F,down,0.4697793000013917,0.8885188217563478,,experiment,emotion,1.0,,,,1317.0988232000018,1007,28,female,True,13170,13175,False,False,inspiration,inspiration
462,118.0,25,M,down,0.9801384000020334,0.8272748213053831,,experiment,emotion,1.0,,,,1318.6654436999995,1007,28,female,True,13186,13196,False,False,expiration,expiration
463,130.0,25,M,down,0.7155727999997907,1.309621790131517,,experiment,emotion,1.0,,,,1321.2320177,1007,28,female,True,13212,13219,False,False,peak,expiration
464,118.0,25,M,down,0.583988499998668,1.4769230321307276,,experiment,emotion,1.0,,,,1323.6985669000023,1007,28,female,True,13236,13242,False,False,inspiration,inspiration
465,118.0,25,F,down,0.4167973999974493,1.6081073642724588,,experiment,emotion,1.0,,,,1326.1651762,1007,28,female,True,13261,13265,False,False,inspiration,inspiration
466,154.0,25,F,down,0.5761222999972233,0.5340482653330022,,experiment,emotion,1.0,,,,1327.3984428000006,1007,28,female,True,13273,13279,False,False,expiration,expiration
467,142.0,25,M,up,0.4994907000000239,0.4529633199867049,,experiment,emotion,1.0,,,,1328.7150754000031,1007,28,female,True,13287,13292,False,False,expiration,inspiration
468,130.0,25,F,down,1.5526187999967078,1.9275495860853744,,experiment,emotion,1.0,,,,1331.4149525999999,1007,28,female,True,13314,13330,False,False,expiration,inspiration
469,142.0,25,F,up,1.0820246999974188,0.6508860305165138,,experiment,emotion,1.0,,,,1333.8815602000032,1007,28,female,True,13338,13349,False,False,expiration,expiration
470,154.0,25,M,up,0.5934817000015755,0.863120818362568,,experiment,emotion,1.0,,,,1336.0981217000008,1007,28,female,True,13360,13366,False,False,inspiration,inspiration
471,130.0,25,M,down,0.984857200000988,1.6145035587985668,,experiment,emotion,1.0,,,,1338.564707100002,1007,28,female,True,13385,13395,False,False,trough,inspiration
472,154.0,25,F,up,0.6785893999986001,0.5744400165742458,,experiment,emotion,1.0,,,,1340.3979577000027,1007,28,female,True,13404,13411,False,False,expiration,expiration
473,142.0,25,M,up,1.0102934000024106,0.8888089315014671,,experiment,emotion,1.0,,,,1342.2312479000032,1007,28,female,True,13422,13432,False,False,inspiration,expiration
474,118.0,25,F,down,0.8580658999999287,1.2459948179890847,,experiment,emotion,1.0,,,,1344.7644744000027,1007,28,female,True,13447,13456,False,False,inspiration,expiration
475,142.0,25,F,up,0.9541336000002048,0.9041988723718188,,experiment,emotion,1.0,,,,1346.814456400003,1007,28,female,True,13468,13478,False,False,expiration,inspiration
476,130.0,25,F,up,0.8605598999965878,0.6011984714243019,,experiment,emotion,1.0,,,,1348.6310032,1007,28,female,True,13486,13495,False,False,inspiration,expiration
477,154.0,25,M,down,0.9693418000024394,1.7508791041620428,,experiment,emotion,1.0,,,,1351.5142213,1007,28,female,True,13515,13525,False,False,inspiration,expiration
478,118.0,25,M,down,0.8403594000010344,0.6805896305238273,,experiment,emotion,1.0,,,,1353.4142004000025,1007,28,female,True,13534,13542,False,False,expiration,inspiration
479,142.0,25,F,up,0.7671951999982412,1.4766628641682529,,experiment,emotion,1.0,,,,1355.997381600002,1007,28,female,True,13559,13567,False,False,expiration,expiration
480,142.0,25,F,up,0.8888903999977629,0.8440164380643305,,experiment,emotion,1.0,,,,1357.8806674000007,1007,28,female,True,13578,13587,False,False,inspiration,peak
481,118.0,25,M,up,1.2863538999990851,1.5114506167284083,,experiment,emotion,1.0,,,,1360.5472228,1007,28,female,True,13605,13618,False,False,expiration,expiration
482,154.0,25,M,up,0.6277899999986403,1.7608148703915751,,experiment,emotion,1.0,,,,1363.8637710000005,1007,28,female,True,13638,13644,False,False,inspiration,inspiration
483,154.0,25,M,up,0.8369478000022355,0.8615379727438712,,experiment,emotion,1.0,,,,1365.6136099000032,1007,28,female,True,13656,13664,False,False,expiration,expiration
484,130.0,25,M,down,1.0629189999999653,1.1890909558210403,,experiment,emotion,1.0,,,,1367.913640900002,1007,28,female,True,13679,13690,False,False,expiration,expiration
485,130.0,25,M,up,0.8599906999988889,1.1595181944264246,,experiment,emotion,1.0,,,,1370.4135712000025,1007,28,female,True,13704,13713,False,False,inspiration,expiration
486,118.0,25,F,down,0.9751094000021112,0.5083642512273194,,experiment,emotion,1.0,,,,1372.063459800003,1007,28,female,True,13720,13730,False,False,expiration,inspiration
487,130.0,25,F,down,0.7275975000011385,1.7699744533280768,,experiment,emotion,1.0,,,,1375.0800232,1007,28,female,True,13750,13757,False,False,expiration,expiration
488,154.0,25,M,up,0.6049990000028629,1.9081998767708164,,experiment,emotion,1.0,,,,1377.9965557000035,1007,28,female,True,13779,13785,False,False,expiration,expiration
489,142.0,25,F,up,1.1506841000009445,0.485596738863528,,experiment,emotion,1.0,,,,1379.3798762000006,1007,28,female,True,13793,13805,False,False,inspiration,expiration
490,118.0,25,F,down,0.8374379999986559,1.3187835808198958,,experiment,emotion,1.0,,,,1382.1131201000023,1007,28,female,True,13821,13829,False,False,expiration,inspiration
491,118.0,25,F,up,0.8726010999998834,1.8440859673453809,,experiment,emotion,1.0,,,,1385.0629695000025,1007,28,female,True,13850,13859,False,False,expiration,inspiration
492,142.0,25,M,up,0.6477295000004233,1.003952035646223,,experiment,emotion,1.0,,,,1387.2128291000006,1007,28,female,True,13872,13878,False,False,expiration,expiration
493,130.0,25,F,down,0.8114289999975881,1.9530023595579424,,experiment,emotion,1.0,,,,1390.0961232000006,1007,28,female,True,13900,13908,False,False,expiration,expiration
494,154.0,25,F,up,0.6855403000008664,1.7576245349744442,,experiment,emotion,1.0,,,,1392.9460121000009,1007,28,female,True,13929,13936,False,False,expiration,expiration
495,118.0,25,F,down,0.9229479999994509,1.3647419055026102,,experiment,emotion,1.0,,,,1395.2626083000034,1007,28,female,True,13952,13961,False,False,inspiration,expiration
496,130.0,25,M,up,0.8574472000000242,0.5872111275161932,,experiment,emotion,1.0,,,,1397.0291180000022,1007,28,female,True,13970,13979,False,False,expiration,inspiration
497,118.0,25,M,up,1.242146000000503,1.778997257722836,,experiment,emotion,1.0,,,,1399.9624170000025,1007,28,female,True,13999,14011,False,False,expiration,inspiration
498,142.0,25,F,up,0.7772495999997773,1.975974283529694,,experiment,emotion,1.0,,,,1403.4622987000002,1007,28,female,True,14034,14042,False,False,expiration,inspiration
499,154.0,25,M,up,0.6416557000011379,0.3974944277754688,,experiment,emotion,1.0,,,,1404.9289147000018,1007,28,female,True,14049,14055,False,False,inspiration,expiration
500,130.0,25,F,up,0.5831488000003446,1.8970501285058856,,experiment,emotion,1.0,,,,1407.7454857000012,1007,28,female,True,14077,14083,False,False,inspiration,expiration
501,154.0,25,M,up,0.5127886999980547,0.5191360631715385,,experiment,emotion,1.0,,,,1409.1287537000023,1007,28,female,True,14091,14096,False,False,expiration,expiration
502,142.0,25,M,up,0.3501343999996607,0.8727509155358281,,experiment,emotion,1.0,,,,1410.7953792000005,1007,28,female,True,14108,14112,False,False,inspiration,peak
503,0.235260653229576,25,up,up,0.5435039000003599,1.216162143393449,,experiment,cRDM,2.0,,,,1426.0781196000025,1007,28,female,True,14260,14265,False,False,inspiration,expiration
504,0.235260653229576,25,up,up,0.7818039000012504,1.454602949491118,,experiment,cRDM,2.0,,,,1428.3280731000011,1007,28,female,True,14283,14291,False,False,inspiration,inspiration
505,0.235260653229576,25,down,down,0.684923600001639,1.0737069246096531,,experiment,cRDM,2.0,,,,1430.444624300002,1007,28,female,True,14304,14311,False,False,expiration,expiration
506,0.235260653229576,25,down,up,0.6770077000001038,1.795612489095178,,experiment,cRDM,2.0,,,,1433.1945368000015,1007,28,female,True,14331,14338,False,False,expiration,expiration
507,0.235260653229576,25,up,up,0.7697464999982913,0.8294318755813763,,experiment,cRDM,2.0,,,,1434.9778109000001,1007,28,female,True,14349,14357,False,False,inspiration,expiration
508,0.235260653229576,25,down,up,0.8395261000005121,1.3085061714446746,,experiment,cRDM,2.0,,,,1437.3110912000009,1007,28,female,True,14373,14381,False,False,expiration,expiration
509,0.235260653229576,25,up,up,0.8758875999992597,0.5175745118439004,,experiment,cRDM,2.0,,,,1438.9276903999996,1007,28,female,True,14389,14398,False,False,trough,inspiration
510,0.235260653229576,25,up,up,0.6362809000020206,0.4877365388788006,,experiment,cRDM,2.0,,,,1440.5442644000034,1007,28,female,True,14405,14411,False,False,expiration,expiration
511,0.235260653229576,25,down,up,0.5829871999994793,0.8750671854744119,,experiment,cRDM,2.0,,,,1442.3275519000015,1007,28,female,True,14423,14429,False,False,inspiration,inspiration
512,0.235260653229576,25,down,down,0.608502099999896,0.4663419722670753,,experiment,cRDM,2.0,,,,1443.644117900003,1007,28,female,True,14436,14442,False,False,expiration,expiration
513,0.235260653229576,25,down,down,0.6924715999994078,1.2190682827463328,,experiment,cRDM,2.0,,,,1445.7440677000013,1007,28,female,True,14457,14464,False,False,inspiration,expiration
514,0.235260653229576,25,down,down,0.7808703000009699,1.5111164233263037,,experiment,cRDM,2.0,,,,1448.2106783000015,1007,28,female,True,14482,14490,False,False,trough,inspiration
515,0.235260653229576,25,down,down,0.6280221000015445,0.5096196171535957,,experiment,cRDM,2.0,,,,1449.7605881000018,1007,28,female,True,14497,14503,False,False,expiration,expiration
516,0.235260653229576,25,down,down,0.8350554999997257,1.6145665236410838,,experiment,cRDM,2.0,,,,1452.2604954000014,1007,28,female,True,14522,14530,False,False,inspiration,expiration
517,0.235260653229576,25,up,up,0.5234221999999136,0.5207695465689183,,experiment,cRDM,2.0,,,,1453.8770941000002,1007,28,female,True,14538,14543,False,False,expiration,expiration
518,0.235260653229576,25,up,up,0.7582048000003851,0.3457663536869772,,experiment,cRDM,2.0,,,,1455.0103724,1007,28,female,True,14550,14558,False,False,inspiration,expiration
519,0.235260653229576,25,up,up,0.9582351000026392,1.3370719672276221,,experiment,cRDM,2.0,,,,1457.3602999000034,1007,28,female,True,14573,14583,False,False,expiration,inspiration
520,0.235260653229576,25,up,up,0.5583092999986548,0.9869231109267164,,experiment,cRDM,2.0,,,,1459.560222600001,1007,28,female,True,14595,14601,False,False,expiration,expiration
521,0.235260653229576,25,down,down,0.6477220999986457,1.7467947115944975,,experiment,cRDM,2.0,,,,1462.1267974000002,1007,28,female,True,14621,14627,False,False,inspiration,expiration
522,0.235260653229576,25,up,up,0.5962947000007262,1.8538931336486977,,experiment,cRDM,2.0,,,,1464.8932735000014,1007,28,female,True,14649,14655,False,False,inspiration,expiration
523,0.235260653229576,25,up,up,0.6772394999970857,0.895375226240064,,experiment,cRDM,2.0,,,,1466.6432899000029,1007,28,female,True,14666,14673,False,False,expiration,inspiration
524,0.235260653229576,25,down,down,0.5656678999985161,1.6825656820914685,,experiment,cRDM,2.0,,,,1469.259860500002,1007,28,female,True,14692,14698,False,False,expiration,expiration
525,0.235260653229576,25,up,down,1.2293929000006756,0.7668168480865944,,experiment,cRDM,2.0,,,,1470.8431556000035,1007,28,female,True,14708,14720,False,False,inspiration,expiration
526,0.235260653229576,25,down,down,0.7558252999988326,1.871594010287679,,experiment,cRDM,2.0,,,,1474.2097156000018,1007,28,female,True,14742,14750,False,False,inspiration,expiration
527,0.235260653229576,25,down,down,0.6262339000022621,0.4028695473215892,,experiment,cRDM,2.0,,,,1475.626318300001,1007,28,female,True,14756,14762,False,False,expiration,expiration
528,0.235260653229576,25,up,down,0.5729735999993864,0.6337175186020072,,experiment,cRDM,2.0,,,,1477.1595689000023,1007,28,female,True,14771,14777,False,False,inspiration,inspiration
529,0.235260653229576,25,up,down,0.9646902000022236,0.8070305573617722,,experiment,cRDM,2.0,,,,1478.7928441000006,1007,28,female,True,14788,14798,False,False,expiration,expiration
530,0.235260653229576,25,down,down,0.6491756999967038,1.5375868799435866,,experiment,cRDM,2.0,,,,1481.5594115000022,1007,28,female,True,14815,14821,False,False,expiration,expiration
531,0.235260653229576,25,up,up,0.6843044000015652,0.6496272148178399,,experiment,cRDM,2.0,,,,1483.1092179000007,1007,28,female,True,14831,14838,False,False,inspiration,inspiration
532,0.235260653229576,25,down,down,0.9058691000027466,0.4824908217894446,,experiment,cRDM,2.0,,,,1484.5426441000018,1007,28,female,True,14845,14854,False,False,expiration,expiration
533,0.235260653229576,25,down,down,0.6132933999979286,1.35133039954514,,experiment,cRDM,2.0,,,,1487.0592086000033,1007,28,female,True,14870,14876,False,False,inspiration,expiration
