,stimLvl,stimTime,rand,response,rt,precedingITI,trialNumber,trialType,stimuli,block,estIntens,estThres,estSlope,trialStart,subject,age,gender,headRest,onset,responsI,manBadOnset,manBadRespons,onset_phase,respons_phase
0,0.9,100,down,,,0.8954539266179291,,introTrial,cRDM,,,,,260.0509552000003,1008,20,female,True,2599,0,False,False,expiration,0
1,150.0,100,F,,,1.6390878114660288,,introTrial,emotion,,,,,265.66738759999856,1008,20,female,True,2655,0,False,False,inspiration,0
2,200.0,25,M,up,0.4629918000027829,1.9679250104050747,,tutorial,emotion,,,,,313.51561230000146,1008,20,female,True,3134,3139,False,False,inspiration,inspiration
3,200.0,25,F,up,0.5539666000004217,0.8223532301202023,,tutorial,emotion,,,,,315.0656063999995,1008,20,female,True,3149,3155,False,False,expiration,expiration
4,200.0,25,F,up,0.383514400000422,0.5690402834807129,,tutorial,emotion,,,,,316.4821444000008,1008,20,female,True,3163,3167,False,False,inspiration,peak
5,0.0,25,F,down,0.3668422000009741,0.6545079974108206,,tutorial,emotion,,,,,317.8654549999992,1008,20,female,True,3177,3181,False,False,expiration,expiration
6,0.0,25,M,down,0.3668234999968263,1.2385630198960678,,tutorial,emotion,,,,,319.8154111000004,1008,20,female,True,3197,3201,False,False,expiration,expiration
7,200.0,25,F,up,0.3834951999997429,0.8242234841572673,,tutorial,emotion,,,,,321.3486563000006,1008,20,female,True,3212,3216,False,False,inspiration,peak
8,0.0,25,M,down,0.4276666000005207,1.6347577616050533,,tutorial,emotion,,,,,323.6819170000017,1008,20,female,True,3235,3239,False,False,inspiration,peak
9,200.0,25,M,up,0.3668537999983528,0.7748604835399757,,tutorial,emotion,,,,,325.1651767000003,1008,20,female,True,3250,3254,False,False,expiration,inspiration
10,0.0,25,M,down,0.4497832000015478,1.5541469289548504,,tutorial,emotion,,,,,327.4317733999997,1008,20,female,True,3273,3277,False,False,expiration,inspiration
11,0.0,25,F,down,0.45656020000024,0.3426103269958564,,tutorial,emotion,,,,,328.51505700000047,1008,20,female,True,3284,3289,False,False,inspiration,expiration
12,0.9,25,up,up,0.43204809999951976,0.6541941092957967,,tutorial,cRDM,,,,,333.53153169999865,1008,20,female,True,3334,3338,False,False,trough,inspiration
13,0.9,25,up,up,0.4370553999979165,1.5853960572720884,,tutorial,cRDM,,,,,335.83144510000056,1008,20,female,True,3357,3361,False,False,expiration,inspiration
14,0.9,25,down,down,0.4002773000029265,1.7191236089698567,,tutorial,cRDM,,,,,338.26466710000017,1008,20,female,True,3381,3385,False,False,expiration,expiration
15,0.9,25,down,down,0.4298827999991772,0.4506924551817275,,tutorial,cRDM,,,,,339.4146550000005,1008,20,female,True,3393,3397,False,False,inspiration,inspiration
16,0.9,25,up,up,0.5139596000008169,1.8006202239805196,,tutorial,cRDM,,,,,341.9146225000004,1008,20,female,True,3418,3423,False,False,trough,inspiration
17,0.9,25,down,down,0.5187697999972443,1.1951263473278175,,tutorial,cRDM,,,,,343.89781059999945,1008,20,female,True,3438,3443,False,False,expiration,expiration
18,0.9,25,up,up,0.6211402000008093,1.6068402445327499,,tutorial,cRDM,,,,,346.31440189999915,1008,20,female,True,3462,3468,False,False,expiration,expiration
19,0.9,25,up,up,0.28398419999939506,0.587682373504545,,tutorial,cRDM,,,,,347.79753250000067,1008,20,female,True,3477,3480,False,False,inspiration,inspiration
20,0.9,25,down,down,0.4002360999984376,0.3822838996307207,,tutorial,cRDM,,,,,348.86431209999864,1008,20,female,True,3487,3491,False,False,expiration,expiration
21,0.9,25,down,down,0.4807006000010006,1.5587853375342131,,tutorial,cRDM,,,,,351.13087979999915,1008,20,female,True,3510,3515,False,False,inspiration,expiration
22,100.0,25,M,up,0.7004796000001079,1.9995360098074744,,psi_staircase_training,emotion,,100.0,100.0,25.00050000000001,361.2971762000016,1008,20,female,True,3611,3618,False,False,trough,inspiration
23,55.0,25,M,down,0.45978560000003205,0.7977838811556148,,psi_staircase_training,emotion,,54.742809467541896,54.742809467541896,25.00050000000011,363.1637821000004,1008,20,female,True,3630,3635,False,False,expiration,expiration
24,79.0,25,F,up,0.4630557999989833,1.4169434616376897,,psi_staircase_training,emotion,,79.636070985635,79.636070985635,25.71326925488641,365.41354889999997,1008,20,female,True,3653,3658,False,False,expiration,expiration
25,63.0,25,F,down,0.6909387999985483,0.5629636765983161,,psi_staircase_training,emotion,,62.164016703383474,62.164016703383474,25.29232598628389,366.81359710000106,1008,20,female,True,3667,3674,False,False,expiration,inspiration
26,73.0,25,M,down,0.4167713999995613,0.9200204817247276,,psi_staircase_training,emotion,,73.5393094419089,73.5393094419089,23.64975108561003,368.76356049999964,1008,20,female,True,3686,3690,False,False,expiration,expiration
27,87.0,25,F,down,0.5074070000009671,1.8209624115371863,,psi_staircase_training,emotion,,82.48355301883353,82.48355301883353,24.57617413513036,371.3801567000009,1008,20,female,True,3712,3717,False,False,expiration,expiration
28,106.0,25,M,down,0.9101206999985152,0.3927952703352402,,psi_staircase_training,emotion,,93.47321971198342,93.47321971198342,30.115701177202173,372.6634457,1008,20,female,True,3725,3734,False,False,inspiration,peak
29,122.0,25,F,up,0.5185762999972212,0.8782718076395201,,psi_staircase_training,emotion,,106.38438652375149,106.38438652375149,35.11755585279654,374.83002029999983,1008,20,female,True,3747,3752,False,False,expiration,inspiration
30,117.0,25,F,up,0.448961899997812,1.2973719292337969,,psi_staircase_training,emotion,,99.83666875700578,99.83666875700578,33.62495126514585,376.9966090000016,1008,20,female,True,3768,3772,False,False,expiration,expiration
31,113.0,25,M,up,0.4390496000014537,1.8378655359751888,,psi_staircase_training,emotion,,95.38058249628055,95.38058249628055,32.2167824305347,379.6464974000009,1008,20,female,True,3795,3799,False,False,expiration,expiration
32,74.0,25,F,down,0.5934732999994594,1.0920543101282538,,psi_staircase_training,emotion,,91.93529307222583,91.93529307222583,30.97015401731504,381.56310519999903,1008,20,female,True,3814,3820,False,False,inspiration,peak
33,115.0,25,F,up,0.5275086000001465,0.4413615630723489,,psi_staircase_training,emotion,,94.78037791698021,94.78037791698021,29.793246610682463,382.96305339999884,1008,20,female,True,3828,3833,False,False,expiration,expiration
34,73.0,25,F,down,0.4167742999998154,0.5900003491881449,,psi_staircase_training,emotion,,92.4129293759774,92.4129293759774,28.44366463350047,384.44632669999913,1008,20,female,True,3843,3847,False,False,inspiration,inspiration
35,115.0,25,M,up,0.5273254000021552,1.2082752015277969,,psi_staircase_training,emotion,,94.45542143348356,94.45542143348356,27.16372956701981,386.3962434999994,1008,20,female,True,3862,3867,False,False,expiration,inspiration
36,74.0,25,M,down,0.5410690999997314,1.3775925555582105,,psi_staircase_training,emotion,,92.69504627729988,92.69504627729988,25.79527070688094,388.62950899999845,1008,20,female,True,3885,3890,False,False,expiration,expiration
37,113.0,25,F,up,0.6788014000012481,1.2538134374507541,,psi_staircase_training,emotion,,94.29863298489973,94.29863298489973,24.503300022019115,390.7627529999992,1008,20,female,True,3906,3913,False,False,expiration,expiration
38,77.0,25,F,down,0.5287112000005436,1.181381624740054,,psi_staircase_training,emotion,,92.86467580717571,92.86467580717571,23.17521720828103,392.99582089999967,1008,20,female,True,3929,3934,False,False,inspiration,expiration
39,110.0,25,M,up,0.4769125999991957,1.3268653026610355,,psi_staircase_training,emotion,,94.2797459961788,94.2797459961788,21.94477260561659,395.21265850000054,1008,20,female,True,3951,3956,False,False,inspiration,inspiration
40,91.0,25,M,down,0.4833544000030088,0.7488353432336694,,psi_staircase_training,emotion,,93.01436233864746,93.01436233864746,20.72356389273468,396.7962239000008,1008,20,female,True,3967,3972,False,False,expiration,expiration
41,84.0,25,M,down,0.737906500002282,0.8264098484275701,,psi_staircase_training,emotion,,95.30340508591007,95.30340508591007,20.291356339449283,398.49567190000016,1008,20,female,True,3984,3991,False,False,inspiration,expiration
42,114.0,25,M,up,0.471470299999055,1.5337898690450755,,psi_staircase_training,emotion,,96.5758552194468,96.5758552194468,19.188963607730656,401.12904480000003,1008,20,female,True,4010,4015,False,False,inspiration,inspiration
43,90.0,25,F,down,0.4700000999982876,0.940416184568834,,psi_staircase_training,emotion,,95.79537560507237,95.79537560507237,18.030577421831296,402.8955462999984,1008,20,female,True,4028,4033,False,False,expiration,inspiration
44,93.0,25,F,up,0.5894593000011811,0.8053315308624167,,psi_staircase_training,emotion,,97.28684856199315,97.28684856199315,17.11036841648024,404.5121063000006,1008,20,female,True,4044,4050,False,False,expiration,expiration
45,112.0,25,F,up,0.5883586999989348,0.695759857266232,,psi_staircase_training,emotion,,94.89050165254248,94.89050165254248,18.455086674269538,406.1621871999996,1008,20,female,True,4060,4066,False,False,inspiration,inspiration
46,79.0,25,M,down,0.6624066999975184,1.3641414076974705,,psi_staircase_training,emotion,,94.27310854773873,94.27310854773873,17.472789384368895,408.4621360000019,1008,20,female,True,4083,4090,False,False,expiration,inspiration
47,110.0,25,M,up,0.6948314000001119,0.3373144382546831,,psi_staircase_training,emotion,,94.90006250179852,94.90006250179852,16.551531649199504,409.82871710000114,1008,20,female,True,4097,4104,False,False,peak,expiration
48,82.0,25,F,down,0.7499531999965257,0.4099357428253084,,psi_staircase_training,emotion,,94.34565856544808,94.34565856544808,15.713640200959134,411.2956406000012,1008,20,female,True,4112,4119,False,False,expiration,inspiration
49,85.0,25,F,down,0.5823686000003363,1.013209754785787,,psi_staircase_training,emotion,,94.96997309747108,94.96997309747108,14.913953096403636,413.4452566,1008,20,female,True,4133,4139,False,False,expiration,expiration
50,96.0,25,M,up,0.5280889999994542,1.7771001626588872,,psi_staircase_training,emotion,,95.62073171227598,95.62073171227598,14.20334103915792,416.17847999999873,1008,20,female,True,4160,4165,False,False,expiration,expiration
51,99.0,25,M,up,0.6567845999998099,1.7805461359744823,,psi_staircase_training,emotion,,94.33913900954168,94.33913900954168,13.985400902943384,418.8617274999997,1008,20,female,True,4187,4194,False,False,expiration,expiration
52,0.29,25,up,up,0.5980104000009305,1.799568457920791,,psi_staircase_training,cRDM,,0.25,0.25693124029946324,0.10500000000000002,424.5615127000019,1008,20,female,True,4244,4250,False,False,expiration,expiration
53,0.25,25,up,up,0.4584728000008909,1.8336522376236548,,psi_staircase_training,cRDM,,0.21910266653183127,0.2260132002683493,0.10468632033873933,427.2780886000001,1008,20,female,True,4271,4276,False,False,expiration,expiration
54,0.21,25,down,down,0.6121782000009262,0.30534762919035313,,psi_staircase_training,cRDM,,0.1900540959403307,0.19684979615540016,0.10294672984249993,428.3114028999989,1008,20,female,True,4282,4288,False,False,expiration,inspiration
55,0.18,25,down,up,0.5995707000001858,1.6376144679778089,,psi_staircase_training,cRDM,,0.1635257589279754,0.1701521334256793,0.100381647756865,430.8279562999997,1008,20,female,True,4307,4313,False,False,expiration,inspiration
56,0.28,25,up,up,0.6236830000016198,1.3182523352564004,,psi_staircase_training,cRDM,,0.2462894156509761,0.25367687443104303,0.11191116429293203,433.02787670000185,1008,20,female,True,4329,4335,False,False,expiration,expiration
57,0.26,25,down,down,0.4847923000015726,0.5925223428818721,,psi_staircase_training,cRDM,,0.2240209245171441,0.23127202108978026,0.10984543995477343,434.52781350000083,1008,20,female,True,4344,4349,False,False,inspiration,inspiration
58,0.23,25,up,up,0.4384620000018913,0.6710298116362765,,psi_staircase_training,cRDM,,0.2047781477371872,0.21182460465655809,0.10674539397966608,435.9610949999988,1008,20,female,True,4358,4362,False,False,expiration,expiration
59,0.23,25,down,down,0.4635476000003109,1.3835765317309583,,psi_staircase_training,cRDM,,0.1874201716315257,0.19431844658589745,0.10450061445209473,438.0609957999985,1008,20,female,True,4379,4384,False,False,expiration,expiration
60,0.21,25,down,down,0.4475410000013653,0.42621149148838056,,psi_staircase_training,cRDM,,0.17345971586379055,0.18012712878884973,0.10100333084475896,439.21098500000153,1008,20,female,True,4391,4395,False,False,expiration,trough
61,0.17,25,up,up,0.5040681000027689,1.8558933457344948,,psi_staircase_training,cRDM,,0.16045966703622236,0.16702796679355406,0.09950188490409588,441.7944735999991,1008,20,female,True,4417,4422,False,False,expiration,expiration
62,0.17,25,down,down,0.4700903999982984,1.2103187759544365,,psi_staircase_training,cRDM,,0.14444951683624788,0.15146531287032866,0.10628091824136077,443.77744940000053,1008,20,female,True,4436,4441,False,False,peak,expiration
63,0.16,25,down,up,0.5700873999994656,0.8021539450570203,,psi_staircase_training,cRDM,,0.129450188150751,0.13674374107005438,0.11048860282425356,445.3274347000006,1008,20,female,True,4452,4458,False,False,trough,inspiration
64,0.22,25,down,down,0.42621169999983977,1.3198467125657358,,psi_staircase_training,cRDM,,0.17396020279295998,0.1807572427427678,0.10296702522131353,447.4773228000013,1008,20,female,True,4473,4477,False,False,expiration,expiration
65,0.19,25,up,up,0.512905800002045,0.489324224891049,,psi_staircase_training,cRDM,,0.16555630165178742,0.1720733007365464,0.09872474107594877,448.66063260000016,1008,20,female,True,4485,4490,False,False,inspiration,expiration
66,0.16,25,up,up,0.4463586999991094,1.3172103154761226,,psi_staircase_training,cRDM,,0.15513670656628065,0.1618351803618357,0.10147386588050387,450.77720879999833,1008,20,female,True,4506,4510,False,False,inspiration,inspiration
67,0.16,25,down,up,0.4344990999998117,1.3107979413650421,,psi_staircase_training,cRDM,,0.1425517484317743,0.14989590773059094,0.11125522894300256,452.7940696000005,1008,20,female,True,4527,4531,False,False,expiration,expiration
68,0.21,25,down,down,0.4167822000017623,1.2539689704737031,,psi_staircase_training,cRDM,,0.17404574987396834,0.1800948263783671,0.09163627367111367,454.74374249999886,1008,20,female,True,4546,4550,False,False,expiration,expiration
69,0.2,25,up,up,0.4825832999995328,0.7520195269169488,,psi_staircase_training,cRDM,,0.1680826395665373,0.17382946142873199,0.08705747737200391,456.1939525999988,1008,20,female,True,4561,4566,False,False,trough,inspiration
70,0.19,25,up,up,0.446639600002527,1.6722648906562685,,psi_staircase_training,cRDM,,0.16252882532499802,0.16809079357876933,0.08425716630993302,458.6269102000005,1008,20,female,True,4585,4589,False,False,expiration,trough
71,0.16,25,up,up,0.4168155999977898,1.376011952755482,,psi_staircase_training,cRDM,,0.1565495146048565,0.1621149522710415,0.08430972375819616,460.74349960000114,1008,20,female,True,4606,4610,False,False,expiration,expiration
72,0.16,25,up,up,0.42450280000048224,1.762906483092042,,psi_staircase_training,cRDM,,0.14647356884405485,0.1528435427494219,0.0964974854666825,463.21008050000086,1008,20,female,True,4631,4635,False,False,expiration,expiration
73,0.15,25,down,down,0.5923452999995789,0.6026489091615895,,psi_staircase_training,cRDM,,0.13612237340174332,0.14321167196640538,0.10739439366243878,464.4932165999999,1008,20,female,True,4644,4650,False,False,expiration,inspiration
74,0.15,25,down,up,0.4002602000000479,0.8516396473427412,,psi_staircase_training,cRDM,,0.1255523819949334,0.13332867668823373,0.1178015632872754,466.21003049999854,1008,20,female,True,4661,4665,False,False,expiration,expiration
75,0.16,25,down,down,0.4863728000018455,1.2530937430888154,,psi_staircase_training,cRDM,,0.1521138708623854,0.15845810324089502,0.09610753212453124,468.1432538000008,1008,20,female,True,4680,4685,False,False,inspiration,expiration
76,0.15,25,up,up,0.5827347999984339,1.8421491974740687,,psi_staircase_training,cRDM,,0.14307459768950911,0.15011509864871048,0.1066551683070905,470.7598147999997,1008,20,female,True,4706,4712,False,False,inspiration,expiration
77,0.15,25,up,down,0.5897891999993591,1.0272192430056066,,psi_staircase_training,cRDM,,0.13366916717416086,0.14141796897019016,0.11738507877819257,472.65974800000185,1008,20,female,True,4725,4731,False,False,trough,inspiration
78,0.2,25,down,up,0.4002480999988621,1.8408785586422736,,psi_staircase_training,cRDM,,0.156306991950639,0.16260979097968825,0.09547986643911606,475.3596491999997,1008,20,female,True,4752,4756,False,False,trough,inspiration
79,0.23,25,down,down,0.8909583999993629,0.6152481275385151,,psi_staircase_training,cRDM,,0.17317462474825418,0.18122228839382973,0.12191247832669555,476.65961160000006,1008,20,female,True,4765,4774,False,False,expiration,expiration
80,0.23,25,up,up,0.4690327999996953,0.5309325481189685,,psi_staircase_training,cRDM,,0.16853166438883804,0.17626424221949005,0.11713930510839947,478.3595381999985,1008,20,female,True,4782,4787,False,False,inspiration,expiration
81,0.18,25,up,up,0.5033930999998121,1.2650432690352438,,psi_staircase_training,cRDM,,0.16496111253238024,0.17236428346859567,0.1121491846650902,480.37616340000017,1008,20,female,True,4802,4807,False,False,trough,inspiration
82,100.0,25,M,up,0.4005042999997386,1.0049009626850725,,psi_staircase,emotion,,100.0,100.0,25.00050000000001,503.6918908000007,1008,20,female,True,5036,5040,False,False,expiration,inspiration
83,55.0,25,M,down,0.4656433999989531,0.4831887434172665,,psi_staircase,emotion,,54.742809467541896,54.742809467541896,25.00050000000011,504.94188360000055,1008,20,female,True,5048,5053,False,False,inspiration,expiration
84,79.0,25,F,down,0.4563636000020779,1.1509700822158508,,psi_staircase,emotion,,79.636070985635,79.636070985635,25.71326925488641,506.9251747999988,1008,20,female,True,5068,5073,False,False,inspiration,peak
85,103.0,25,F,up,0.6164886000005936,1.5163746475427076,,psi_staircase,emotion,,97.61123893914808,97.61123893914808,26.1463337262867,509.2750487000012,1008,20,female,True,5091,5097,False,False,inspiration,expiration
86,87.0,25,M,down,0.5499240000026475,1.6265798501943896,,psi_staircase,emotion,,85.98876744579668,85.98876744579668,23.003056417783494,511.89162990000113,1008,20,female,True,5117,5122,False,False,inspiration,expiration
87,95.0,25,F,down,0.3668656000008923,0.7648302480954047,,psi_staircase,emotion,,95.05640406123078,95.05640406123078,22.150603223582724,513.5748877000005,1008,20,female,True,5134,5138,False,False,expiration,inspiration
88,108.0,25,M,up,0.6209941999986768,0.5604093013461949,,psi_staircase,emotion,,102.67895770092095,102.67895770092095,23.933073614491192,514.9415475999995,1008,20,female,True,5148,5154,False,False,expiration,expiration
89,105.0,25,F,up,0.5474850999999035,0.37685604437536224,,psi_staircase,emotion,,97.1551139642723,97.1551139642723,20.021669804154147,516.3081310000016,1008,20,female,True,5162,5167,False,False,inspiration,inspiration
90,92.0,25,F,down,0.3835347999993246,0.7404775558442414,,psi_staircase,emotion,,94.35050340433409,94.35050340433409,16.907117635955494,517.9747392999999,1008,20,female,True,5179,5183,False,False,expiration,expiration
91,97.0,25,M,up,0.8052585999976145,1.1042751816316974,,psi_staircase,emotion,,97.3372187693312,97.3372187693312,13.849209143469048,519.8413146999992,1008,20,female,True,5197,5205,False,False,inspiration,expiration
92,90.0,25,F,down,0.6506098999998358,0.8948378099434884,,psi_staircase,emotion,,94.50437421722592,94.50437421722592,14.319062567856994,521.9079651999999,1008,20,female,True,5218,5225,False,False,inspiration,expiration
93,99.0,25,F,up,0.7984102000009443,0.4615255219262278,,psi_staircase,emotion,,96.20389002940607,96.20389002940607,11.34697851235802,523.391148499999,1008,20,female,True,5233,5241,False,False,expiration,inspiration
94,94.0,25,F,up,1.2354408000028343,1.2178677348127025,,psi_staircase,emotion,,95.02868210239124,95.02868210239124,9.006440529278338,525.7411235000001,1008,20,female,True,5256,5268,False,False,expiration,inspiration
95,86.0,25,M,down,0.6448607999991509,1.1214072673710571,,psi_staircase,emotion,,92.5967571504136,92.5967571504136,13.319930655406107,528.4577011000001,1008,20,female,True,5283,5289,False,False,expiration,expiration
96,88.0,25,M,down,0.6135782999990624,0.3513339056562692,,psi_staircase,emotion,,93.87658957778692,93.87658957778692,10.66637682248261,529.7909559,1008,20,female,True,5296,5302,False,False,inspiration,inspiration
97,100.0,25,F,down,0.4783317000001262,1.0612378850407531,,psi_staircase,emotion,,94.63293729962037,94.63293729962037,8.665323424103173,531.8242591999988,1008,20,female,True,5317,5322,False,False,expiration,expiration
98,108.0,25,F,up,0.4670942000011564,1.576646845530305,,psi_staircase,emotion,,96.92079018081591,96.92079018081591,15.5785545855466,534.2574787999984,1008,20,female,True,5341,5346,False,False,expiration,expiration
99,107.0,25,M,up,0.540497800000594,0.5907922132283354,,psi_staircase,emotion,,96.02299402653415,96.02299402653415,13.340881328759842,535.6740663000019,1008,20,female,True,5356,5361,False,False,inspiration,inspiration
100,86.0,25,M,up,0.5061808999998902,0.4591687660080305,,psi_staircase,emotion,,95.48023995178322,95.48023995178322,11.580924129670477,537.0073833999994,1008,20,female,True,5369,5374,False,False,expiration,expiration
101,77.0,25,M,down,0.3501772000017809,0.6449303716067893,,psi_staircase,emotion,,92.8497834852026,92.8497834852026,19.427681780009838,538.5073441999994,1008,20,female,True,5384,5388,False,False,inspiration,inspiration
102,78.0,25,M,down,0.4001509999980044,1.0476789191365496,,psi_staircase,emotion,,93.68712134047512,93.68712134047512,17.518359619310484,540.3239434999996,1008,20,female,True,5402,5406,False,False,expiration,inspiration
103,109.0,25,F,up,0.5679875999994692,0.4423533420845936,,psi_staircase,emotion,,94.27760851277624,94.27760851277624,15.8871594641892,541.5405318000012,1008,20,female,True,5414,5420,False,False,inspiration,expiration
104,80.0,25,F,down,0.5824118999989878,1.053111187760071,,psi_staircase,emotion,,93.80469201080976,93.80469201080976,14.436306953352465,543.5071459999998,1008,20,female,True,5434,5440,False,False,inspiration,inspiration
105,108.0,25,F,up,0.47349069999836496,0.867872975756913,,psi_staircase,emotion,,94.25268081637465,94.25268081637465,13.148593939612727,545.3070693000009,1008,20,female,True,5452,5457,False,False,expiration,expiration
106,82.0,25,M,down,0.5839340999991691,1.7870605961243229,,psi_staircase,emotion,,93.92090572783712,93.92090572783712,12.071020632644244,547.9236364999997,1008,20,female,True,5478,5484,False,False,expiration,expiration
107,83.0,25,M,up,0.4167474999994738,1.974811016654452,,psi_staircase,emotion,,94.28138316947128,94.28138316947128,11.10703379468783,550.8401995999993,1008,20,female,True,5507,5511,False,False,expiration,expiration
108,76.0,25,F,up,0.4680908000009367,1.295200916962626,,psi_staircase,emotion,,92.60248115277813,92.60248115277813,15.752119473123456,552.9234768999995,1008,20,female,True,5528,5533,False,False,expiration,expiration
109,68.0,25,F,down,0.4398399000019708,1.4947562906171818,,psi_staircase,emotion,,90.45266970606528,90.45266970606528,22.478193364666453,555.2566962000019,1008,20,female,True,5551,5555,False,False,inspiration,peak
110,69.0,25,M,down,0.3834977999977127,1.323179360785146,,psi_staircase,emotion,,90.96590883605822,90.96590883605822,21.191262047037245,557.3732762,1008,20,female,True,5572,5576,False,False,inspiration,inspiration
111,113.0,25,M,up,0.4666228000023693,0.5684360604218359,,psi_staircase,emotion,,91.37609075667775,91.37609075667775,20.03124142095628,558.7399366999998,1008,20,female,True,5586,5591,False,False,expiration,expiration
112,71.0,25,F,down,0.5821424999994633,1.370165269952537,,psi_staircase,emotion,,90.9987758618082,90.9987758618082,18.94754808277264,560.9564011000001,1008,20,female,True,5608,5614,False,False,inspiration,expiration
113,111.0,25,M,up,0.5528257000005397,1.1400060919006538,,psi_staircase,emotion,,91.3492458436875,91.3492458436875,17.948970103673105,563.0397524,1008,20,female,True,5629,5635,False,False,inspiration,inspiration
114,72.0,25,F,down,0.445930199999566,1.675759668766832,,psi_staircase,emotion,,91.02893884751195,91.02893884751195,17.034984673577696,565.6396534000014,1008,20,female,True,5655,5659,False,False,inspiration,inspiration
115,109.0,25,M,up,0.592267100000754,1.5448168593555187,,psi_staircase,emotion,,91.31978099235229,91.31978099235229,16.219030016451747,568.0062279999984,1008,20,female,True,5679,5685,False,False,trough,inspiration
116,74.0,25,F,down,0.548104699999385,1.8026871811091498,,psi_staircase,emotion,,91.03771874150364,91.03771874150364,15.466312994732185,570.7394577000014,1008,20,female,True,5706,5711,False,False,expiration,inspiration
117,108.0,25,M,up,0.5288835999999719,0.4945786220173751,,psi_staircase,emotion,,91.3053207206005,91.3053207206005,14.793383880425269,572.1227252999997,1008,20,female,True,5720,5725,False,False,expiration,expiration
118,76.0,25,F,down,0.4707114000011643,0.9035310431394252,,psi_staircase,emotion,,91.06416508726292,91.06416508726292,14.19113746708648,573.9060372999992,1008,20,female,True,5738,5743,False,False,inspiration,inspiration
119,106.0,25,M,up,0.5458796999992046,1.1721645216244876,,psi_staircase,emotion,,91.32196601874621,91.32196601874621,13.635479675591451,575.9226072999992,1008,20,female,True,5758,5763,False,False,expiration,inspiration
120,77.0,25,M,down,0.4933445000024221,0.8059843008803074,,psi_staircase,emotion,,91.08918519451029,91.08918519451029,13.138083106735955,577.6392363000014,1008,20,female,True,5775,5780,False,False,expiration,expiration
121,78.0,25,F,down,0.528672500000539,0.3246380395037365,,psi_staircase,emotion,,91.3264603216386,91.3264603216386,12.68284201242284,578.8058378999995,1008,20,female,True,5787,5792,False,False,expiration,inspiration
122,105.0,25,F,down,0.7106473999992886,0.9882058371747328,,psi_staircase,emotion,,91.55030128618309,91.55030128618309,12.275887381909962,580.6889259000018,1008,20,female,True,5806,5813,False,False,expiration,expiration
123,110.0,25,F,up,0.6685763999994379,1.6743661026352823,,psi_staircase,emotion,,92.85005552848094,92.85005552848094,14.603005405033024,583.438994600001,1008,20,female,True,5833,5840,False,False,expiration,expiration
124,109.0,25,M,up,0.5839457000001858,1.1315606916117955,,psi_staircase,emotion,,92.63602379174914,92.63602379174914,14.125532684895413,585.6055889000017,1008,20,female,True,5855,5861,False,False,inspiration,expiration
125,78.0,25,M,down,0.4850107000020216,0.5774154878143642,,psi_staircase,emotion,,92.44085565870293,92.44085565870293,13.702929542416346,587.1055216999994,1008,20,female,True,5870,5875,False,False,expiration,inspiration
126,108.0,25,F,down,0.4980657000014617,0.3847693470018089,,psi_staircase,emotion,,92.65734064582756,92.65734064582756,13.308302302914061,588.3054712999982,1008,20,female,True,5882,5887,False,False,inspiration,expiration
127,112.0,25,F,up,0.5081614999980957,1.3448597955603718,,psi_staircase,emotion,,93.87166711091595,93.87166711091595,15.664305353319445,590.5054219000012,1008,20,female,True,5904,5909,False,False,inspiration,inspiration
128,77.0,25,F,down,0.4800417000005837,0.8937303838094071,,psi_staircase,emotion,,93.6711439394978,93.6711439394978,15.202882758048125,592.2885209000016,1008,20,female,True,5922,5927,False,False,expiration,expiration
129,111.0,25,M,up,0.5350476999992679,0.5475913583287433,,psi_staircase,emotion,,93.86513320159278,93.86513320159278,14.791122899141172,593.6884678999994,1008,20,female,True,5936,5941,False,False,inspiration,expiration
130,78.0,25,M,down,0.5007146999996621,0.7346661456585399,,psi_staircase,emotion,,93.68121973035791,93.68121973035791,14.405986903574936,595.2888190999984,1008,20,female,True,5952,5957,False,False,expiration,inspiration
131,110.0,25,M,up,0.5563847000012174,0.6039186360629273,,psi_staircase,emotion,,93.8698517642436,93.8698517642436,14.054299655383193,596.7551778999988,1008,20,female,True,5966,5972,False,False,peak,expiration
132,0.29,25,up,up,0.4545054999980493,0.8708141150567912,,psi_staircase,cRDM,,0.25,0.25693124029946324,0.10500000000000002,602.1880627999999,1008,20,female,True,6021,6026,False,False,inspiration,expiration
133,0.25,25,up,up,0.5860441000004357,1.402696974135344,,psi_staircase,cRDM,,0.21910266653183127,0.2260132002683493,0.10468632033873933,604.3215544999985,1008,20,female,True,6042,6048,False,False,inspiration,inspiration
134,0.21,25,down,down,0.6953667000016139,0.6203381509139809,,psi_staircase,cRDM,,0.1900540959403307,0.19684979615540016,0.10294672984249993,605.7881617999992,1008,20,female,True,6057,6064,False,False,expiration,expiration
135,0.18,25,down,down,0.9437856000004105,0.38848607407530894,,psi_staircase,cRDM,,0.1635257589279754,0.1701521334256793,0.100381647756865,607.1547615999989,1008,20,female,True,6070,6079,False,False,inspiration,expiration
136,0.15,25,up,up,0.6628504000000248,1.3906943095790365,,psi_staircase,cRDM,,0.14018955742449365,0.14660133511875031,0.0971307628663642,609.7547196000014,1008,20,female,True,6096,6103,False,False,inspiration,inspiration
137,0.13,25,down,down,0.6978424999979325,0.5928614607468106,,psi_staircase,cRDM,,0.11987606021454796,0.12605547676183335,0.09361076941961036,611.2877367000001,1008,20,female,True,6112,6119,False,False,expiration,expiration
138,0.11,25,up,up,0.6623685999984446,1.2141769451832094,,psi_staircase,cRDM,,0.10257735236965487,0.10849103445698656,0.08958521019937955,613.4712054000009,1008,20,female,True,6133,6140,False,False,peak,expiration
139,0.09,25,down,down,0.5224228000006406,0.8101199101491352,,psi_staircase,cRDM,,0.08784432595859408,0.09348182153209693,0.08540131486476357,615.2211601000017,1008,20,female,True,6151,6156,False,False,inspiration,inspiration
140,0.08,25,down,up,0.9475023999984842,0.4935997307273192,,psi_staircase,cRDM,,0.07518520921180863,0.0805556301471181,0.08135545354720439,616.4880292000016,1008,20,female,True,6164,6173,False,False,expiration,expiration
141,0.13,25,up,up,0.6999346000011428,1.0754480892937286,,psi_staircase,cRDM,,0.1145374077699418,0.12103712105675656,0.09846288191283688,618.7876152999997,1008,20,female,True,6187,6194,False,False,inspiration,expiration
142,0.13,25,down,down,1.0873171999992337,1.9129326572954461,,psi_staircase,cRDM,,0.1023941484636294,0.10857748278643099,0.09367011903258447,621.6542570999992,1008,20,female,True,6215,6226,False,False,peak,expiration
143,0.12,25,down,up,0.6010466000007,0.5412344729411718,,psi_staircase,cRDM,,0.093157405715179,0.09896538803474302,0.08798398514641666,623.5375114000018,1008,20,female,True,6234,6240,False,False,inspiration,inspiration
144,0.16,25,down,up,0.7677977000021201,0.9781645934246709,,psi_staircase,cRDM,,0.1290085181734406,0.136602985232638,0.11504709211675675,625.3707667000018,1008,20,female,True,6252,6260,False,False,expiration,inspiration
145,0.24,25,up,up,0.6811705000000075,0.4440362487236419,,psi_staircase,cRDM,,0.17886034241887627,0.1876178768364819,0.13266617143829193,626.8373896999982,1008,20,female,True,6267,6274,False,False,inspiration,expiration
146,0.22,25,up,up,0.7025472999994236,0.7295806758596876,,psi_staircase,cRDM,,0.16336081276155004,0.17199628496809893,0.13081707494080794,628.5040098999998,1008,20,female,True,6284,6291,False,False,expiration,inspiration
147,0.2,25,down,up,1.587328500001604,1.3645824456623918,,psi_staircase,cRDM,,0.1503833373960209,0.15886606077349932,0.12850311288503566,630.8372409000002,1008,20,female,True,6307,6323,False,False,expiration,peak
148,0.26,25,down,down,0.5673768999986349,1.1427798540944043,,psi_staircase,cRDM,,0.1990476274998964,0.2081380084305484,0.1377083979893715,633.8371477000002,1008,20,female,True,6337,6343,False,False,expiration,inspiration
149,0.25,25,up,up,0.5737807000004977,0.5827569249461126,,psi_staircase,cRDM,,0.18507812511391686,0.19404635278004093,0.13585792214070974,635.2537536999988,1008,20,female,True,6351,6357,False,False,expiration,expiration
150,0.24,25,up,up,0.5758662000007462,0.367507604470415,,psi_staircase,cRDM,,0.17363600665827847,0.18243766754797294,0.1333346347102536,636.4537060000002,1008,20,female,True,6363,6369,False,False,expiration,inspiration
151,0.19,25,up,up,0.6252242999980808,1.0818902676725966,,psi_staircase,cRDM,,0.16417352712883748,0.1727931520845906,0.1305770080463322,638.3702871999994,1008,20,female,True,6382,6388,False,False,expiration,expiration
152,0.18,25,up,up,0.6404055999992124,1.92627004261466,,psi_staircase,cRDM,,0.1523971094327324,0.161289629412107,0.1347110412412964,641.187125299999,1008,20,female,True,6411,6417,False,False,expiration,expiration
153,0.18,25,down,up,0.5494722000003094,0.5893287158135068,,psi_staircase,cRDM,,0.14155587205599374,0.1506686431235906,0.13804758178298415,642.6701223000017,1008,20,female,True,6425,6430,False,False,inspiration,inspiration
154,0.24,25,down,down,0.8605683000023419,1.6143896034331855,,psi_staircase,cRDM,,0.17459861912761654,0.1833024013196611,0.13185188951470211,645.0869901000005,1008,20,female,True,6450,6459,False,False,trough,inspiration
155,0.18,25,down,down,0.6442567000012787,1.6405428893206684,,psi_staircase,cRDM,,0.16737570967322804,0.1758539783131288,0.12843562893909688,647.8532860999985,1008,20,female,True,6477,6483,False,False,expiration,inspiration
156,0.18,25,up,up,0.6183612999993784,0.896891524862258,,psi_staircase,cRDM,,0.15680565580116473,0.16570510823996734,0.1348160597096362,649.6532193999992,1008,20,female,True,6495,6501,False,False,expiration,expiration
157,0.18,25,up,up,0.6202584999991814,1.840331233148844,,psi_staircase,cRDM,,0.14710225824853085,0.15630389310897072,0.13939376195354314,652.3863802000013,1008,20,female,True,6523,6529,False,False,inspiration,expiration
158,0.18,25,down,down,0.6708601000027556,1.6942779422812375,,psi_staircase,cRDM,,0.13840845553929682,0.14781072056888495,0.1424330690400683,654.9696872999994,1008,20,female,True,6548,6555,False,False,expiration,expiration
159,0.16,25,down,down,0.5689858000005188,0.6759444539519541,,psi_staircase,cRDM,,0.1307259235577206,0.1402481583978853,0.14425046817302214,656.5696104999988,1008,20,female,True,6564,6570,False,False,expiration,trough
160,0.16,25,up,up,0.5786914999989676,1.698268753656743,,psi_staircase,cRDM,,0.12329533134756865,0.1329583243074467,0.14638278532426033,659.1029092999997,1008,20,female,True,6590,6596,False,False,expiration,expiration
161,0.16,25,up,up,0.6104199000001245,1.4954011304452277,,psi_staircase,cRDM,,0.11664916948028295,0.1263944540543277,0.14762940484893225,661.4361269000002,1008,20,female,True,6613,6619,False,False,inspiration,inspiration
162,0.16,25,down,up,0.6742358999981661,1.0785949299953104,,psi_staircase,cRDM,,0.11071075920813404,0.12049409774941512,0.14820587693577178,663.3863074000002,1008,20,female,True,6633,6640,False,False,expiration,expiration
163,0.19,25,up,up,0.6395821000005526,1.4088150840818416,,psi_staircase,cRDM,,0.13139768318294665,0.14116215446339514,0.1479200605015075,665.7359557000018,1008,20,female,True,6656,6662,False,False,inspiration,expiration
164,0.15,25,down,down,0.6353435999990324,0.6260489146070547,,psi_staircase,cRDM,,0.12586652388718,0.13562486432689516,0.14782718559756694,667.2692400000013,1008,20,female,True,6671,6677,False,False,expiration,inspiration
165,0.15,25,up,up,0.5758072999997239,0.512870456789666,,psi_staircase,cRDM,,0.11969086213649585,0.12956468984104855,0.1495766795241999,668.6857197999998,1008,20,female,True,6686,6692,False,False,inspiration,expiration
166,0.16,25,down,down,0.616426100001263,0.4806013661256862,,psi_staircase,cRDM,,0.11404201370066558,0.12399162421281032,0.15072469841452438,669.986052799999,1008,20,female,True,6699,6705,False,False,expiration,trough
167,0.15,25,up,up,0.5678203999996185,0.4767677990907085,,psi_staircase,cRDM,,0.10909024974895846,0.11906407156723148,0.15109147074294405,671.3357426000002,1008,20,female,True,6712,6718,False,False,inspiration,expiration
168,0.15,25,down,down,0.9021665000000212,0.8862902528986896,,psi_staircase,cRDM,,0.1043419678783952,0.11434127942325252,0.15147760961213866,673.0523591000019,1008,20,female,True,6729,6738,False,False,expiration,inspiration
169,0.18,25,up,up,0.4936354000019492,1.7560316000772236,,psi_staircase,cRDM,,0.09997152089084728,0.10997871210042312,0.15159697710766612,675.9688974000019,1008,20,female,True,6758,6763,False,False,expiration,inspiration
170,0.15,25,up,up,0.5553925999993226,0.9222606490368864,,psi_staircase,cRDM,,0.096599781993414,0.10655381269295143,0.1507916589664861,677.6521790000006,1008,20,female,True,6775,6781,False,False,expiration,expiration
171,0.15,25,down,up,0.7007001999991189,0.3592903789440263,,psi_staircase,cRDM,,0.09283452382789403,0.10277694936262063,0.15061585460067434,678.8188217999996,1008,20,female,True,6787,6794,False,False,expiration,inspiration
172,0.2,25,down,down,0.4924963999983447,1.886633517549036,,psi_staircase,cRDM,,0.10735645116147932,0.11739065029501013,0.15200611485109233,681.6520582999982,1008,20,female,True,6815,6820,False,False,expiration,inspiration
173,0.14,25,down,down,0.5305743000026268,0.3961315907941235,,psi_staircase,cRDM,,0.10438553271752413,0.11435203390257342,0.15098057190589906,682.8019950000016,1008,20,female,True,6827,6832,False,False,inspiration,expiration
174,0.14,25,up,up,0.4729173000014271,0.9188523532739571,,psi_staircase,cRDM,,0.10029228327161148,0.110297551212303,0.1515678418845127,684.5186111000003,1008,20,female,True,6844,6849,False,False,expiration,inspiration
175,0.2,25,up,up,0.4986581000011938,0.9930132183764582,,psi_staircase,cRDM,,0.0964624364847514,0.10649255102940293,0.15194423821519562,686.2518745999988,1008,20,female,True,6861,6866,False,False,expiration,expiration
176,0.14,25,down,up,0.5945713000000978,0.5852293853443767,,psi_staircase,cRDM,,0.0940832793173015,0.10404347405783976,0.150885036814768,687.5849889000018,1008,20,female,True,6875,6881,False,False,trough,inspiration
177,0.14,25,down,up,0.5814528000009886,1.5890911610872045,,psi_staircase,cRDM,,0.1070656984613584,0.11697676968466265,0.15014087428588085,690.0350771999983,1008,20,female,True,6899,6905,False,False,expiration,trough
178,0.2,25,down,down,0.5145793000010599,1.9564748286492213,,psi_staircase,cRDM,,0.1203084137490558,0.13005576800050558,0.14766075798605374,692.8349554000015,1008,20,female,True,6927,6932,False,False,expiration,expiration
179,0.14,25,up,up,0.6623342000020784,0.4739403734178982,,psi_staircase,cRDM,,0.1175302868956358,0.12719816152470276,0.14645673677345167,694.0851833000015,1008,20,female,True,6940,6947,False,False,inspiration,inspiration
180,0.14,25,up,up,0.574823999999353,0.3734801533718404,,psi_staircase,cRDM,,0.11339180878610468,0.12315706758033232,0.1479319903933071,695.3847457000011,1008,20,female,True,6953,6959,False,False,expiration,expiration
181,0.13,25,up,up,0.5462168999983987,0.7195380577533363,,psi_staircase,cRDM,,0.1094950471472838,0.11933349319648436,0.14904068976602255,696.951475599999,1008,20,female,True,6968,6973,False,False,inspiration,inspiration
182,99.0,25,F,down,0.8728654000005918,1.0330379787197264,,experiment,emotion,0.0,,,,710.3176791000004,1008,20,female,True,7102,7111,False,False,inspiration,expiration
183,88.0,25,M,down,0.705671200001234,1.1672529434831675,,experiment,emotion,0.0,,,,712.6508997999989,1008,20,female,True,7125,7132,False,False,inspiration,expiration
184,95.0,25,F,up,0.9593943999971088,1.2746157653317571,,experiment,emotion,0.0,,,,714.9341553000012,1008,20,female,True,7148,7158,False,False,inspiration,expiration
185,99.0,25,M,up,0.6555246000025363,0.4226899427942095,,experiment,emotion,0.0,,,,716.5840390000012,1008,20,female,True,7165,7172,False,False,expiration,expiration
186,95.0,25,F,up,0.5402257000023383,0.31045371536497063,,experiment,emotion,0.0,,,,717.8173788999992,1008,20,female,True,7177,7182,False,False,expiration,expiration
187,91.0,25,F,down,0.7692973999983224,1.6084406132680966,,experiment,emotion,0.0,,,,720.2672730999983,1008,20,female,True,7201,7209,False,False,expiration,expiration
188,88.0,25,M,down,1.4284220000008645,1.707375033357352,,experiment,emotion,0.0,,,,723.0171344000009,1008,20,female,True,7229,7243,False,False,expiration,expiration
189,91.0,25,F,down,0.6497922999988077,0.6076789110949954,,experiment,emotion,0.0,,,,725.3337935999989,1008,20,female,True,7252,7258,False,False,inspiration,inspiration
190,99.0,25,M,up,1.5162100999987158,0.4820286027427556,,experiment,emotion,0.0,,,,726.7504208999999,1008,20,female,True,7266,7281,False,False,peak,expiration
191,91.0,25,M,down,0.6546533000000636,1.8373732556937123,,experiment,emotion,0.0,,,,730.3669097999991,1008,20,female,True,7302,7309,False,False,inspiration,expiration
192,95.0,25,F,down,0.8866654999983439,1.2429620451325605,,experiment,emotion,0.0,,,,732.5668454000006,1008,20,female,True,7324,7333,False,False,expiration,inspiration
193,99.0,25,M,up,0.6188141999991785,0.9893722084282144,,experiment,emotion,0.0,,,,734.7167549000004,1008,20,female,True,7346,7352,False,False,expiration,expiration
194,95.0,25,M,down,0.7445163000011235,0.4488710633101815,,experiment,emotion,0.0,,,,736.0500286999995,1008,20,female,True,7359,7366,False,False,inspiration,peak
195,88.0,25,M,down,0.8285848999985319,1.3176358066878353,,experiment,emotion,0.0,,,,738.3999957999986,1008,20,female,True,7383,7391,False,False,expiration,inspiration
196,91.0,25,F,down,0.6453494999987015,1.4371241665370993,,experiment,emotion,0.0,,,,740.9331759999986,1008,20,female,True,7408,7414,False,False,expiration,expiration
197,88.0,25,F,down,1.0484607999969742,1.592269009221047,,experiment,emotion,0.0,,,,743.4330981999992,1008,20,female,True,7433,7443,False,False,expiration,expiration
198,99.0,25,M,down,0.6861853000009432,1.5703460854802582,,experiment,emotion,0.0,,,,746.3163467000012,1008,20,female,True,7462,7469,False,False,peak,expiration
199,88.0,25,M,down,0.9376436000020476,0.4630124258676481,,experiment,emotion,0.0,,,,747.7329137000015,1008,20,female,True,7476,7485,False,False,expiration,inspiration
200,95.0,25,F,down,1.488079199996719,1.894236334388671,,experiment,emotion,0.0,,,,750.8494761000003,1008,20,female,True,7507,7522,False,False,expiration,expiration
201,95.0,25,F,up,1.3281534000016109,0.6317561335505597,,experiment,emotion,0.0,,,,753.2494130000014,1008,20,female,True,7531,7544,False,False,expiration,inspiration
202,91.0,25,M,down,1.0541260999998483,0.3946650147318132,,experiment,emotion,0.0,,,,755.2824245000011,1008,20,female,True,7552,7563,False,False,peak,expiration
203,91.0,25,F,down,1.0692789999993693,0.8075441259746183,,experiment,emotion,0.0,,,,757.3992728999983,1008,20,female,True,7573,7584,False,False,inspiration,expiration
204,88.0,25,M,down,1.3524046000020462,1.1781409674417678,,experiment,emotion,0.0,,,,759.949150100001,1008,20,female,True,7598,7612,False,False,inspiration,expiration
205,99.0,25,F,down,0.7440753000009863,0.7282506588975457,,experiment,emotion,0.0,,,,762.3324255000008,1008,20,female,True,7622,7629,False,False,inspiration,inspiration
206,95.0,25,F,down,0.9988808999987668,0.802333944546807,,experiment,emotion,0.0,,,,764.1656795000017,1008,20,female,True,7640,7650,False,False,expiration,inspiration
207,88.0,25,M,up,0.8682993000002172,1.9054439312075304,,experiment,emotion,0.0,,,,767.3322258000007,1008,20,female,True,7672,7681,False,False,expiration,inspiration
208,99.0,25,M,down,1.1531011999977636,1.655589735068548,,experiment,emotion,0.0,,,,770.1154258999995,1008,20,female,True,7700,7712,False,False,expiration,inspiration
209,99.0,25,F,down,0.6808894999994664,1.6025812890126443,,experiment,emotion,0.0,,,,773.1486703000011,1008,20,female,True,7730,7737,False,False,expiration,expiration
210,91.0,25,M,down,0.73939160000009,1.2514332559042038,,experiment,emotion,0.0,,,,775.3821725000017,1008,20,female,True,7753,7760,False,False,peak,expiration
211,88.0,25,F,down,0.5119305000007444,0.5848812446888458,,experiment,emotion,0.0,,,,776.9816692999992,1008,20,female,True,7769,7774,False,False,expiration,inspiration
212,91.0,25,M,down,0.5290144999999029,0.4907221261576266,,experiment,emotion,0.0,,,,778.2484817000003,1008,20,female,True,7781,7786,False,False,inspiration,expiration
213,95.0,25,F,down,0.539217200002895,1.9909136871869633,,experiment,emotion,0.0,,,,781.0653039999997,1008,20,female,True,7810,7815,False,False,inspiration,expiration
214,88.0,25,M,down,0.4858566999973846,0.3606250246989503,,experiment,emotion,0.0,,,,782.2316926999993,1008,20,female,True,7821,7826,False,False,expiration,expiration
215,99.0,25,F,down,0.9378714000013132,0.7633428374385083,,experiment,emotion,0.0,,,,783.7316062999997,1008,20,female,True,7836,7845,False,False,inspiration,expiration
216,95.0,25,M,down,0.6890149000028032,0.9042910183427509,,experiment,emotion,0.0,,,,785.8315469000007,1008,20,female,True,7857,7864,False,False,inspiration,inspiration
217,99.0,25,F,down,0.6049731000020984,1.0721405423373125,,experiment,emotion,0.0,,,,787.8646437999997,1008,20,female,True,7878,7884,False,False,expiration,trough
218,88.0,25,M,down,0.7961857999980566,1.7955855722233691,,experiment,emotion,0.0,,,,790.5313773999987,1008,20,female,True,7904,7912,False,False,expiration,expiration
219,95.0,25,F,up,0.8462304000022414,0.6361295805935023,,experiment,emotion,0.0,,,,792.2313084999988,1008,20,female,True,7921,7929,False,False,inspiration,expiration
220,91.0,25,M,down,0.7263376999981119,0.9461798102921406,,experiment,emotion,0.0,,,,794.3312215000004,1008,20,female,True,7942,7949,False,False,expiration,inspiration
221,91.0,25,F,down,0.8317601999988256,0.5403455708925046,,experiment,emotion,0.0,,,,795.8647587999985,1008,20,female,True,7958,7966,False,False,expiration,expiration
222,95.0,25,F,up,0.7254417000003741,0.6558471036394573,,experiment,emotion,0.0,,,,797.6311090000016,1008,20,female,True,7975,7982,False,False,inspiration,peak
223,99.0,25,M,up,0.6698302000004333,0.42208284542178026,,experiment,emotion,0.0,,,,799.0477142000017,1008,20,female,True,7989,7996,False,False,expiration,expiration
224,91.0,25,F,up,1.5237731999986863,0.6914095053432637,,experiment,emotion,0.0,,,,800.6808122000003,1008,20,female,True,8006,8021,False,False,inspiration,expiration
225,88.0,25,M,down,1.152019500001188,1.6802442228745456,,experiment,emotion,0.0,,,,804.197543800001,1008,20,female,True,8041,8053,False,False,expiration,trough
226,88.0,25,M,down,0.7237676000004285,0.8143704514476444,,experiment,emotion,0.0,,,,806.4307896999999,1008,20,female,True,8063,8070,False,False,inspiration,expiration
227,91.0,25,F,down,0.6157985999998346,1.2135564789775544,,experiment,emotion,0.0,,,,808.6307319000008,1008,20,female,True,8085,8091,False,False,inspiration,peak
228,99.0,25,F,up,0.6652407000001404,1.7933175983131873,,experiment,emotion,0.0,,,,811.2972751000017,1008,20,female,True,8112,8119,False,False,inspiration,expiration
229,95.0,25,M,down,0.6756134999995993,1.0618709964619322,,experiment,emotion,0.0,,,,813.3138671000015,1008,20,female,True,8132,8139,False,False,expiration,inspiration
230,88.0,25,F,down,0.6304073000028438,1.6303559866811002,,experiment,emotion,0.0,,,,815.8971152999983,1008,20,female,True,8158,8164,False,False,expiration,inspiration
231,99.0,25,M,up,0.9508227000005718,0.3565640955387196,,experiment,emotion,0.0,,,,817.1637387000011,1008,20,female,True,8170,8180,False,False,inspiration,expiration
232,95.0,25,M,up,1.0065295999993396,1.560021689759986,,experiment,emotion,0.0,,,,819.9469761,1008,20,female,True,8198,8208,False,False,inspiration,inspiration
233,95.0,25,M,up,1.1733874999990803,1.3352822554387542,,experiment,emotion,0.0,,,,822.5801480000009,1008,20,female,True,8225,8237,False,False,expiration,inspiration
234,88.0,25,M,up,0.7574361000006321,1.2053441381628789,,experiment,emotion,0.0,,,,825.2300863000019,1008,20,female,True,8251,8259,False,False,expiration,trough
235,91.0,25,M,down,0.6106027999994694,1.5874302734959138,,experiment,emotion,0.0,,,,827.8799399000017,1008,20,female,True,8278,8284,False,False,expiration,expiration
236,99.0,25,F,up,1.1905766999989282,0.554577697943442,,experiment,emotion,0.0,,,,829.3299503999988,1008,20,female,True,8292,8304,False,False,inspiration,expiration
237,91.0,25,F,down,1.8350229999996368,0.909559843058291,,experiment,emotion,0.0,,,,831.6965234000016,1008,20,female,True,8316,8334,False,False,expiration,expiration
238,91.0,25,F,up,0.6067762000020593,1.037968571912669,,experiment,emotion,0.0,,,,834.8297633000003,1008,20,female,True,8347,8353,False,False,expiration,inspiration
239,91.0,25,M,down,1.406311499998992,1.6852330108674132,,experiment,emotion,0.0,,,,837.3962939999983,1008,20,female,True,8373,8387,False,False,expiration,inspiration
240,99.0,25,F,down,0.5993263999989722,1.3728077576473807,,experiment,emotion,0.0,,,,840.4462195999986,1008,20,female,True,8403,8409,False,False,expiration,expiration
241,95.0,25,F,down,0.5077923000026203,1.2693733859755536,,experiment,emotion,0.0,,,,842.6127726000012,1008,20,female,True,8425,8430,False,False,inspiration,inspiration
242,88.0,25,F,down,0.5388497999992978,1.1529746296766874,,experiment,emotion,0.0,,,,844.5626900999997,1008,20,female,True,8444,8449,False,False,expiration,inspiration
243,88.0,25,M,down,0.7062105000004522,0.868596242422637,,experiment,emotion,0.0,,,,846.2293132999985,1008,20,female,True,8461,8468,False,False,expiration,expiration
244,95.0,25,F,down,0.4466485000011744,1.045794849667321,,experiment,emotion,0.0,,,,848.2458895000017,1008,20,female,True,8481,8485,False,False,inspiration,expiration
245,99.0,25,M,down,1.1563165000006848,0.7650280491632238,,experiment,emotion,0.0,,,,849.7291905999991,1008,20,female,True,8496,8508,False,False,expiration,inspiration
246,99.0,25,M,down,0.4913597000013397,0.7560220995913685,,experiment,emotion,0.0,,,,851.9291082999989,1008,20,female,True,8518,8523,False,False,expiration,expiration
247,88.0,25,F,down,0.9675232000008692,1.0519416706156228,,experiment,emotion,0.0,,,,853.7290299000015,1008,20,female,True,8536,8546,False,False,inspiration,expiration
248,99.0,25,M,down,0.5085597000033886,1.1669794106628946,,experiment,emotion,0.0,,,,856.1289800000012,1008,20,female,True,8560,8565,False,False,expiration,inspiration
249,91.0,25,F,down,0.8029951999997138,1.251630993963722,,experiment,emotion,0.0,,,,858.1955376000004,1008,20,female,True,8581,8589,False,False,expiration,expiration
250,95.0,25,M,down,0.7705834000007599,1.5753285668111905,,experiment,emotion,0.0,,,,860.8619379000011,1008,20,female,True,8608,8616,False,False,expiration,expiration
251,91.0,25,F,down,0.5381721000012476,1.8010578053234871,,experiment,emotion,0.0,,,,863.6953532000008,1008,20,female,True,8636,8641,False,False,expiration,expiration
252,88.0,25,M,down,0.3834984999994049,1.6725037638502491,,experiment,emotion,0.0,,,,866.1952396999986,1008,20,female,True,8661,8665,False,False,expiration,expiration
253,95.0,25,F,down,0.3836069999997562,1.9830629249181184,,experiment,emotion,0.0,,,,868.8617129000012,1008,20,female,True,8688,8692,False,False,expiration,expiration
254,91.0,25,F,down,0.33363899999676505,0.950876246143986,,experiment,emotion,0.0,,,,870.4950949999983,1008,20,female,True,8704,8707,False,False,expiration,inspiration
255,95.0,25,F,down,0.3001782999999705,0.6067395376203011,,experiment,emotion,0.0,,,,871.795060100001,1008,20,female,True,8717,8720,False,False,expiration,expiration
256,88.0,25,F,down,0.2501628999998502,0.8152457726157694,,experiment,emotion,0.0,,,,873.2950124999987,1008,20,female,True,8732,8735,False,False,expiration,inspiration
257,99.0,25,F,down,0.30018940000081784,0.659102996319538,,experiment,emotion,0.0,,,,874.6615820000006,1008,20,female,True,8745,8748,False,False,peak,expiration
258,95.0,25,M,up,0.5326246000004176,0.8553309308500388,,experiment,emotion,0.0,,,,876.1948967999997,1008,20,female,True,8761,8766,False,False,expiration,inspiration
259,99.0,25,M,up,2.1811275000000023,1.7714491145444788,,experiment,emotion,0.0,,,,878.7614444999998,1008,20,female,True,8786,8808,False,False,expiration,expiration
260,88.0,25,M,up,0.633858400000463,0.7378957506850256,,experiment,emotion,0.0,,,,881.9446671000004,1008,20,female,True,8818,8824,False,False,expiration,inspiration
261,91.0,25,M,down,0.8859515999974974,1.0633576079873788,,experiment,emotion,0.0,,,,883.9445954000003,1008,20,female,True,8838,8847,False,False,expiration,expiration
262,0.10565180028701177,25,up,up,0.7740842999992309,0.4549089372241252,,experiment,cRDM,0.0,,,,888.7944344999997,1008,20,female,True,8887,8895,False,False,inspiration,expiration
263,0.10565180028701177,25,up,up,0.522561499998119,1.7132829561646756,,experiment,cRDM,0.0,,,,891.5609604999989,1008,20,female,True,8914,8919,False,False,inspiration,expiration
264,0.10565180028701177,25,down,down,0.42864159999953705,1.20795393284008,,experiment,cRDM,0.0,,,,893.5608840999994,1008,20,female,True,8934,8938,False,False,inspiration,inspiration
265,0.10565180028701177,25,down,up,0.4830436000011105,1.5723936944412866,,experiment,cRDM,0.0,,,,895.8274818999997,1008,20,female,True,8957,8962,False,False,expiration,trough
266,0.10565180028701177,25,up,up,0.6762926000010339,1.0118749257901214,,experiment,cRDM,0.0,,,,897.5772261999991,1008,20,female,True,8975,8982,False,False,expiration,expiration
267,0.10565180028701177,25,down,up,0.6685577999996895,1.5090528648859496,,experiment,cRDM,0.0,,,,900.0439785999988,1008,20,female,True,8999,9006,False,False,inspiration,expiration
268,0.10565180028701177,25,up,up,0.7234314999986964,1.2936784252600773,,experiment,cRDM,0.0,,,,902.2771314999992,1008,20,female,True,9022,9029,False,False,inspiration,expiration
269,0.10565180028701177,25,up,down,1.347472500001459,1.2178495158650098,,experiment,cRDM,0.0,,,,904.4770715999983,1008,20,female,True,9044,9057,False,False,inspiration,expiration
270,0.10565180028701177,25,down,down,0.9996941999997944,0.5215406839465475,,experiment,cRDM,0.0,,,,906.5937965000012,1008,20,female,True,9065,9075,False,False,expiration,inspiration
271,0.10565180028701177,25,down,up,0.617878600001859,1.426993787487647,,experiment,cRDM,0.0,,,,909.2936746999983,1008,20,female,True,9092,9098,False,False,expiration,inspiration
272,0.10565180028701177,25,down,down,0.7172514000012598,0.5508546117151143,,experiment,cRDM,0.0,,,,910.710270300002,1008,20,female,True,9106,9113,False,False,inspiration,expiration
273,0.10565180028701177,25,down,up,0.6469708000004175,1.4514043891848685,,experiment,cRDM,0.0,,,,913.1435173999997,1008,20,female,True,9130,9136,False,False,inspiration,expiration
274,0.10565180028701177,25,down,up,0.6554633999985526,1.9395102400696511,,experiment,cRDM,0.0,,,,916.0100571000003,1008,20,female,True,9159,9166,False,False,peak,expiration
275,0.10565180028701177,25,down,up,0.7935456000013801,1.8884292566965888,,experiment,cRDM,0.0,,,,918.8099718000012,1008,20,female,True,9187,9195,False,False,expiration,expiration
276,0.10565180028701177,25,up,down,0.5636410000006435,0.6049494493101796,,experiment,cRDM,0.0,,,,920.4598920999997,1008,20,female,True,9203,9209,False,False,trough,inspiration
277,0.10565180028701177,25,up,up,0.5166795999975875,0.9330617957781112,,experiment,cRDM,0.0,,,,922.2098403000017,1008,20,female,True,9221,9226,False,False,expiration,expiration
278,0.10565180028701177,25,up,up,0.7834254000008514,0.9572907805868875,,experiment,cRDM,0.0,,,,923.9431184999994,1008,20,female,True,9238,9246,False,False,inspiration,expiration
279,0.10565180028701177,25,up,down,1.055458999999246,0.5929323767835544,,experiment,cRDM,0.0,,,,925.5930512999984,1008,20,female,True,9255,9266,False,False,expiration,inspiration
280,0.10565180028701177,25,down,up,1.1085640000019341,0.8837232858703543,,experiment,cRDM,0.0,,,,927.7929736000007,1008,20,female,True,9277,9288,False,False,expiration,inspiration
281,0.10565180028701177,25,up,up,0.6896765000019514,1.6845803157190782,,experiment,cRDM,0.0,,,,930.8428404000006,1008,20,female,True,9307,9314,False,False,expiration,expiration
282,0.10565180028701177,25,up,down,0.6992042999991099,1.8648887850629219,,experiment,cRDM,0.0,,,,933.6592678999988,1008,20,female,True,9336,9343,False,False,expiration,expiration
283,0.10565180028701177,25,down,up,0.6325240999976813,0.7056306833218755,,experiment,cRDM,0.0,,,,935.3260185,1008,20,female,True,9352,9358,False,False,inspiration,expiration
284,0.10565180028701177,25,up,up,0.546563600000809,1.8465107783363512,,experiment,cRDM,0.0,,,,938.075953300002,1008,20,female,True,9380,9385,False,False,inspiration,expiration
285,0.10565180028701177,25,down,down,0.6824121999998171,1.283945237284287,,experiment,cRDM,0.0,,,,940.159120100001,1008,20,female,True,9401,9408,False,False,expiration,inspiration
286,0.10565180028701177,25,down,up,0.5564311999987694,1.5991047336154889,,experiment,cRDM,0.0,,,,942.7091215,1008,20,female,True,9426,9432,False,False,expiration,inspiration
287,0.10565180028701177,25,up,up,0.6207987000016146,0.8551793514655543,,experiment,cRDM,0.0,,,,944.3757198999992,1008,20,female,True,9443,9449,False,False,expiration,expiration
288,0.10565180028701177,25,up,down,1.595243700001447,1.1790559373267535,,experiment,cRDM,0.0,,,,946.4422703000017,1008,20,female,True,9463,9479,False,False,inspiration,expiration
289,0.10565180028701177,25,down,up,0.6490449000011722,1.4260250674481851,,experiment,cRDM,0.0,,,,949.7254992999988,1008,20,female,True,9496,9502,False,False,inspiration,expiration
290,0.10565180028701177,25,up,up,0.5704177999978128,1.1650688936764992,,experiment,cRDM,0.0,,,,951.7921023000017,1008,20,female,True,9517,9523,False,False,inspiration,inspiration
291,0.10565180028701177,25,down,down,0.4975274999997055,1.679618090281202,,experiment,cRDM,0.0,,,,954.2919992999997,1008,20,female,True,9542,9547,False,False,expiration,trough
292,0.10565180028701177,25,down,up,0.675378299998556,0.5188223374987861,,experiment,cRDM,0.0,,,,955.5751349999992,1008,20,female,True,9555,9562,False,False,inspiration,expiration
293,0.10565180028701177,25,down,down,0.7596154999991995,1.3751034319579003,,experiment,cRDM,0.0,,,,957.8919133999988,1008,20,female,True,9578,9586,False,False,expiration,inspiration
294,0.10565180028701177,25,up,up,0.6007190999989689,0.8389347536316638,,experiment,cRDM,0.0,,,,959.7418006000007,1008,20,female,True,9596,9602,False,False,expiration,expiration
295,0.10565180028701177,25,up,down,0.7771095999996759,0.34313787343408697,,experiment,cRDM,0.0,,,,960.9584276999993,1008,20,female,True,9609,9617,False,False,expiration,inspiration
296,0.10565180028701177,25,up,up,0.5009135000000242,1.3265762011134108,,experiment,cRDM,0.0,,,,963.3416607,1008,20,female,True,9632,9637,False,False,expiration,expiration
297,0.10565180028701177,25,down,up,0.5209624000017357,1.8896326126164475,,experiment,cRDM,0.0,,,,965.991584800002,1008,20,female,True,9659,9664,False,False,inspiration,expiration
298,0.10565180028701177,25,down,up,0.5780349000015121,0.9192088164429804,,experiment,cRDM,0.0,,,,967.6915197999988,1008,20,female,True,9676,9682,False,False,expiration,inspiration
299,0.10565180028701177,25,up,up,0.6274013000002014,1.4152556924842807,,experiment,cRDM,0.0,,,,969.9580677000013,1008,20,female,True,9698,9704,False,False,expiration,expiration
300,0.10565180028701177,25,down,down,0.5401721000016549,0.4392150576239896,,experiment,cRDM,0.0,,,,971.2913885000016,1008,20,female,True,9712,9717,False,False,expiration,inspiration
301,0.10565180028701177,25,up,up,0.6131896000006236,1.4068786262903323,,experiment,cRDM,0.0,,,,973.491322599999,1008,20,female,True,9734,9740,False,False,expiration,expiration
302,0.10565180028701177,25,up,up,0.6346793999982765,1.8898200135764598,,experiment,cRDM,0.0,,,,976.257835299999,1008,20,female,True,9761,9767,False,False,inspiration,expiration
303,0.10565180028701177,25,up,up,0.5617917999989004,0.5104193007143735,,experiment,cRDM,0.0,,,,977.6577808000003,1008,20,female,True,9775,9781,False,False,expiration,expiration
304,0.10565180028701177,25,down,up,0.4284420000003593,1.512821866885196,,experiment,cRDM,0.0,,,,979.9910778000012,1008,20,female,True,9799,9803,False,False,expiration,expiration
305,0.10565180028701177,25,down,up,0.5124947000003885,1.113492437509093,,experiment,cRDM,0.0,,,,981.7910277000011,1008,20,female,True,9817,9822,False,False,inspiration,inspiration
306,0.10565180028701177,25,up,up,0.41677460000209976,0.6868625770702205,,experiment,cRDM,0.0,,,,983.2575768999997,1008,20,female,True,9831,9835,False,False,expiration,expiration
307,0.10565180028701177,25,down,up,0.8833400000003166,0.4495101600186613,,experiment,cRDM,0.0,,,,984.3741719999997,1008,20,female,True,9843,9852,False,False,expiration,inspiration
308,0.10565180028701177,25,down,down,0.9836109999996552,1.0594802270043755,,experiment,cRDM,0.0,,,,986.573928400001,1008,20,female,True,9865,9875,False,False,expiration,trough
309,0.10565180028701177,25,up,up,0.9653505999995105,1.7388306105538125,,experiment,cRDM,0.0,,,,989.5572285999988,1008,20,female,True,9894,9904,False,False,expiration,expiration
310,0.10565180028701177,25,up,up,0.8619092000008095,1.3675297909429225,,experiment,cRDM,0.0,,,,992.1406042999988,1008,20,female,True,9920,9929,False,False,expiration,expiration
311,0.10565180028701177,25,down,down,0.6673221999990346,0.9831929342549944,,experiment,cRDM,0.0,,,,994.2572003999994,1008,20,female,True,9941,9948,False,False,inspiration,peak
312,0.10565180028701177,25,up,down,0.6244063999984064,0.4705504063097153,,experiment,cRDM,0.0,,,,995.6571226999986,1008,20,female,True,9955,9961,False,False,expiration,expiration
313,0.10565180028701177,25,down,down,0.5439295999967726,1.1390420106465913,,experiment,cRDM,0.0,,,,997.6735891999997,1008,20,female,True,9976,9981,False,False,inspiration,expiration
314,0.10565180028701177,25,down,up,0.793188799998461,0.7445027419038872,,experiment,cRDM,0.0,,,,999.2403285,1008,20,female,True,9991,9999,False,False,expiration,inspiration
315,0.10565180028701177,25,down,up,0.8637736000018776,1.5470039215380378,,experiment,cRDM,0.0,,,,1001.8567707000003,1008,20,female,True,10018,10027,False,False,expiration,inspiration
316,0.10565180028701177,25,up,up,0.9180377999982738,1.3328846382271535,,experiment,cRDM,0.0,,,,1004.3234763,1008,20,female,True,10042,10051,False,False,expiration,expiration
317,0.10565180028701177,25,up,down,0.6434040999993158,1.0958631632293476,,experiment,cRDM,0.0,,,,1006.5900924000017,1008,20,female,True,10065,10071,False,False,inspiration,expiration
318,0.10565180028701177,25,down,down,0.5819152000003669,0.7782393951558955,,experiment,cRDM,0.0,,,,1008.2566902,1008,20,female,True,10081,10087,False,False,expiration,inspiration
319,0.10565180028701177,25,down,down,0.6082249999999476,0.6758600456720781,,experiment,cRDM,0.0,,,,1009.7732882000017,1008,20,female,True,10097,10103,False,False,expiration,expiration
320,0.10565180028701177,25,up,down,0.6280091000007815,1.7693603562663318,,experiment,cRDM,0.0,,,,1012.4065039000017,1008,20,female,True,10123,10129,False,False,peak,expiration
321,0.10565180028701177,25,up,up,0.5804023000018788,0.3281206629759142,,experiment,cRDM,0.0,,,,1013.6231455999988,1008,20,female,True,10135,10141,False,False,expiration,inspiration
322,0.10565180028701177,25,up,down,0.6663227999997616,1.088302072791962,,experiment,cRDM,0.0,,,,1015.5562343999992,1008,20,female,True,10155,10162,False,False,expiration,expiration
323,0.10565180028701177,25,up,down,0.4965214000003471,1.0305467636133905,,experiment,cRDM,0.0,,,,1017.5229892999997,1008,20,female,True,10174,10179,False,False,inspiration,inspiration
324,0.10565180028701177,25,up,down,0.5033867999991344,1.7814401593692717,,experiment,cRDM,0.0,,,,1020.0561151000003,1008,20,female,True,10200,10205,False,False,expiration,inspiration
325,0.10565180028701177,25,down,down,0.5374040000024252,0.4313966348619333,,experiment,cRDM,0.0,,,,1021.2561081999993,1008,20,female,True,10212,10217,False,False,inspiration,expiration
326,0.10565180028701177,25,down,down,0.5274002000005567,1.5575502743995011,,experiment,cRDM,0.0,,,,1023.6061096000012,1008,20,female,True,10235,10240,False,False,expiration,expiration
327,0.10565180028701177,25,up,down,0.5714547999996284,0.6074706134433809,,experiment,cRDM,0.0,,,,1025.0060672,1008,20,female,True,10249,10255,False,False,inspiration,expiration
328,0.10565180028701177,25,down,down,0.4936901000000944,1.206292274248409,,experiment,cRDM,0.0,,,,1027.055823300001,1008,20,female,True,10270,10275,False,False,expiration,inspiration
329,0.10565180028701177,25,down,down,0.523890600001323,1.0605955443196118,,experiment,cRDM,0.0,,,,1028.8726035,1008,20,female,True,10288,10293,False,False,expiration,expiration
330,0.10565180028701177,25,down,down,0.6663421999983257,1.7282012940503362,,experiment,cRDM,0.0,,,,1031.3891421000008,1008,20,female,True,10313,10320,False,False,peak,expiration
331,0.10565180028701177,25,up,down,0.4169870000005176,1.0517534942010485,,experiment,cRDM,0.0,,,,1033.3722577000008,1008,20,female,True,10333,10337,False,False,inspiration,inspiration
332,0.10565180028701177,25,down,down,0.5092081999973743,1.5702499250343054,,experiment,cRDM,0.0,,,,1035.6223327000007,1008,20,female,True,10355,10360,False,False,inspiration,expiration
333,0.10565180028701177,25,down,down,0.4490519999999377,1.16361361860667,,experiment,cRDM,0.0,,,,1037.5554445000016,1008,20,female,True,10375,10379,False,False,expiration,expiration
334,0.10565180028701177,25,down,down,0.4663086000000476,1.6103802445021358,,experiment,cRDM,0.0,,,,1039.8722020999994,1008,20,female,True,10398,10403,False,False,expiration,expiration
335,0.10565180028701177,25,up,up,0.4777745999999752,1.0467682061538492,,experiment,cRDM,0.0,,,,1041.6387590999984,1008,20,female,True,10415,10420,False,False,expiration,inspiration
336,0.10565180028701177,25,up,up,0.6691410000021278,1.4223105907450966,,experiment,cRDM,0.0,,,,1043.8053999000003,1008,20,female,True,10437,10444,False,False,expiration,expiration
337,0.10565180028701177,25,down,down,0.5585191000027407,0.328857812073047,,experiment,cRDM,0.0,,,,1045.0720026000017,1008,20,female,True,10450,10456,False,False,inspiration,inspiration
338,0.10565180028701177,25,up,up,0.4736465999994834,1.850034209675268,,experiment,cRDM,0.0,,,,1047.7218949999988,1008,20,female,True,10476,10481,False,False,expiration,inspiration
339,0.10565180028701177,25,down,down,0.38387030000012606,1.4516497388838905,,experiment,cRDM,0.0,,,,1049.9218053000004,1008,20,female,True,10498,10502,False,False,expiration,expiration
340,0.10565180028701177,25,up,up,0.5474536000001535,1.7036511755697803,,experiment,cRDM,0.0,,,,1052.3050765000007,1008,20,female,True,10522,10527,False,False,expiration,expiration
341,0.10565180028701177,25,up,up,0.5735987000007299,1.7475269271691924,,experiment,cRDM,0.0,,,,1054.8549539000014,1008,20,female,True,10547,10553,False,False,inspiration,expiration
342,99.0,25,M,up,0.6197754000022542,1.5088979883392497,,experiment,emotion,1.0,,,,1060.4547392999993,1008,20,female,True,10603,10609,False,False,inspiration,inspiration
343,88.0,25,M,up,0.752261699999508,0.7127936171509197,,experiment,emotion,1.0,,,,1062.0712480000002,1008,20,female,True,10620,10628,False,False,expiration,expiration
344,95.0,25,F,up,0.6244870000009541,1.4585631739888087,,experiment,emotion,1.0,,,,1064.5710470000013,1008,20,female,True,10645,10651,False,False,expiration,expiration
345,99.0,25,F,up,0.7786469999991823,0.8205869969751651,,experiment,emotion,1.0,,,,1066.2878625000012,1008,20,female,True,10662,10670,False,False,inspiration,expiration
346,95.0,25,M,up,0.5677663999995275,1.3899684657035245,,experiment,emotion,1.0,,,,1068.7377936000012,1008,20,female,True,10686,10692,False,False,inspiration,inspiration
347,91.0,25,F,down,0.5861026000020502,0.5793721113514843,,experiment,emotion,1.0,,,,1070.2043951000014,1008,20,female,True,10701,10707,False,False,expiration,expiration
348,88.0,25,M,down,0.8652542000018002,1.5498366456800814,,experiment,emotion,1.0,,,,1072.6043025000001,1008,20,female,True,10725,10734,False,False,expiration,expiration
349,91.0,25,M,up,0.6276685999982874,1.9216731535762157,,experiment,emotion,1.0,,,,1075.6708432000014,1008,20,female,True,10756,10762,False,False,expiration,expiration
350,99.0,25,F,up,0.581069199997728,0.7882962834508478,,experiment,emotion,1.0,,,,1077.3874380000016,1008,20,female,True,10773,10779,False,False,inspiration,expiration
351,91.0,25,F,up,0.7688070999975025,1.1782401136922491,,experiment,emotion,1.0,,,,1079.4207083,1008,20,female,True,10793,10801,False,False,expiration,inspiration
352,95.0,25,F,up,0.4861590000000433,1.6875868151859774,,experiment,emotion,1.0,,,,1082.1873101999988,1008,20,female,True,10821,10826,False,False,expiration,inspiration
353,99.0,25,F,up,0.4970624999987194,0.9240686460430608,,experiment,emotion,1.0,,,,1083.8704710999993,1008,20,female,True,10838,10843,False,False,expiration,expiration
354,95.0,25,F,up,0.42871710000326857,1.1027259865699799,,experiment,emotion,1.0,,,,1085.7538081999992,1008,20,female,True,10856,10860,False,False,inspiration,inspiration
355,88.0,25,F,down,1.0914291000008234,0.8882044077873166,,experiment,emotion,1.0,,,,1087.3871089999993,1008,20,female,True,10873,10884,False,False,expiration,inspiration
356,91.0,25,M,up,1.5654825999990862,0.4905025925716676,,experiment,emotion,1.0,,,,1089.2370265999998,1008,20,female,True,10891,10907,False,False,inspiration,expiration
357,88.0,25,M,down,0.8572505000011006,0.6997649607275327,,experiment,emotion,1.0,,,,1091.7702586999983,1008,20,female,True,10917,10926,False,False,inspiration,expiration
358,99.0,25,M,up,1.43635539999741,1.6124547711406954,,experiment,emotion,1.0,,,,1094.5201635000012,1008,20,female,True,10944,10958,False,False,inspiration,expiration
359,88.0,25,M,down,1.1630933000014918,0.3849350078586537,,experiment,emotion,1.0,,,,1096.6034158000002,1008,20,female,True,10965,10977,False,False,expiration,peak
360,95.0,25,F,up,0.6162390999998024,1.379247988322184,,experiment,emotion,1.0,,,,1099.4533051,1008,20,female,True,10993,10999,False,False,expiration,inspiration
361,95.0,25,M,up,0.6859532999988005,0.4968631591855884,,experiment,emotion,1.0,,,,1100.836598599999,1008,20,female,True,11007,11014,False,False,expiration,expiration
362,91.0,25,M,up,0.5869619999975839,0.4636649148104594,,experiment,emotion,1.0,,,,1102.2365348999992,1008,20,female,True,11021,11027,False,False,trough,inspiration
363,91.0,25,F,up,0.7563618000021961,0.7969887521026089,,experiment,emotion,1.0,,,,1103.9031474000003,1008,20,female,True,11038,11046,False,False,expiration,expiration
364,88.0,25,M,down,0.5494247999995423,1.3745963251679685,,experiment,emotion,1.0,,,,1106.3030953000016,1008,20,female,True,11062,11067,False,False,expiration,expiration
365,99.0,25,F,up,0.5578177000024879,1.094148586905234,,experiment,emotion,1.0,,,,1108.219694899999,1008,20,female,True,11081,11087,False,False,inspiration,inspiration
366,95.0,25,F,up,0.7377919999998994,1.6159262742516751,,experiment,emotion,1.0,,,,1110.6527241000003,1008,20,female,True,11106,11113,False,False,inspiration,inspiration
367,88.0,25,M,down,0.7348564000021724,0.6845516055026607,,experiment,emotion,1.0,,,,1112.3526633,1008,20,female,True,11123,11130,False,False,expiration,inspiration
368,99.0,25,M,up,0.6510869000012462,0.7707025327933736,,experiment,emotion,1.0,,,,1114.1194294000018,1008,20,female,True,11140,11147,False,False,peak,expiration
369,99.0,25,F,up,0.6709291000006488,0.9073161232261427,,experiment,emotion,1.0,,,,1115.9525766000006,1008,20,female,True,11159,11166,False,False,inspiration,expiration
370,91.0,25,M,up,0.4735332999989623,1.0675410772951293,,experiment,emotion,1.0,,,,1117.9859877999988,1008,20,female,True,11179,11184,False,False,expiration,inspiration
371,88.0,25,F,up,0.42826849999983096,0.7837937966036752,,experiment,emotion,1.0,,,,1119.519239199999,1008,20,female,True,11194,11198,False,False,expiration,expiration
372,91.0,25,F,up,0.4867295999974886,0.8670680387824172,,experiment,emotion,1.0,,,,1121.0858684000011,1008,20,female,True,11210,11215,False,False,inspiration,inspiration
373,95.0,25,F,down,0.9630458999999972,1.7487992739808216,,experiment,emotion,1.0,,,,1123.6024316000003,1008,20,female,True,11235,11245,False,False,inspiration,peak
374,88.0,25,M,down,0.5624968000010995,0.6825406223493413,,experiment,emotion,1.0,,,,1125.5190193999988,1008,20,female,True,11254,11260,False,False,expiration,expiration
375,99.0,25,M,down,0.5732906000012008,1.0446370186705176,,experiment,emotion,1.0,,,,1127.4022884000005,1008,20,female,True,11273,11279,False,False,expiration,expiration
376,95.0,25,M,down,0.4167764999983774,0.43135753257294784,,experiment,emotion,1.0,,,,1128.6689082000012,1008,20,female,True,11286,11290,False,False,expiration,inspiration
377,99.0,25,F,down,0.416791399999056,0.5547162139217319,,experiment,emotion,1.0,,,,1129.9188624000014,1008,20,female,True,11298,11302,False,False,peak,expiration
378,88.0,25,F,up,2.074363600000652,0.3017963489291936,,experiment,emotion,1.0,,,,1130.9021470000007,1008,20,female,True,11308,11329,False,False,expiration,expiration
379,95.0,25,M,up,0.6678940999991028,1.9117255277450265,,experiment,emotion,1.0,,,,1135.1686551999992,1008,20,female,True,11351,11358,False,False,inspiration,expiration
380,91.0,25,F,up,0.6199187999991409,0.7386338961128297,,experiment,emotion,1.0,,,,1136.868628600001,1008,20,female,True,11368,11374,False,False,trough,inspiration
381,91.0,25,M,down,0.4167746999992232,0.4081283349540178,,experiment,emotion,1.0,,,,1138.1685497,1008,20,female,True,11381,11385,False,False,expiration,expiration
382,95.0,25,M,down,0.4416839000004984,0.8431744911190702,,experiment,emotion,1.0,,,,1139.701852999999,1008,20,female,True,11396,11400,False,False,trough,inspiration
383,99.0,25,M,up,0.9364427999971668,1.0084938050695471,,experiment,emotion,1.0,,,,1141.4350808000015,1008,20,female,True,11413,11422,False,False,expiration,expiration
384,91.0,25,F,up,0.9272305000013148,1.0974328507123048,,experiment,emotion,1.0,,,,1143.7183431999986,1008,20,female,True,11436,11445,False,False,peak,expiration
385,88.0,25,F,down,1.2349594000006618,1.3173800672289706,,experiment,emotion,1.0,,,,1146.2515682999986,1008,20,female,True,11462,11474,False,False,inspiration,expiration
386,88.0,25,M,up,0.9843370000016876,1.5737255171491789,,experiment,emotion,1.0,,,,1149.3181829999996,1008,20,female,True,11492,11502,False,False,expiration,expiration
387,91.0,25,F,up,0.5830941000021994,0.6682152494145379,,experiment,emotion,1.0,,,,1151.2514054999992,1008,20,female,True,11512,11518,False,False,inspiration,expiration
388,99.0,25,F,up,0.6443046999993385,1.915845892477292,,experiment,emotion,1.0,,,,1154.0512869000013,1008,20,female,True,11539,11545,False,False,inspiration,inspiration
389,95.0,25,M,up,0.6926205999989179,1.976883060095996,,experiment,emotion,1.0,,,,1156.9678913999996,1008,20,female,True,11569,11576,False,False,inspiration,peak
390,88.0,25,M,down,0.6810967999990679,1.804519610343181,,experiment,emotion,1.0,,,,1159.7343938999984,1008,20,female,True,11596,11603,False,False,inspiration,inspiration
391,99.0,25,F,up,0.8951531000020623,1.0141091663126132,,experiment,emotion,1.0,,,,1161.6843556999993,1008,20,female,True,11616,11625,False,False,expiration,expiration
392,95.0,25,M,down,0.7399217999991379,1.7753449190165005,,experiment,emotion,1.0,,,,1164.6175924999989,1008,20,female,True,11645,11652,False,False,inspiration,expiration
393,95.0,25,F,down,0.7820121000004292,0.486258936513807,,experiment,emotion,1.0,,,,1166.117530399999,1008,20,female,True,11660,11668,False,False,expiration,expiration
394,88.0,25,F,down,0.7541116000029433,0.7947740519839163,,experiment,emotion,1.0,,,,1167.9673719999992,1008,20,female,True,11679,11687,False,False,inspiration,expiration
395,91.0,25,F,down,0.6855395999991742,1.9512876565514308,,experiment,emotion,1.0,,,,1170.9840102999988,1008,20,female,True,11709,11716,False,False,inspiration,inspiration
396,99.0,25,M,down,0.6789567000014358,0.527366425057313,,experiment,emotion,1.0,,,,1172.450617800001,1008,20,female,True,11723,11730,False,False,expiration,expiration
397,91.0,25,M,up,1.079425799998717,0.6596925117633958,,experiment,emotion,1.0,,,,1174.0670984999995,1008,20,female,True,11740,11751,False,False,expiration,inspiration
398,91.0,25,F,down,0.7120852999978524,1.7931140364663751,,experiment,emotion,1.0,,,,1177.2004416000016,1008,20,female,True,11771,11778,False,False,expiration,expiration
399,91.0,25,F,down,0.5337198999986867,1.5790892179454326,,experiment,emotion,1.0,,,,1179.7668684000016,1008,20,female,True,11797,11802,False,False,expiration,expiration
400,99.0,25,M,up,0.5698793000010483,0.4799200231501661,,experiment,emotion,1.0,,,,1181.0336405000016,1008,20,female,True,11809,11815,False,False,expiration,inspiration
401,95.0,25,M,down,0.4983352000017476,0.5351804697929693,,experiment,emotion,1.0,,,,1182.4502448999992,1008,20,female,True,11823,11828,False,False,peak,expiration
402,88.0,25,M,down,0.5703475999980583,0.3515076763073009,,experiment,emotion,1.0,,,,1183.6002150999993,1008,20,female,True,11835,11841,False,False,expiration,inspiration
403,88.0,25,M,down,0.5747350999990886,0.7309152731162212,,experiment,emotion,1.0,,,,1185.166774100002,1008,20,female,True,11851,11857,False,False,inspiration,expiration
404,95.0,25,M,up,0.6675066000025254,0.7499101182925458,,experiment,emotion,1.0,,,,1186.7670372999999,1008,20,female,True,11867,11874,False,False,expiration,inspiration
405,99.0,25,F,up,1.0329722999995283,0.8626292789251253,,experiment,emotion,1.0,,,,1188.5665565000018,1008,20,female,True,11885,11895,False,False,expiration,expiration
406,99.0,25,F,down,0.8628840000019409,1.5535638828176423,,experiment,emotion,1.0,,,,1191.416616800001,1008,20,female,True,11913,11922,False,False,expiration,expiration
407,88.0,25,M,down,0.5537263000005623,1.410100364500445,,experiment,emotion,1.0,,,,1193.9498077999995,1008,20,female,True,11938,11944,False,False,peak,expiration
408,99.0,25,F,up,0.8228179000034288,1.9226385232470184,,experiment,emotion,1.0,,,,1196.6997518999995,1008,20,female,True,11966,11974,False,False,expiration,expiration
409,91.0,25,F,down,0.8478784999970229,1.178908326219041,,experiment,emotion,1.0,,,,1198.999637500001,1008,20,female,True,11989,11997,False,False,inspiration,expiration
410,95.0,25,F,down,0.7480771000009554,1.3243251397430476,,experiment,emotion,1.0,,,,1201.4494168999988,1008,20,female,True,12014,12021,False,False,inspiration,peak
411,91.0,25,M,down,0.7750102999998489,0.7623516909748091,,experiment,emotion,1.0,,,,1203.2494984000004,1008,20,female,True,12032,12040,False,False,expiration,inspiration
412,88.0,25,F,down,0.8114256999979261,0.9690624434835482,,experiment,emotion,1.0,,,,1205.2660692999998,1008,20,female,True,12052,12060,False,False,expiration,expiration
413,95.0,25,F,up,0.9450945999997202,0.4386362471218035,,experiment,emotion,1.0,,,,1206.7993669999996,1008,20,female,True,12067,12076,False,False,expiration,inspiration
414,91.0,25,F,up,0.8245764999992389,1.5445622495843818,,experiment,emotion,1.0,,,,1209.565933400001,1008,20,female,True,12095,12103,False,False,expiration,inspiration
415,95.0,25,M,up,0.7443301000021165,0.5226399948356324,,experiment,emotion,1.0,,,,1211.1992044,1008,20,female,True,12111,12118,False,False,expiration,expiration
416,88.0,25,M,up,0.872617299999547,1.4426550878715156,,experiment,emotion,1.0,,,,1213.6488854999989,1008,20,female,True,12136,12145,False,False,peak,expiration
417,99.0,25,F,up,0.8324968999986595,0.6545927508563677,,experiment,emotion,1.0,,,,1215.499033,1008,20,female,True,12154,12162,False,False,inspiration,inspiration
418,95.0,25,M,up,0.7012204000020574,0.5386848163035602,,experiment,emotion,1.0,,,,1217.1323115000016,1008,20,female,True,12170,12177,False,False,expiration,expiration
419,99.0,25,F,down,0.7797554000026139,1.0552035627283654,,experiment,emotion,1.0,,,,1219.1487748,1008,20,female,True,12191,12199,False,False,inspiration,expiration
420,88.0,25,M,down,0.6189200999979221,0.9496036727500424,,experiment,emotion,1.0,,,,1221.1486517999986,1008,20,female,True,12211,12217,False,False,expiration,inspiration
421,91.0,25,M,down,0.5985279000014998,1.11946344201908,,experiment,emotion,1.0,,,,1223.182084600001,1008,20,female,True,12231,12237,False,False,expiration,expiration
422,0.10565180028701177,25,up,down,1.1711107999981325,0.5839308956587517,,experiment,cRDM,1.0,,,,1305.9623954000015,1008,20,female,True,13059,13071,True,True,expiration,expiration
423,0.10565180028701177,25,up,up,0.681278600000951,1.1353500795489992,,experiment,cRDM,1.0,,,,1308.5122653,1008,20,female,True,13084,13091,True,True,inspiration,expiration
424,0.10565180028701177,25,down,down,0.6015487000004214,1.4932807163963002,,experiment,cRDM,1.0,,,,1310.9620034000002,1008,20,female,True,13109,13115,True,True,expiration,expiration
425,0.10565180028701177,25,down,up,0.6933668000019679,0.3869835207765136,,experiment,cRDM,1.0,,,,1312.212131700002,1008,20,female,True,13121,13128,True,True,expiration,expiration
426,0.10565180028701177,25,up,up,0.820605600001727,1.7998005850158945,,experiment,cRDM,1.0,,,,1314.9618923999988,1008,20,female,True,13149,13157,True,True,inspiration,inspiration
427,0.10565180028701177,25,down,down,0.5788627000001725,1.2458586737580657,,experiment,cRDM,1.0,,,,1317.2786445999989,1008,20,female,True,13172,13178,True,True,expiration,expiration
428,0.10565180028701177,25,up,up,0.4533182999985002,1.5124919213925203,,experiment,cRDM,1.0,,,,1319.6451812000016,1008,20,female,True,13195,13200,True,True,expiration,trough
429,0.10565180028701177,25,up,up,0.7178810000004887,1.7106114361281886,,experiment,cRDM,1.0,,,,1322.0616747999993,1008,20,female,True,13220,13227,True,True,trough,inspiration
430,0.10565180028701177,25,down,down,0.4951422000012826,1.5999467953832829,,experiment,cRDM,1.0,,,,1324.6283951000005,1008,20,female,True,13246,13251,True,True,expiration,expiration
431,0.10565180028701177,25,down,up,0.7268728999988525,0.426300044428185,,experiment,cRDM,1.0,,,,1325.8116324000002,1008,20,female,True,13257,13264,True,True,expiration,expiration
432,0.10565180028701177,25,down,up,0.524291900001117,1.5603225123616744,,experiment,cRDM,1.0,,,,1328.378212399999,1008,20,female,True,13283,13288,True,True,expiration,inspiration
433,0.10565180028701177,25,down,down,0.4939544000008027,0.6932784829520338,,experiment,cRDM,1.0,,,,1329.8615501999993,1008,20,female,True,13298,13303,True,True,inspiration,inspiration
434,0.10565180028701177,25,down,up,0.878381200000149,0.6606044626293397,,experiment,cRDM,1.0,,,,1331.2781213000014,1008,20,female,True,13312,13321,True,True,inspiration,inspiration
435,0.10565180028701177,25,down,down,0.4959484999999404,1.3328565583951202,,experiment,cRDM,1.0,,,,1333.7445565000016,1008,20,female,True,13337,13342,True,True,expiration,expiration
436,0.10565180028701177,25,up,down,0.4969622000025993,1.9436262009767968,,experiment,cRDM,1.0,,,,1336.444559300002,1008,20,female,True,13363,13368,False,False,inspiration,expiration
437,0.10565180028701177,25,up,up,0.5700154000005568,1.682060619687685,,experiment,cRDM,1.0,,,,1338.8944832999987,1008,20,female,True,13388,13394,False,False,expiration,inspiration
438,0.10565180028701177,25,up,up,0.6754494000015256,1.893030727285256,,experiment,cRDM,1.0,,,,1341.6110829999998,1008,20,female,True,13415,13422,False,False,expiration,expiration
439,0.10565180028701177,25,up,up,0.6614969000002021,0.7643147869764078,,experiment,cRDM,1.0,,,,1343.3110006999996,1008,20,female,True,13432,13439,False,False,inspiration,expiration
440,0.10565180028701177,25,down,up,0.6239223000011407,1.1894489893589864,,experiment,cRDM,1.0,,,,1345.4275796000004,1008,20,female,True,13454,13460,False,False,expiration,inspiration
441,0.10565180028701177,25,up,down,0.4590630999991845,1.457145983968365,,experiment,cRDM,1.0,,,,1347.7774944000012,1008,20,female,True,13477,13482,False,False,expiration,expiration
442,0.10565180028701177,25,up,down,0.8275514000015392,1.348340371923601,,experiment,cRDM,1.0,,,,1349.8439450000005,1008,20,female,True,13498,13506,False,False,inspiration,expiration
443,0.10565180028701177,25,down,up,0.4818446999997832,0.8184268453716609,,experiment,cRDM,1.0,,,,1351.7606732999993,1008,20,female,True,13517,13522,False,False,trough,inspiration
444,0.10565180028701177,25,up,up,0.94922150000275,1.5810792689043525,,experiment,cRDM,1.0,,,,1354.0772779000001,1008,20,female,True,13540,13549,False,False,expiration,inspiration
445,0.10565180028701177,25,down,down,0.4956760000022769,0.5726004915799088,,experiment,cRDM,1.0,,,,1355.8438806999984,1008,20,female,True,13558,13563,False,False,peak,expiration
446,0.10565180028701177,25,down,up,0.7148411999987729,0.8311571753384936,,experiment,cRDM,1.0,,,,1357.4436616999992,1008,20,female,True,13574,13581,False,False,expiration,inspiration
447,0.10565180028701177,25,up,up,0.5044336000028125,1.6370992972508898,,experiment,cRDM,1.0,,,,1360.077066599999,1008,20,female,True,13600,13605,False,False,expiration,expiration
448,0.10565180028701177,25,up,down,0.5135268000012729,0.4410869230975416,,experiment,cRDM,1.0,,,,1361.2770010999993,1008,20,female,True,13612,13617,False,False,inspiration,inspiration
449,0.10565180028701177,25,down,up,0.5388810999975249,0.4365395097093542,,experiment,cRDM,1.0,,,,1362.4936190000008,1008,20,female,True,13624,13629,False,False,expiration,expiration
450,0.10565180028701177,25,up,up,0.9770107000003918,0.35240598837225345,,experiment,cRDM,1.0,,,,1363.6434683000007,1008,20,female,True,13636,13646,False,False,expiration,inspiration
451,0.10565180028701177,25,down,down,0.6726582999981474,0.8312433341442915,,experiment,cRDM,1.0,,,,1365.7268406000005,1008,20,female,True,13656,13663,False,False,expiration,expiration
452,0.10565180028701177,25,down,down,0.9254523000017798,1.3511314877803808,,experiment,cRDM,1.0,,,,1368.0100506999988,1008,20,female,True,13679,13688,False,False,expiration,expiration
453,0.10565180028701177,25,down,up,0.8958153000021412,0.38459409101336506,,experiment,cRDM,1.0,,,,1369.576686299999,1008,20,female,True,13695,13704,False,False,inspiration,inspiration
454,0.10565180028701177,25,up,down,1.2733459999981278,0.6041035143823108,,experiment,cRDM,1.0,,,,1371.3431606999984,1008,20,female,True,13713,13726,False,False,expiration,inspiration
455,0.10565180028701177,25,up,up,0.8379894999998214,0.4567163256934029,,experiment,cRDM,1.0,,,,1373.326527000001,1008,20,female,True,13732,13740,False,False,inspiration,expiration
456,0.10565180028701177,25,up,up,0.6150430999987293,0.8447651140997923,,experiment,cRDM,1.0,,,,1375.2764763999985,1008,20,female,True,13752,13758,False,False,expiration,inspiration
457,0.10565180028701177,25,down,up,0.7354188999997859,1.1393369782782732,,experiment,cRDM,1.0,,,,1377.2930702000012,1008,20,female,True,13772,13779,False,False,expiration,expiration
458,0.10565180028701177,25,down,down,0.9831760000015493,0.9449887680571571,,experiment,cRDM,1.0,,,,1379.2263257000013,1008,20,female,True,13791,13801,False,False,inspiration,expiration
459,0.10565180028701177,25,up,up,0.6748892000032356,1.100563473225534,,experiment,cRDM,1.0,,,,1381.5596122999993,1008,20,female,True,13815,13822,False,False,trough,inspiration
460,0.10565180028701177,25,down,up,0.7042954999997164,0.532153720050696,,experiment,cRDM,1.0,,,,1383.0261979999993,1008,20,female,True,13829,13836,False,False,expiration,expiration
461,0.10565180028701177,25,up,up,0.8250344000007317,1.1794301677643024,,experiment,cRDM,1.0,,,,1385.1594646999986,1008,20,female,True,13851,13859,False,False,inspiration,expiration
462,0.10565180028701177,25,up,down,0.8084885999996914,1.4291056647748277,,experiment,cRDM,1.0,,,,1387.6760293000007,1008,20,female,True,13876,13884,False,False,expiration,inspiration
463,0.10565180028701177,25,up,up,0.5019775000000664,0.5875718999130235,,experiment,cRDM,1.0,,,,1389.3425549999995,1008,20,female,True,13893,13898,False,False,expiration,expiration
464,0.10565180028701177,25,down,down,0.5180369000008795,0.3454973013063076,,experiment,cRDM,1.0,,,,1390.4424618000012,1008,20,female,True,13904,13909,False,False,expiration,expiration
465,0.10565180028701177,25,down,up,0.5566894000003231,0.9537123755543926,,experiment,cRDM,1.0,,,,1392.1758479000018,1008,20,female,True,13921,13927,False,False,inspiration,expiration
466,0.10565180028701177,25,up,up,0.8821325999997498,1.0333566275610584,,experiment,cRDM,1.0,,,,1394.0423649000006,1008,20,female,True,13940,13949,False,False,expiration,inspiration
467,0.10565180028701177,25,down,down,0.5022613000001002,1.3529613950738335,,experiment,cRDM,1.0,,,,1396.5422461000014,1008,20,female,True,13965,13970,False,False,expiration,expiration
468,0.10565180028701177,25,down,down,0.5595348999995622,0.9506426517803556,,experiment,cRDM,1.0,,,,1398.2589904999984,1008,20,female,True,13982,13988,False,False,inspiration,expiration
469,0.10565180028701177,25,up,up,0.6589241000001493,0.3942213179762845,,experiment,cRDM,1.0,,,,1399.4755799999984,1008,20,female,True,13994,14001,False,False,expiration,expiration
470,0.10565180028701177,25,up,up,0.4959858000001986,1.871815952887236,,experiment,cRDM,1.0,,,,1402.2754939000006,1008,20,female,True,14022,14027,False,False,expiration,expiration
471,0.10565180028701177,25,down,down,0.4537368999990576,0.9342172290504134,,experiment,cRDM,1.0,,,,1403.9587616999993,1008,20,female,True,14039,14044,False,False,inspiration,inspiration
472,0.10565180028701177,25,up,down,0.4954617000003054,0.6117439669648174,,experiment,cRDM,1.0,,,,1405.2920484999993,1008,20,female,True,14052,14057,False,False,expiration,expiration
473,0.10565180028701177,25,down,down,0.7148299000000407,0.9097291798783236,,experiment,cRDM,1.0,,,,1406.9586676,1008,20,female,True,14069,14076,False,False,inspiration,inspiration
474,0.10565180028701177,25,down,down,0.4889149999980873,0.7665654918454958,,experiment,cRDM,1.0,,,,1408.7085852999992,1008,20,female,True,14086,14091,False,False,expiration,expiration
475,0.10565180028701177,25,down,down,0.4637673999968683,1.7791184889667448,,experiment,cRDM,1.0,,,,1411.2417361000007,1008,20,female,True,14112,14117,False,False,inspiration,expiration
476,0.10565180028701177,25,up,up,0.5124305999997887,1.1096379592913277,,experiment,cRDM,1.0,,,,1413.0750937000012,1008,20,female,True,14130,14135,False,False,expiration,inspiration
477,0.10565180028701177,25,up,up,0.441161300001113,1.7986805783214874,,experiment,cRDM,1.0,,,,1415.6583637000006,1008,20,female,True,14156,14160,False,False,expiration,expiration
478,0.10565180028701177,25,down,down,0.6078640999985511,0.6308352157573454,,experiment,cRDM,1.0,,,,1416.9916362000006,1008,20,female,True,14169,14175,False,False,expiration,inspiration
479,0.10565180028701177,25,down,down,0.9351563999989594,1.7825146029797008,,experiment,cRDM,1.0,,,,1419.6413452999984,1008,20,female,True,14196,14205,False,False,expiration,inspiration
480,0.10565180028701177,25,up,up,0.7132504000001063,1.6153131128945846,,experiment,cRDM,1.0,,,,1422.4412445000016,1008,20,female,True,14224,14231,False,False,expiration,expiration
481,0.10565180028701177,25,up,up,0.615852700000687,1.8539281716556688,,experiment,cRDM,1.0,,,,1425.2746365999994,1008,20,female,True,14252,14258,False,False,expiration,expiration
482,0.10565180028701177,25,up,down,1.2699544000024616,1.1741816869385064,,experiment,cRDM,1.0,,,,1427.3245457000012,1008,20,female,True,14272,14285,False,False,inspiration,expiration
483,0.10565180028701177,25,up,up,0.8523736999995892,1.1318694185430822,,experiment,cRDM,1.0,,,,1429.9911266000015,1008,20,female,True,14299,14308,False,False,expiration,inspiration
484,0.10565180028701177,25,up,down,0.8970937000012782,0.4188455212448949,,experiment,cRDM,1.0,,,,1431.5243932999986,1008,20,female,True,14314,14323,False,False,inspiration,expiration
485,0.10565180028701177,25,down,down,0.9282052000016848,1.6395245286772409,,experiment,cRDM,1.0,,,,1434.3242840999994,1008,20,female,True,14342,14351,False,False,peak,expiration
486,0.10565180028701177,25,down,up,0.7553097999989404,1.8530608379935616,,experiment,cRDM,1.0,,,,1437.3741916,1008,20,female,True,14373,14381,False,False,expiration,expiration
487,0.10565180028701177,25,up,up,0.7274114000028931,1.4793133829674985,,experiment,cRDM,1.0,,,,1439.8741125000015,1008,20,female,True,14398,14405,False,False,inspiration,inspiration
488,0.10565180028701177,25,down,down,0.6497930999976234,1.034801666180323,,experiment,cRDM,1.0,,,,1441.8907190999996,1008,20,female,True,14418,14424,False,False,expiration,expiration
489,0.10565180028701177,25,down,up,1.3302207000015187,0.9597783612415716,,experiment,cRDM,1.0,,,,1443.7573153000012,1008,20,female,True,14437,14450,False,False,inspiration,expiration
490,0.10565180028701177,25,down,down,0.5213085000032152,0.6594701172359059,,experiment,cRDM,1.0,,,,1446.007203000001,1008,20,female,True,14459,14464,False,False,trough,inspiration
491,0.10565180028701177,25,up,down,0.7206650000007357,0.5802739104435708,,experiment,cRDM,1.0,,,,1447.3738187000015,1008,20,female,True,14473,14480,False,False,expiration,expiration
492,0.10565180028701177,25,down,down,0.7083883999985119,0.6367833383830777,,experiment,cRDM,1.0,,,,1449.0071085999991,1008,20,female,True,14489,14496,False,False,expiration,expiration
493,0.10565180028701177,25,down,down,0.6412028999984614,1.4125430848909504,,experiment,cRDM,1.0,,,,1451.390336299999,1008,20,female,True,14513,14519,False,False,expiration,expiration
494,0.10565180028701177,25,down,down,0.5699124999991909,0.3301034489883193,,experiment,cRDM,1.0,,,,1452.6236356000006,1008,20,female,True,14525,14531,False,False,expiration,inspiration
495,0.10565180028701177,25,up,down,0.5793904999991355,1.7885162934625118,,experiment,cRDM,1.0,,,,1455.2401117000006,1008,20,female,True,14552,14558,False,False,expiration,expiration
496,0.10565180028701177,25,up,down,0.7386165000025358,0.6681644431841764,,experiment,cRDM,1.0,,,,1456.7568767000012,1008,20,female,True,14567,14574,False,False,inspiration,inspiration
497,0.10565180028701177,25,down,down,0.676148499998817,1.675705506949318,,experiment,cRDM,1.0,,,,1459.4233552000005,1008,20,female,True,14593,14600,False,True,expiration,inspiration
498,0.10565180028701177,25,up,down,0.6576056999983848,0.4735658820015661,,experiment,cRDM,1.0,,,,1460.8399199000016,1008,20,female,True,14608,14615,True,True,peak,expiration
499,0.10565180028701177,25,down,up,1.1149494000019329,1.8453022728094557,,experiment,cRDM,1.0,,,,1463.6065468000015,1008,20,female,True,14635,14646,True,True,inspiration,expiration
500,0.10565180028701177,25,up,down,0.5804089999983262,1.4491958226403612,,experiment,cRDM,1.0,,,,1466.4231091,1008,20,female,True,14663,14669,True,True,expiration,expiration
501,0.10565180028701177,25,up,up,0.5477925000013784,1.42460424245135,,experiment,cRDM,1.0,,,,1468.689703600001,1008,20,female,True,14686,14691,True,False,trough,inspiration
502,99.0,25,M,up,1.008166399999027,0.6257252939786173,,experiment,emotion,2.0,,,,1507.23833,1008,20,female,True,15072,15082,False,False,inspiration,inspiration
503,88.0,25,M,up,0.9519757000016398,1.6886011039795852,,experiment,emotion,2.0,,,,1510.2215093999985,1008,20,female,True,15102,15112,False,False,expiration,expiration
504,95.0,25,F,up,0.6597957000012684,1.9177099156812,,experiment,emotion,2.0,,,,1513.4047392999998,1008,20,female,True,15133,15140,False,False,inspiration,expiration
505,99.0,25,F,up,0.4771665999978722,1.5398674858009092,,experiment,emotion,2.0,,,,1515.8713286999994,1008,20,female,True,15158,15163,False,False,expiration,expiration
506,95.0,25,M,up,0.5062918999974501,0.941366383147348,,experiment,emotion,2.0,,,,1517.5712560999998,1008,20,female,True,15175,15180,False,False,inspiration,expiration
507,91.0,25,F,up,0.5933263000006264,0.6081802016181977,,experiment,emotion,2.0,,,,1518.9711854999987,1008,20,female,True,15189,15195,False,False,expiration,expiration
508,88.0,25,M,up,0.8814261999978044,0.9318807630795588,,experiment,emotion,2.0,,,,1520.7711315999984,1008,20,female,True,15207,15216,False,False,inspiration,expiration
509,91.0,25,M,up,0.6691132999985712,0.9946834858215532,,experiment,emotion,2.0,,,,1522.9043912999987,1008,20,female,True,15228,15235,False,False,expiration,expiration
510,99.0,25,F,up,0.5947659999983443,1.5732013291716092,,experiment,emotion,2.0,,,,1525.4207270000006,1008,20,female,True,15254,15260,False,False,inspiration,expiration
511,91.0,25,F,up,0.5817080999986501,1.5780035423865333,,experiment,emotion,2.0,,,,1527.8708613999988,1008,20,female,True,15278,15284,False,False,trough,inspiration
512,95.0,25,F,up,0.5333581999984744,0.6978045472564105,,experiment,emotion,2.0,,,,1529.4541651,1008,20,female,True,15294,15299,False,False,expiration,expiration
513,99.0,25,F,up,0.5421195999988413,1.340696687395877,,experiment,emotion,2.0,,,,1531.5873904,1008,20,female,True,15315,15320,False,False,inspiration,expiration
514,95.0,25,F,up,0.4611593000008725,1.5830301303452932,,experiment,emotion,2.0,,,,1533.9873377000006,1008,20,female,True,15339,15344,False,False,inspiration,inspiration
515,88.0,25,F,up,0.4549492000005557,1.915536400103811,,experiment,emotion,2.0,,,,1536.6705503000012,1008,20,female,True,15366,15371,False,False,expiration,inspiration
516,91.0,25,M,up,0.5895964000010281,1.5497634146546175,,experiment,emotion,2.0,,,,1538.9369017999998,1008,20,female,True,15389,15395,False,False,expiration,expiration
517,88.0,25,M,up,0.5611520999991626,1.632215656997328,,experiment,emotion,2.0,,,,1541.4203516000016,1008,20,female,True,15413,15419,False,False,expiration,expiration
518,99.0,25,M,up,0.4711906000011368,1.0197639043248432,,experiment,emotion,2.0,,,,1543.2702933,1008,20,female,True,15432,15437,False,False,trough,inspiration
519,88.0,25,M,up,0.4812620000011521,0.8503482065911194,,experiment,emotion,2.0,,,,1544.8702325000013,1008,20,female,True,15448,15453,False,False,expiration,expiration
520,95.0,25,F,up,0.621667499999603,1.7241353612206356,,experiment,emotion,2.0,,,,1547.3868546000012,1008,20,female,True,15473,15479,False,False,inspiration,expiration
521,95.0,25,M,up,0.4808673999978055,0.5638166435125911,,experiment,emotion,2.0,,,,1548.8366271000016,1008,20,female,True,15488,15493,False,False,expiration,expiration
522,91.0,25,M,up,0.5525639999978011,0.8512798856420485,,experiment,emotion,2.0,,,,1550.4700216000022,1008,20,female,True,15504,15510,False,False,inspiration,peak
523,91.0,25,F,up,0.7245894000006956,1.922983907122055,,experiment,emotion,2.0,,,,1553.2199072000005,1008,20,female,True,15532,15539,False,False,inspiration,inspiration
524,88.0,25,M,up,0.7017232999969565,1.7877413928050614,,experiment,emotion,2.0,,,,1556.0197967999993,1008,20,female,True,15560,15567,False,False,trough,inspiration
525,99.0,25,F,up,0.6647716999978002,1.0225196842292823,,experiment,emotion,2.0,,,,1558.0197421000012,1008,20,female,True,15579,15586,False,False,expiration,expiration
526,95.0,25,F,up,0.4743878000008408,0.974481755807066,,experiment,emotion,2.0,,,,1559.936170500001,1008,20,female,True,15599,15604,False,False,inspiration,expiration
527,88.0,25,M,up,0.9705476999988604,1.2644674715765691,,experiment,emotion,2.0,,,,1561.9529356999994,1008,20,female,True,15619,15629,False,False,trough,inspiration
528,99.0,25,M,up,0.6084848999998941,0.8413282504499744,,experiment,emotion,2.0,,,,1564.0360207999984,1008,20,female,True,15640,15646,False,False,expiration,expiration
529,99.0,25,F,up,0.647052000000258,1.3887714805509055,,experiment,emotion,2.0,,,,1566.3194441000014,1008,20,female,True,15662,15668,False,False,peak,expiration
530,91.0,25,M,down,1.3024188999988835,0.5976317544089618,,experiment,emotion,2.0,,,,1567.8860825000008,1008,20,female,True,15678,15691,False,False,expiration,inspiration
531,88.0,25,F,up,0.5808407000004081,0.6924235299779669,,experiment,emotion,2.0,,,,1570.1526525000006,1008,20,female,True,15701,15707,False,False,inspiration,inspiration
532,91.0,25,F,up,0.9776764000016556,1.86898656137026,,experiment,emotion,2.0,,,,1572.8858876999984,1008,20,female,True,15728,15738,False,False,expiration,inspiration
533,95.0,25,F,up,0.8080459999982851,0.8228204220014517,,experiment,emotion,2.0,,,,1575.0024620000006,1008,20,female,True,15749,15757,False,False,inspiration,expiration
534,88.0,25,M,down,1.1881095999997342,1.2639606508938774,,experiment,emotion,2.0,,,,1577.3523839000006,1008,20,female,True,15773,15785,False,False,expiration,inspiration
535,99.0,25,M,up,1.281031599999551,1.8996203505047904,,experiment,emotion,2.0,,,,1580.7354579999994,1008,20,female,True,15807,15820,False,False,inspiration,expiration
