,stimLvl,stimTime,rand,response,rt,precedingITI,trialNumber,trialType,stimuli,block,estIntens,estThres,estSlope,trialStart,subject,age,gender,headRest,onset,responsI,manBadOnset,manBadRespons,onset_phase,respons_phase
0,150.0,100,F,,,0.3649101133612674,,introTrial,emotion,,,,,340.80980429999914,1009,20,female,True,3407,0,False,False,inspiration,0
1,0.9,100,down,,,1.7454981136062742,,introTrial,cRDM,,,,,346.47616009999916,1009,20,female,True,3464,0,False,False,expiration,0
2,200.0,25,F,up,0.7712972999979684,1.1739337169868298,,tutorial,emotion,,,,,397.7910531999987,1009,20,female,True,3977,3985,False,False,inspiration,peak
3,200.0,25,M,up,0.46210240000073105,1.835574858857944,,tutorial,emotion,,,,,400.67428419999845,1009,20,female,True,4006,4011,False,False,inspiration,expiration
4,200.0,25,F,up,0.3835311999973783,1.9385780146051992,,tutorial,emotion,,,,,403.35746329999887,1009,20,female,True,4033,4037,False,False,peak,expiration
5,0.0,25,M,down,0.5685701000002155,1.9816640475608005,,tutorial,emotion,,,,,406.0907651999987,1009,20,female,True,4060,4066,False,False,expiration,expiration
6,0.0,25,F,down,0.8715349999984028,0.3384677132939593,,tutorial,emotion,,,,,407.2738272999995,1009,20,female,True,4072,4081,False,False,expiration,inspiration
7,200.0,25,M,down,0.5438164000006509,1.8092592541053265,,tutorial,emotion,,,,,410.2405786999989,1009,20,female,True,4101,4106,False,False,expiration,expiration
8,0.0,25,M,down,0.7081369000006816,0.34859773092797125,,tutorial,emotion,,,,,411.40721159999885,1009,20,female,True,4113,4120,False,False,expiration,expiration
9,200.0,25,F,up,0.5907331000016711,1.3714229810433234,,tutorial,emotion,,,,,413.7736140999986,1009,20,female,True,4137,4143,False,False,expiration,expiration
10,0.0,25,M,down,0.5663697999989381,0.5236253020427054,,tutorial,emotion,,,,,415.15701119999716,1009,20,female,True,4151,4157,False,False,inspiration,peak
11,0.0,25,F,down,0.5859909999999218,1.976511829762304,,tutorial,emotion,,,,,417.9903331999994,1009,20,female,True,4179,4185,False,False,peak,expiration
12,0.9,25,up,up,0.4202858999997261,0.6717331968286413,,tutorial,cRDM,,,,,428.0730758999998,1009,20,female,True,4280,4284,False,False,expiration,expiration
13,0.9,25,up,up,0.36723619999975204,0.3070157188631253,,tutorial,cRDM,,,,,429.0731409999971,1009,20,female,True,4290,4294,False,False,inspiration,inspiration
14,0.9,25,down,down,0.42420059999858495,0.7609384870236041,,tutorial,cRDM,,,,,430.5231695999974,1009,20,female,True,4304,4308,False,False,expiration,expiration
15,0.9,25,down,down,0.5536250000004657,1.6245838181361043,,tutorial,cRDM,,,,,432.839746499998,1009,20,female,True,4327,4333,False,False,inspiration,expiration
16,0.9,25,up,up,0.3838369000004605,1.6487968973891032,,tutorial,cRDM,,,,,435.3063264999983,1009,20,female,True,4352,4356,False,False,inspiration,expiration
17,0.9,25,down,down,0.4720613999998022,1.3991542379474091,,tutorial,cRDM,,,,,437.4062691999969,1009,20,female,True,4373,4378,False,False,inspiration,expiration
18,0.9,25,up,up,0.7164927000012541,1.2743699097138126,,tutorial,cRDM,,,,,439.42285119999724,1009,20,female,True,4393,4400,False,False,inspiration,expiration
19,0.9,25,up,up,0.4945843999994395,1.7981251660883466,,tutorial,cRDM,,,,,442.222735299998,1009,20,female,True,4421,4426,False,False,peak,expiration
20,0.9,25,down,down,0.4463758999991114,0.9770294503629504,,tutorial,cRDM,,,,,443.95598999999856,1009,20,female,True,4438,4442,False,False,inspiration,inspiration
21,0.9,25,down,down,0.5360086000000592,1.085873767936739,,tutorial,cRDM,,,,,445.7392896999992,1009,20,female,True,4456,4461,False,False,trough,inspiration
22,100.0,25,M,up,0.3834525999991456,1.7863891402917933,,psi_staircase_training,emotion,,100.0,100.0,25.00050000000001,457.6055264999995,1009,20,female,True,4575,4579,False,False,inspiration,inspiration
23,55.0,25,M,down,0.6302433999990171,1.2855096693751833,,psi_staircase_training,emotion,,54.742809467541896,54.742809467541896,25.00050000000011,459.67209319999887,1009,20,female,True,4596,4602,False,False,expiration,inspiration
24,79.0,25,F,down,0.5503377999993972,1.580078730762987,,psi_staircase_training,emotion,,79.636070985635,79.636070985635,25.71326925488641,462.22202639999887,1009,20,female,True,4621,4627,False,False,expiration,expiration
25,103.0,25,F,down,0.4647724000024027,1.880552375949632,,psi_staircase_training,emotion,,97.61123893914808,97.61123893914808,26.1463337262867,465.03859269999884,1009,20,female,True,4649,4654,False,False,expiration,expiration
26,127.0,25,M,up,0.447903000000224,1.432782837262348,,psi_staircase_training,emotion,,117.15641007867752,117.15641007867752,31.432291447829705,467.2885092999968,1009,20,female,True,4672,4676,False,False,expiration,expiration
27,116.0,25,F,up,0.5889457999983279,0.8436439686311121,,psi_staircase_training,emotion,,105.03864224082596,105.03864224082596,29.69406400548579,468.9384192999969,1009,20,female,True,4688,4694,False,False,inspiration,expiration
28,88.0,25,M,down,0.4001859999989392,0.9296547946273492,,psi_staircase_training,emotion,,98.16151255584974,98.16151255584974,27.87588470540113,470.8216850999997,1009,20,female,True,4707,4711,False,False,expiration,inspiration
29,116.0,25,F,up,0.4170989000012924,1.269699361318826,,psi_staircase_training,emotion,,103.47850698803556,103.47850698803556,26.167505567848767,472.8382658999981,1009,20,female,True,4727,4731,False,False,expiration,expiration
30,88.0,25,F,down,0.7751324000018941,0.9443064952607793,,psi_staircase_training,emotion,,99.56005942312154,99.56005942312154,24.06105184598684,474.5382076999995,1009,20,female,True,4744,4752,False,False,inspiration,expiration
31,114.0,25,M,up,0.7427981999971962,0.6906897826136573,,psi_staircase_training,emotion,,102.72882116735805,102.72882116735805,21.995508974139533,476.3714779000002,1009,20,female,True,4763,4770,False,False,inspiration,expiration
32,91.0,25,F,down,0.6249760999999125,1.5339430499392286,,psi_staircase_training,emotion,,100.16193162697256,100.16193162697256,19.864494810872905,479.02138159999964,1009,20,female,True,4789,4795,False,False,inspiration,inspiration
33,111.0,25,F,down,0.6666786999994656,0.3470483291879605,,psi_staircase_training,emotion,,102.4211771670208,102.4211771670208,17.85650179871387,480.354641599999,1009,20,female,True,4803,4810,False,False,expiration,expiration
34,124.0,25,F,up,0.5000523000016983,0.3298912304375309,,psi_staircase_training,emotion,,107.30642837932848,107.30642837932848,22.871454661285057,481.7212903999971,1009,20,female,True,4816,4821,False,False,inspiration,inspiration
35,122.0,25,M,up,0.7402368000002753,1.8801868838314055,,psi_staircase_training,emotion,,105.6122177937375,105.6122177937375,20.87066499523032,484.4711021000003,1009,20,female,True,4844,4851,False,False,peak,expiration
36,91.0,25,M,down,0.6205889999982901,1.090399907023015,,psi_staircase_training,emotion,,104.41082160618551,104.41082160618551,19.146931686734646,486.63776759999746,1009,20,female,True,4865,4871,False,False,inspiration,expiration
37,93.0,25,F,down,0.8903119999995397,1.7060119429168554,,psi_staircase_training,emotion,,105.75066642869768,105.75066642869768,17.404320035846332,489.3210056999997,1009,20,female,True,4892,4901,False,False,expiration,expiration
38,119.0,25,F,up,0.3836835000001884,1.4258975073412992,,psi_staircase_training,emotion,,106.79159857760789,106.79159857760789,15.908847745809135,491.97070149999854,1009,20,female,True,4919,4923,False,False,expiration,expiration
39,109.0,25,M,down,1.4592511000009836,1.314329436581424,,psi_staircase_training,emotion,,105.8844079360228,105.8844079360228,14.398951987969179,494.0710804999981,1009,20,female,True,4940,4955,False,False,inspiration,expiration
40,109.0,25,M,up,0.9840196000004652,1.8733395861920052,,psi_staircase_training,emotion,,108.22895922829372,108.22895922829372,14.719364132181141,497.7373467999969,1009,20,female,True,4976,4986,False,False,expiration,inspiration
41,93.0,25,M,down,0.8197192999978142,0.8630619970530422,,psi_staircase_training,emotion,,106.33417897738222,106.33417897738222,15.379288928801394,499.9206147999976,1009,20,female,True,4998,5006,False,False,expiration,expiration
42,120.0,25,M,up,1.3115099999995437,1.2818314180750618,,psi_staircase_training,emotion,,106.97749781974608,106.97749781974608,14.136125268804099,502.37082439999716,1009,20,female,True,5023,5036,False,False,expiration,trough
43,96.0,25,F,down,0.7699637000005168,1.5614902492982954,,psi_staircase_training,emotion,,106.44256748332116,106.44256748332116,12.999642369649468,505.62040859999985,1009,20,female,True,5055,5063,False,False,expiration,inspiration
44,98.0,25,F,down,0.6176830000003974,0.6665359136394888,,psi_staircase_training,emotion,,107.03895070862751,107.03895070862751,11.998957502824151,507.4036850999983,1009,20,female,True,5073,5079,False,False,inspiration,expiration
45,118.0,25,F,up,0.5804806999985885,1.285945035650262,,psi_staircase_training,emotion,,107.58262523934776,107.58262523934776,11.153765024613538,509.63691439999815,1009,20,female,True,5095,5101,False,False,expiration,expiration
46,101.0,25,M,down,0.6184427000007418,0.7587603923198344,,psi_staircase_training,emotion,,107.15525041298125,107.15525041298125,10.336956491466532,511.33687229999845,1009,20,female,True,5112,5118,False,False,inspiration,peak
47,103.0,25,M,down,1.7109098000000813,0.7424590570260141,,psi_staircase_training,emotion,,107.75265090053873,107.75265090053873,9.67623150343749,513.0534446999992,1009,20,female,True,5129,5146,False,False,expiration,expiration
48,105.0,25,F,down,0.9800439999999072,1.0547014446694407,,psi_staircase_training,emotion,,108.368302026453,108.368302026453,9.117955351838967,516.1533399,1009,20,female,True,5160,5170,False,False,trough,peak
49,106.0,25,F,up,0.8367556000011973,1.5759725130481794,,psi_staircase_training,emotion,,109.02639496418541,109.02639496418541,8.648625696941782,519.0865814999997,1009,20,female,True,5190,5198,False,False,inspiration,expiration
50,117.0,25,M,down,1.361557000000175,1.3432560853829718,,psi_staircase_training,emotion,,107.84666826196734,107.84666826196734,9.511250707559974,521.6198095999971,1009,20,female,True,5215,5229,False,False,inspiration,expiration
51,123.0,25,M,down,1.7173953999990772,0.3099973414719714,,psi_staircase_training,emotion,,109.54654789327437,109.54654789327437,12.680778933268066,523.6529774999981,1009,20,female,True,5236,5253,False,False,inspiration,expiration
52,0.29,25,up,up,0.5052628999983426,0.4486430391252623,,psi_staircase_training,cRDM,,0.25,0.25693124029946324,0.10500000000000002,531.4861247999978,1009,20,female,True,5314,5319,False,False,expiration,expiration
53,0.25,25,up,down,0.3671245000005001,1.607250529415786,,psi_staircase_training,cRDM,,0.21910266653183127,0.2260132002683493,0.10468632033873933,533.8693739999981,1009,20,female,True,5338,5342,False,False,expiration,expiration
54,0.36,25,down,down,0.4002633999989485,1.775106073343815,,psi_staircase_training,cRDM,,0.3202997408361979,0.3276103223604739,0.1107465658214764,536.3359257999982,1009,20,female,True,5362,5366,False,False,expiration,expiration
55,0.33,25,down,down,1.0781231999972078,0.7379107190660444,,psi_staircase_training,cRDM,,0.2990372097977385,0.30641398280716875,0.1117492876491608,537.7692209999987,1009,20,female,True,5377,5388,False,False,inspiration,expiration
56,0.31,25,up,up,0.6835790000004636,1.766021663669643,,psi_staircase_training,cRDM,,0.2780189805609542,0.28539811096413914,0.1117849993448388,540.8857723999972,1009,20,female,True,5408,5415,False,False,expiration,expiration
57,0.31,25,down,down,0.4513398999988567,1.0761344671382225,,psi_staircase_training,cRDM,,0.2582073586141265,0.2655339603556145,0.11098925295027023,542.9190143999987,1009,20,female,True,5428,5433,False,False,inspiration,expiration
58,0.29,25,up,up,0.4992196999992302,1.0936437585619685,,psi_staircase_training,cRDM,,0.24138240409280395,0.2485489846939697,0.1085651240775294,544.7521388999994,1009,20,female,True,5447,5452,False,False,inspiration,peak
59,0.24,25,down,down,0.445472499999596,1.1038097848664057,,psi_staircase_training,cRDM,,0.22544905583343344,0.2325152283915249,0.107044062324179,546.6188909999984,1009,20,female,True,5465,5469,False,False,inspiration,inspiration
60,0.24,25,down,down,0.6171604000010121,1.4814448587018072,,psi_staircase_training,cRDM,,0.20474749939231834,0.21227317020784012,0.11400491131305583,548.8021655999984,1009,20,female,True,5487,5493,False,False,inspiration,inspiration
61,0.23,25,up,down,0.9769233000006352,1.580315129599548,,psi_staircase_training,cRDM,,0.18503962375809055,0.1928548615388246,0.11839150448161755,551.2854063999985,1009,20,female,True,5512,5522,False,False,inspiration,expiration
62,0.3,25,down,down,0.6330629000003682,1.2479834622865078,,psi_staircase_training,cRDM,,0.2473427156657096,0.2546333010435143,0.11044364812005933,553.7853106999974,1009,20,female,True,5537,5543,False,False,inspiration,expiration
63,0.27,25,down,down,0.9765279999992345,1.9320835128960872,,psi_staircase_training,cRDM,,0.23680868773406716,0.2438399713195461,0.10651553612020397,556.6518372999999,1009,20,female,True,5565,5575,False,False,expiration,expiration
64,0.24,25,down,down,0.9049688000013704,0.6670722879684827,,psi_staircase_training,cRDM,,0.22451835487696806,0.2316368477711804,0.1078366528354498,558.5683573999995,1009,20,female,True,5585,5594,False,False,inspiration,expiration
65,0.23,25,up,up,0.586312800001906,1.7431989773201506,,psi_staircase_training,cRDM,,0.209206043971849,0.21690667749685086,0.11665538708675333,561.485015299997,1009,20,female,True,5614,5620,False,False,expiration,expiration
66,0.23,25,up,down,0.4867204000001948,0.5616056896340724,,psi_staircase_training,cRDM,,0.19356361530021676,0.201806700378545,0.1248728792870582,562.9016308999999,1009,20,female,True,5628,5633,False,False,inspiration,inspiration
67,0.28,25,down,down,0.5694356999993033,0.5683073012287205,,psi_staircase_training,cRDM,,0.23787087338212404,0.2449448489058278,0.10716226791998708,564.2349082999973,1009,20,female,True,5641,5647,False,False,expiration,expiration
68,0.27,25,down,down,0.9044112000010501,0.4838043295951645,,psi_staircase_training,cRDM,,0.2299086264889353,0.23677370792042995,0.10399777228366447,565.5848973999999,1009,20,female,True,5655,5664,False,False,inspiration,expiration
69,0.23,25,up,up,0.588604699998541,1.3697362875151862,,psi_staircase_training,cRDM,,0.2222227935976496,0.2289821658667678,0.10239640491361636,568.134767399999,1009,20,female,True,5680,5686,False,False,inspiration,expiration
70,0.22,25,up,down,0.5226203999991412,1.7795175710564426,,psi_staircase_training,cRDM,,0.20958343734572515,0.21710137978943675,0.1138878357241267,570.7846981999974,1009,20,female,True,5707,5712,False,False,peak,expiration
71,0.27,25,up,down,0.6477277999983926,1.157845353337707,,psi_staircase_training,cRDM,,0.23985205156884,0.2457339559265189,0.08910381560485157,572.7346010999972,1009,20,female,True,5726,5732,False,False,inspiration,expiration
72,0.31,25,up,up,1.0255219000027864,1.6445047278672786,,psi_staircase_training,cRDM,,0.2659218591682163,0.27291523385018635,0.1059412615753223,575.3178144999982,1009,20,female,True,5752,5762,False,False,peak,expiration
73,0.3,25,down,down,0.5996125999990909,1.302246685143386,,psi_staircase_training,cRDM,,0.25974747242655943,0.26631905818188656,0.09955166384330658,577.9177463999986,1009,20,female,True,5778,5784,False,False,expiration,expiration
74,0.3,25,down,up,0.8133586000003561,1.3454319795689098,,psi_staircase_training,cRDM,,0.25473630068859426,0.2608929516799517,0.0932658984774482,580.1509983999968,1009,20,female,True,5800,5808,False,False,peak,expiration
75,0.33,25,down,down,0.6740506999994977,1.4492489193853908,,psi_staircase_training,cRDM,,0.2785485282861516,0.2873715676445636,0.13365849294028986,582.6842528999988,1009,20,female,True,5826,5833,False,False,expiration,expiration
76,0.32,25,up,up,0.7511474000020826,0.5060177700897062,,psi_staircase_training,cRDM,,0.2710174614961307,0.27958740812290045,0.1298244407830593,584.1341777999987,1009,20,female,True,5840,5848,False,False,inspiration,inspiration
77,0.32,25,up,down,0.3338030999984767,1.7299718308415282,,psi_staircase_training,cRDM,,0.2644362739139872,0.2727284148860252,0.12561601740043765,586.8840888999985,1009,20,female,True,5868,5871,False,False,inspiration,expiration
78,0.36,25,down,down,0.3674154000000272,1.796310524429279,,psi_staircase_training,cRDM,,0.29230039324010537,0.30213934021890504,0.14904827825028175,589.3839864999973,1009,20,female,True,5893,5897,False,False,peak,expiration
79,0.35000000000000003,25,down,down,0.5243886000025668,0.7044803949686661,,psi_staircase_training,cRDM,,0.28481343629351585,0.2945244920113167,0.14711087861836952,590.7839824999974,1009,20,female,True,5907,5912,False,False,inspiration,inspiration
80,0.34,25,up,up,0.5537788000001456,0.5740434404368746,,psi_staircase_training,cRDM,,0.2779579200585325,0.2875255019965806,0.14493742246576646,592.150552199997,1009,20,female,True,5920,5926,False,False,expiration,expiration
81,0.34,25,up,down,0.6915011999990384,1.208607876684175,,psi_staircase_training,cRDM,,0.27164349959363304,0.2810596932989876,0.14264407181767794,594.183826299999,1009,20,female,True,5941,5948,False,False,expiration,expiration
82,100.0,25,M,down,0.7713944000024641,1.763004976577411,,psi_staircase,emotion,,100.0,100.0,25.00050000000001,616.4829834999982,1009,20,female,True,6164,6172,False,False,expiration,expiration
83,145.0,25,M,up,0.41675820000091335,1.6571518411357116,,psi_staircase,emotion,,145.25719053245996,145.25719053245996,25.000500000000283,619.2828725999971,1009,20,female,True,6192,6196,False,False,expiration,expiration
84,121.0,25,F,up,0.5325510000002396,1.4356613819217632,,psi_staircase,emotion,,120.36392901436103,120.36392901436103,25.71326925488699,621.482815299998,1009,20,female,True,6214,6219,False,False,inspiration,expiration
85,97.0,25,F,down,0.5249354000006861,0.438932893552065,,psi_staircase,emotion,,102.38876106084959,102.38876106084959,26.14633372628729,622.7994203999988,1009,20,female,True,6227,6232,False,False,expiration,expiration
86,113.0,25,M,up,0.4592128999975103,0.9492390092804456,,psi_staircase,emotion,,114.01123255420406,114.01123255420406,23.003056417783352,624.6491613999971,1009,20,female,True,6246,6251,False,False,peak,expiration
87,105.0,25,F,down,0.6480456000026606,1.0241131074871606,,psi_staircase,emotion,,104.94359593877377,104.94359593877377,22.15060322358215,626.4992876999967,1009,20,female,True,6264,6270,False,False,expiration,inspiration
88,116.0,25,M,down,0.4001820000012231,0.6152150368721151,,psi_staircase,emotion,,111.58377353439043,111.58377353439043,20.59785325106301,628.1325515999997,1009,20,female,True,6280,6284,False,False,expiration,inspiration
89,131.0,25,F,up,0.4275214000008418,1.8177130446699572,,psi_staircase,emotion,,119.22444233711107,119.22444233711107,26.33379145122974,630.7158051999978,1009,20,female,True,6306,6310,False,False,expiration,expiration
90,129.0,25,F,down,0.3501587999999174,1.8235230586225228,,psi_staircase,emotion,,115.25120882513642,115.25120882513642,23.773562394969286,633.3323633,1009,20,female,True,6332,6336,False,False,inspiration,expiration
91,142.0,25,M,up,0.5577311999986705,1.3492515665418423,,psi_staircase,emotion,,122.57294279240776,122.57294279240776,30.139849138468914,635.4656219999998,1009,20,female,True,6354,6360,False,False,inspiration,expiration
92,140.0,25,F,up,0.4398449000000255,1.1232392592281293,,psi_staircase,emotion,,119.77628838378556,119.77628838378556,28.47026549348546,637.5155354999988,1009,20,female,True,6374,6378,False,False,inspiration,inspiration
93,98.0,25,F,down,0.4172800999986066,1.7666373212526147,,psi_staircase,emotion,,117.6758541015243,117.6758541015243,26.956012443674606,640.0820723999967,1009,20,female,True,6400,6404,False,False,inspiration,inspiration
94,139.0,25,F,up,0.5980041999973764,1.2547074412033554,,psi_staircase,emotion,,119.63949856356452,119.63949856356452,25.261631096630925,642.1153782000001,1009,20,female,True,6420,6426,False,False,inspiration,peak
95,100.0,25,M,down,0.478674999998475,1.0748137017953965,,psi_staircase,emotion,,118.09694995894256,118.09694995894256,23.72357628526197,644.1486802999971,1009,20,female,True,6440,6445,False,False,expiration,expiration
96,138.0,25,M,up,0.513445500000671,0.9585044253025908,,psi_staircase,emotion,,119.58568847468308,119.58568847468308,22.08127175304453,645.9318793999993,1009,20,female,True,6458,6463,False,False,peak,expiration
97,101.0,25,F,down,0.7428120999975363,0.986406468834416,,psi_staircase,emotion,,118.43852921542843,118.43852921542843,20.631242672087737,647.7985001999988,1009,20,female,True,6477,6484,False,False,expiration,inspiration
98,135.0,25,F,up,0.7659108000007109,1.0436270101406748,,psi_staircase,emotion,,119.53491451019524,119.53491451019524,19.163236948319536,649.9484132999969,1009,20,female,True,6498,6506,False,False,expiration,expiration
99,104.0,25,M,down,0.5846960999988369,1.1461588199535446,,psi_staircase,emotion,,118.56393773633492,118.56393773633492,17.86732865092921,652.2316692999992,1009,20,female,True,6521,6527,False,False,inspiration,inspiration
100,132.0,25,M,up,0.5815710999995645,1.4883808029141994,,psi_staircase,emotion,,119.48356599421324,119.48356599421324,16.600231645170545,654.6647588999987,1009,20,female,True,6546,6552,False,False,expiration,inspiration
101,107.0,25,M,down,0.4965467000001809,1.2790881176178577,,psi_staircase,emotion,,118.60707794384399,118.60707794384399,15.501390055673692,656.8648021999978,1009,20,female,True,6568,6573,False,False,expiration,expiration
102,128.0,25,M,up,0.5788792999992438,1.0596449439444091,,psi_staircase,emotion,,119.43661853800238,119.43661853800238,14.464516415811017,658.7814517999977,1009,20,female,True,6587,6593,False,False,peak,expiration
103,120.0,25,F,up,0.9699954999996409,0.6599287721646712,,psi_staircase,emotion,,118.50965052388115,118.50965052388115,13.589631397217884,660.3813648999967,1009,20,female,True,6603,6613,False,False,expiration,inspiration
104,106.0,25,F,down,0.5140567999987979,0.7674397331934529,,psi_staircase,emotion,,117.065395547115,117.065395547115,13.295888747534438,662.4812998999988,1009,20,female,True,6624,6629,False,False,expiration,expiration
105,122.0,25,F,down,0.7598957000009251,1.5099078977924985,,psi_staircase,emotion,,117.65348716631249,117.65348716631249,12.400102860926184,664.8644237999979,1009,20,female,True,6648,6656,False,False,expiration,expiration
106,107.0,25,M,down,0.6882004999970377,0.7849651062474761,,psi_staircase,emotion,,119.54220331687112,119.54220331687112,13.694865723457069,666.7311199999967,1009,20,female,True,6666,6673,False,False,inspiration,expiration
107,132.0,25,M,up,0.6173458000012033,1.934163075410947,,psi_staircase,emotion,,119.9939153826584,119.9939153826584,12.944998317321822,669.7310268000001,1009,20,female,True,6696,6702,False,False,inspiration,expiration
108,109.0,25,F,down,0.6866593000013381,0.3921226633999666,,psi_staircase,emotion,,119.53975785053795,119.53975785053795,12.241892905464992,671.0976461999999,1009,20,female,True,6710,6717,False,False,expiration,inspiration
109,130.0,25,F,up,0.4167595999970217,1.4071069431339025,,psi_staircase,emotion,,119.97360337047957,119.97360337047957,11.64295284303651,673.5642214999971,1009,20,female,True,6735,6739,False,False,expiration,expiration
110,110.0,25,M,down,0.43557960000180174,1.3707340328427555,,psi_staircase,emotion,,119.53729439441204,119.53729439441204,11.076134632627339,675.7307960999971,1009,20,female,True,6756,6760,False,False,expiration,expiration
111,129.0,25,M,down,0.5889810999979089,1.101624772033076,,psi_staircase,emotion,,119.93091206623363,119.93091206623363,10.591465804124834,677.6472783999998,1009,20,female,True,6776,6782,False,False,inspiration,expiration
112,135.0,25,F,up,0.7517297999984294,0.6333670522380852,,psi_staircase,emotion,,121.57785284355231,121.57785284355231,12.508200156716716,679.2306537999975,1009,20,female,True,6791,6799,False,False,expiration,inspiration
113,110.0,25,M,down,0.4811019000007946,0.7788265812049568,,psi_staircase,emotion,,121.279031565789,121.279031565789,11.973014020588467,681.0972546999982,1009,20,female,True,6810,6815,False,False,expiration,expiration
114,133.0,25,F,up,1.0328348999973969,0.9891661375784412,,psi_staircase,emotion,,121.60420975680651,121.60420975680651,11.499321726000352,682.930530499998,1009,20,female,True,6828,6838,False,False,inspiration,expiration
115,111.0,25,M,up,0.8585566000001563,0.5358158221653284,,psi_staircase,emotion,,121.309693965175,121.309693965175,11.063190491609145,684.8637873999978,1009,20,female,True,6848,6857,False,False,inspiration,inspiration
116,106.0,25,F,down,0.6513021999999182,1.3146543499227423,,psi_staircase,emotion,,119.87787638763204,119.87787638763204,12.885752750707569,687.3970651999989,1009,20,female,True,6873,6880,False,False,inspiration,inspiration
117,133.0,25,M,up,0.5896580000007816,1.1787880886906308,,psi_staircase,emotion,,120.125959109658,120.125959109658,12.432967525183845,689.5636254999989,1009,20,female,True,6895,6901,False,False,expiration,inspiration
118,108.0,25,F,down,0.6947691999994277,0.5085052683698805,,psi_staircase,emotion,,119.8615665231876,119.8615665231876,12.007897399719761,691.0135918999986,1009,20,female,True,6909,6916,False,False,peak,expiration
119,132.0,25,M,up,0.4951818999979878,1.5052126942820576,,psi_staircase,emotion,,120.11984628122566,120.11984628122566,11.630629913154173,693.5801477999994,1009,20,female,True,6935,6940,False,False,peak,expiration
120,109.0,25,M,up,0.8355262000004586,0.8608977014474628,,psi_staircase,emotion,,119.87061525153736,119.87061525153736,11.279319058145573,695.2968034999975,1009,20,female,True,6952,6960,False,False,inspiration,inspiration
121,132.0,25,F,up,0.43995770000037737,0.917076990781039,,psi_staircase,emotion,,118.65756121281242,118.65756121281242,12.813183058826382,697.3633319,1009,20,female,True,6973,6977,False,False,expiration,inspiration
122,105.0,25,F,down,0.5814687000020058,1.5760413118436556,,psi_staircase,emotion,,118.43312405755377,118.43312405755377,12.43628987662451,699.7468410999973,1009,20,female,True,6997,7003,False,False,expiration,expiration
123,131.0,25,F,up,0.383515500001522,1.7816046884587446,,psi_staircase,emotion,,118.64887416661236,118.64887416661236,12.083545805123586,702.4798147000001,1009,20,female,True,7024,7028,False,False,expiration,expiration
124,106.0,25,M,down,0.6732910999999149,1.1518731423740356,,psi_staircase,emotion,,118.43028556000385,118.43028556000385,11.766313269951208,704.4130708999983,1009,20,female,True,7043,7050,False,False,inspiration,expiration
125,130.0,25,M,up,0.5736424000024272,0.53959555117196,,psi_staircase,emotion,,118.63674243232504,118.63674243232504,11.469805266551274,705.9796820999983,1009,20,female,True,7059,7065,False,False,expiration,expiration
126,107.0,25,F,down,0.5254085999986273,1.4809073527083711,,psi_staircase,emotion,,118.41988904873648,118.41988904873648,11.196776456047616,708.4129295999992,1009,20,female,True,7083,7088,False,False,expiration,expiration
127,129.0,25,F,up,0.5104957000003196,0.9494433965148491,,psi_staircase,emotion,,118.62219862104573,118.62219862104573,10.942145337591134,710.2628537999989,1009,20,female,True,7102,7107,False,False,inspiration,expiration
128,128.0,25,F,up,1.0247499000033713,1.3592678742678113,,psi_staircase,emotion,,118.40382801215328,118.40382801215328,10.702191045313496,712.5127867999981,1009,20,female,True,7124,7134,False,False,inspiration,expiration
129,108.0,25,M,down,0.4223313000002236,0.8738242630932447,,psi_staircase,emotion,,118.18180822420177,118.18180822420177,10.480201860869798,714.7960212999969,1009,20,female,True,7147,7151,False,False,inspiration,inspiration
130,128.0,25,M,up,0.4920488999996451,1.9424324718085648,,psi_staircase,emotion,,118.38341675050295,118.38341675050295,10.264804994878887,717.4792781999968,1009,20,female,True,7174,7179,False,False,inspiration,inspiration
131,109.0,25,M,down,1.0412266999992426,0.3897703629316948,,psi_staircase,emotion,,118.18052169654995,118.18052169654995,10.06651117631634,718.7461394999991,1009,20,female,True,7187,7197,False,False,expiration,inspiration
132,0.29,25,up,down,0.9660973999998532,1.559555924703656,,psi_staircase,cRDM,,0.25,0.25693124029946324,0.10500000000000002,751.5612609999989,1009,20,female,True,7515,7525,False,False,expiration,expiration
133,0.39,25,up,up,0.4735017000020889,1.8836440532672205,,psi_staircase,cRDM,,0.3546095744690497,0.36161092129536426,0.10606203002656786,754.6778827999988,1009,20,female,True,7546,7551,False,False,expiration,expiration
134,0.38,25,down,down,0.6548567000027106,0.3163053207503973,,psi_staircase,cRDM,,0.33579878490349385,0.3429317268363466,0.10805553848818844,755.7445007999995,1009,20,female,True,7556,7563,False,False,expiration,expiration
135,0.35000000000000003,25,down,down,0.6149071999971056,0.7275933570308315,,psi_staircase,cRDM,,0.31782208253394256,0.3249720550198983,0.10831353099725742,757.3944450999987,1009,20,female,True,7573,7579,False,False,inspiration,expiration
136,0.34,25,up,up,0.5649971999991976,0.674186008943602,,psi_staircase,cRDM,,0.29874613801952915,0.3059673319859477,0.10939245123743067,758.9443948999979,1009,20,female,True,7588,7594,False,False,expiration,expiration
137,0.33,25,down,down,0.5266367000003811,0.4055955214178302,,psi_staircase,cRDM,,0.280506144113461,0.287744293960811,0.10964931255241722,760.1777083999988,1009,20,female,True,7601,7606,False,False,inspiration,inspiration
138,0.28,25,up,up,0.8774155000028259,0.7976136693716851,,psi_staircase,cRDM,,0.26317088112038345,0.27040595667174805,0.1096027406454384,761.7607983999987,1009,20,female,True,7617,7626,False,False,expiration,expiration
139,0.28,25,down,down,0.4651245999993989,1.9126398459409943,,psi_staircase,cRDM,,0.2406343605712441,0.2483363748915044,0.11667630448333274,764.794181399997,1009,20,female,True,7647,7652,False,False,expiration,expiration
140,0.27,25,down,down,0.7090381000016349,1.9309533248513624,,psi_staircase,cRDM,,0.21884767236250752,0.2268477896342611,0.1211922076340612,767.4443496999993,1009,20,female,True,7674,7681,False,False,expiration,inspiration
141,0.25,25,up,up,0.5326316999999108,0.5884547597834722,,psi_staircase,cRDM,,0.1983960949977236,0.20655445463611344,0.12358939021307193,769.0106945999977,1009,20,female,True,7689,7694,False,False,inspiration,inspiration
142,0.22,25,down,down,0.4001901999981783,0.8665999771523172,,psi_staircase,cRDM,,0.17941251972604266,0.18760392301062712,0.12408996192903166,770.6605595000002,1009,20,female,True,7706,7710,False,False,expiration,inspiration
143,0.19,25,down,down,0.8051443999975163,1.3756841642985764,,psi_staircase,cRDM,,0.1614935390589006,0.16963229239764802,0.12329237822481125,772.7272159999992,1009,20,female,True,7726,7734,False,False,expiration,expiration
144,0.16,25,down,down,0.7415169999985665,1.0414580614952331,,psi_staircase,cRDM,,0.1445961397716333,0.15262346405441773,0.12160436130855763,774.8438042999987,1009,20,female,True,7747,7754,False,False,inspiration,expiration
145,0.14,25,up,up,0.8678610999995726,0.9132482926042996,,psi_staircase,cRDM,,0.12869809897546508,0.13657413177356378,0.11931247627706748,776.760478799999,1009,20,female,True,7767,7776,False,False,trough,inspiration
146,0.12,25,up,down,0.7258308000018587,1.4440231128138648,,psi_staircase,cRDM,,0.1141380750420161,0.12180746646473832,0.11618210660625795,779.3435329999992,1009,20,female,True,7793,7800,False,False,inspiration,inspiration
147,0.19,25,down,down,0.7934059000035631,1.0055922695012596,,psi_staircase,cRDM,,0.1574775410936974,0.1659434745688988,0.1282487659481349,781.3268959999988,1009,20,female,True,7812,7820,False,False,expiration,inspiration
148,0.18,25,down,down,0.7299266000009084,0.9588082967917386,,psi_staircase,cRDM,,0.1451222266549762,0.15341873851194587,0.12568223107908616,783.3434179999967,1009,20,female,True,7833,7840,False,False,expiration,expiration
149,0.17,25,up,up,0.52906190000067,0.6120941214725781,,psi_staircase,cRDM,,0.1344234412188164,0.14249539839880873,0.1222804963153312,784.9432890999997,1009,20,female,True,7849,7854,False,False,inspiration,inspiration
150,0.17,25,up,up,0.9332242999989828,0.9743966756927328,,psi_staircase,cRDM,,0.12517323196545954,0.1329891264958676,0.11840145345363336,786.7100453999992,1009,20,female,True,7866,7875,False,False,expiration,inspiration
151,0.16,25,up,up,0.7463336999971943,1.1474404896425834,,psi_staircase,cRDM,,0.11764832668505615,0.12515413498612316,0.11370401797684955,789.0599887999997,1009,20,female,True,7890,7897,False,False,expiration,inspiration
152,0.11,25,up,down,0.6815188000000489,1.4953081713500636,,psi_staircase,cRDM,,0.1110703018399117,0.11827874700213956,0.10919932210293384,791.559886199997,1009,20,female,True,7915,7922,False,False,inspiration,expiration
153,0.17,25,down,up,1.1215393999991647,1.4487860517430151,,psi_staircase,cRDM,,0.1333621762663075,0.1395601848198962,0.09389241607699132,793.9597801999989,1009,20,female,True,7939,7950,False,False,inspiration,expiration
154,0.2,25,down,down,0.6275542000003043,0.3232149600560817,,psi_staircase,cRDM,,0.1616174612132958,0.17041026291762842,0.13320042864859574,795.6597672999997,1009,20,female,True,7956,7962,False,False,expiration,expiration
155,0.2,25,down,down,0.5610728999999992,1.6817534387549362,,psi_staircase,cRDM,,0.15295930911768024,0.1615422221726605,0.13002086666115364,798.2262814999996,1009,20,female,True,7981,7987,False,False,expiration,expiration
156,0.19,25,up,down,0.6801570999996329,1.4230178567733502,,psi_staircase,cRDM,,0.14569616270555102,0.15402038258641967,0.12610197449926694,800.4762000999982,1009,20,female,True,8004,8011,False,False,expiration,expiration
157,0.23,25,up,up,0.7131852999991679,0.7672116677835935,,psi_staircase,cRDM,,0.1744269757491067,0.18403283951419253,0.14551734635605082,802.1761314999968,1009,20,female,True,8021,8028,False,False,inspiration,expiration
158,0.22,25,down,down,0.5299254999990808,0.901794315730823,,psi_staircase,cRDM,,0.16635921236664042,0.1758738675799171,0.14413564589174807,804.059427799999,1009,20,female,True,8040,8045,False,False,expiration,inspiration
159,0.22,25,down,down,0.6743920000008075,1.8205496800997842,,psi_staircase,cRDM,,0.15909193696956733,0.1684926218256337,0.1424091313012773,806.6759671,1009,20,female,True,8066,8073,False,False,expiration,inspiration
160,0.22,25,up,up,0.7824678999968455,0.7243966618567801,,psi_staircase,cRDM,,0.15278509796401427,0.16204273658883314,0.14024215199713305,808.3428358999989,1009,20,female,True,8083,8091,False,False,expiration,expiration
161,0.17,25,up,down,0.6405712000014319,1.8411881939591568,,psi_staircase,cRDM,,0.1473397386272204,0.15643066926990126,0.1377167254690914,811.2257863999985,1009,20,female,True,8111,8117,False,False,expiration,expiration
162,0.22,25,down,down,0.564682799998991,0.4073264171546359,,psi_staircase,cRDM,,0.16989427464678822,0.17863783886071033,0.1324545395624091,812.5426846999982,1009,20,female,True,8125,8131,False,False,inspiration,inspiration
163,0.22,25,up,down,0.6296446000014839,0.5641920326565164,,psi_staircase,cRDM,,0.1647638469147946,0.1732799388460986,0.12900860656297913,813.9256933999968,1009,20,female,True,8138,8144,False,False,expiration,expiration
164,0.25,25,down,down,0.8123817999985476,0.6928555738995512,,psi_staircase,cRDM,,0.18596626975806724,0.19573171295307065,0.14793478384449565,815.5089776999994,1009,20,female,True,8154,8162,False,False,inspiration,expiration
165,0.24,25,up,up,0.5291642999982287,0.3463823547530584,,psi_staircase,cRDM,,0.17995467475174595,0.18962718169081155,0.14652691072917115,816.9422325999984,1009,20,female,True,8169,8174,False,False,expiration,expiration
166,0.24,25,down,down,0.7161909999995258,1.8380708287016247,,psi_staircase,cRDM,,0.17440188738291573,0.18397325778673185,0.14499481319072327,819.5921694999997,1009,20,female,True,8195,8202,False,False,expiration,inspiration
167,0.24,25,up,up,0.892401000000973,1.776905052648381,,psi_staircase,cRDM,,0.16946285742763853,0.17891762461803234,0.14322841397783095,822.3419189999986,1009,20,female,True,8223,8232,False,False,expiration,expiration
168,0.24,25,down,down,0.5479615999975067,0.3110235239835523,,psi_staircase,cRDM,,0.1650774894949123,0.1744023460490173,0.14126042322567375,823.8253580999989,1009,20,female,True,8237,8242,False,False,inspiration,inspiration
169,0.17,25,up,down,0.8283567000034964,0.3461366768832455,,psi_staircase,cRDM,,0.16119579662334155,0.17037890191160246,0.1391130610984676,824.9919577999973,1009,20,female,True,8249,8257,False,False,inspiration,expiration
170,0.24,25,up,up,0.5491183000012825,1.1971426075319034,,psi_staircase,cRDM,,0.17849935042936926,0.18701616715771024,0.12901958637115082,827.2752206999976,1009,20,female,True,8272,8277,False,False,inspiration,inspiration
171,0.24,25,down,down,0.6234399000022677,0.3462281810451339,,psi_staircase,cRDM,,0.1751116302834145,0.18339642157369815,0.125504678512899,828.4418365999991,1009,20,female,True,8284,8290,False,False,expiration,expiration
172,0.24,25,down,down,0.7062464000009641,1.4685257475434377,,psi_staircase,cRDM,,0.172249426165601,0.18028641060460707,0.1217507011206907,830.8250723999989,1009,20,female,True,8307,8314,False,False,inspiration,expiration
173,0.2,25,down,down,0.4789664000018092,0.9597377124244546,,psi_staircase,cRDM,,0.1698780257271348,0.17765348486685986,0.11778890565002527,832.7583562999971,1009,20,female,True,8327,8332,False,False,expiration,inspiration
174,0.21,25,up,up,0.7046883000002708,0.6859543642354899,,psi_staircase,cRDM,,0.16532716897740785,0.17315998164620333,0.11865774301422105,834.1916376999981,1009,20,female,True,8341,8348,False,False,inspiration,expiration
175,0.16,25,up,down,0.8141174000011233,0.539486267790066,,psi_staircase,cRDM,,0.16219190049972876,0.16988101391560875,0.11648087121289374,835.7082387999982,1009,20,female,True,8356,8364,False,False,expiration,inspiration
176,0.21,25,down,down,0.9874068999997688,1.283014309569571,,psi_staircase,cRDM,,0.1765120532985433,0.1829243768783916,0.09713903238013694,838.0748275999977,1009,20,female,True,8380,8390,False,False,expiration,inspiration
177,0.21,25,down,down,0.8295673000029637,1.0936355707215444,,psi_staircase,cRDM,,0.17411914700985726,0.18026978952085385,0.09317487718679332,840.4247331999977,1009,20,female,True,8403,8411,False,False,expiration,expiration
178,0.21,25,down,up,0.6336746999986644,1.4608998784624778,,psi_staircase,cRDM,,0.17224524432024474,0.17810157128752985,0.08871634873379754,842.9746392999988,1009,20,female,True,8429,8435,False,False,inspiration,expiration
179,0.24,25,up,down,1.0614375000004657,1.1016971354316014,,psi_staircase,cRDM,,0.1802174826359942,0.18788601818553485,0.11616914115127712,844.9579103999968,1009,20,female,True,8449,8460,False,False,inspiration,expiration
180,0.25,25,up,down,1.7544106999994256,1.8659329229084518,,psi_staircase,cRDM,,0.190694708276783,0.20001499721844507,0.1411912293605375,848.1408885999989,1009,20,female,True,8481,8499,False,False,inspiration,expiration
181,0.33,25,up,up,0.9129769999999552,0.38040112191367503,,psi_staircase,cRDM,,0.20612364639337954,0.2159705918563498,0.1491694457183861,850.5243580999995,1009,20,female,True,8504,8513,False,False,expiration,inspiration
182,122.0,25,F,up,0.9793196999999054,1.6789109986607322,,experiment,emotion,0.0,,,,860.1240116999978,1009,20,female,True,8600,8610,False,False,expiration,expiration
183,114.0,25,M,up,0.5430560999993759,0.7499300994872924,,experiment,emotion,0.0,,,,862.1572643,1009,20,female,True,8621,8626,False,False,inspiration,expiration
184,119.0,25,F,down,0.3836369999989984,1.429035854709665,,experiment,emotion,0.0,,,,864.4403794999997,1009,20,female,True,8644,8648,False,False,expiration,expiration
185,122.0,25,M,down,0.5042267999997421,1.4985929285604132,,experiment,emotion,0.0,,,,866.6401243999971,1009,20,female,True,8666,8671,False,False,expiration,expiration
186,119.0,25,F,down,0.9929550999986532,0.9711568132226333,,experiment,emotion,0.0,,,,868.3903603999969,1009,20,female,True,8683,8693,False,False,expiration,expiration
187,117.0,25,F,down,0.8813592000005883,0.6991042017848603,,experiment,emotion,0.0,,,,870.4069563999983,1009,20,female,True,8703,8712,False,False,inspiration,expiration
188,114.0,25,M,up,0.4824080999969738,0.6313777831628782,,experiment,emotion,0.0,,,,872.2068860999971,1009,20,female,True,8721,8726,False,False,expiration,expiration
189,117.0,25,F,down,0.8545860999984143,1.4358876287192517,,experiment,emotion,0.0,,,,874.4068114000003,1009,20,female,True,8743,8752,False,False,peak,expiration
190,122.0,25,M,up,0.4216773000007379,1.7154799937122287,,experiment,emotion,0.0,,,,877.2567106999995,1009,20,female,True,8772,8776,False,False,inspiration,expiration
191,117.0,25,M,up,0.4504446999999345,1.9087830416982652,,experiment,emotion,0.0,,,,879.8398714999968,1009,20,female,True,8798,8803,False,False,inspiration,expiration
192,119.0,25,F,up,0.6210528999981761,0.4051723159965486,,experiment,emotion,0.0,,,,880.9732504999993,1009,20,female,True,8809,8815,False,False,expiration,expiration
193,122.0,25,M,down,0.4848057000017434,1.4841078564117094,,experiment,emotion,0.0,,,,883.3564834999997,1009,20,female,True,8833,8838,False,False,expiration,expiration
194,119.0,25,M,up,0.4167804999997316,0.5732076976394519,,experiment,emotion,0.0,,,,884.689770099998,1009,20,female,True,8846,8850,False,False,expiration,inspiration
195,114.0,25,M,up,0.7896590000018477,1.3150380020102437,,experiment,emotion,0.0,,,,886.6896820999973,1009,20,female,True,8866,8874,False,False,expiration,expiration
196,117.0,25,F,up,0.4969697000015003,0.4432964503914558,,experiment,emotion,0.0,,,,888.2062968999999,1009,20,female,True,8881,8886,False,False,inspiration,inspiration
197,114.0,25,F,down,0.5798625999996148,1.3665667066369696,,experiment,emotion,0.0,,,,890.3394766999991,1009,20,female,True,8903,8909,False,False,trough,inspiration
198,122.0,25,M,up,0.4167495000001509,1.564737610474576,,experiment,emotion,0.0,,,,892.7728203999977,1009,20,female,True,8927,8931,False,False,expiration,inspiration
199,114.0,25,M,up,0.4742377000002307,0.6919647313529496,,experiment,emotion,0.0,,,,894.1560888999992,1009,20,female,True,8941,8946,False,False,expiration,expiration
200,119.0,25,F,up,0.6040992000016558,0.4309659583169313,,experiment,emotion,0.0,,,,895.3392102999969,1009,20,female,True,8953,8959,False,False,expiration,inspiration
201,119.0,25,F,up,0.8437333000001672,1.3683264679349991,,experiment,emotion,0.0,,,,897.5726168999972,1009,20,female,True,8975,8983,False,False,expiration,inspiration
202,117.0,25,M,up,0.6207929999982298,1.2915680035222608,,experiment,emotion,0.0,,,,899.9725440999972,1009,20,female,True,8999,9005,False,False,expiration,expiration
203,117.0,25,F,down,0.5732276999988244,1.2204063880549845,,experiment,emotion,0.0,,,,902.0891223,1009,20,female,True,9020,9026,False,False,inspiration,expiration
204,114.0,25,M,up,0.4889517999981763,1.0404354512443492,,experiment,emotion,0.0,,,,903.9723851999988,1009,20,female,True,9039,9044,False,False,expiration,expiration
205,122.0,25,F,up,0.8296907000003557,1.7858999472579669,,experiment,emotion,0.0,,,,906.5556268999973,1009,20,female,True,9065,9073,False,False,expiration,expiration
206,119.0,25,F,up,1.039116299998568,0.6186441779903047,,experiment,emotion,0.0,,,,908.2722371999988,1009,20,female,True,9082,9092,False,False,inspiration,peak
207,114.0,25,M,down,0.4169514999994135,1.75242004495736,,experiment,emotion,0.0,,,,911.3386484000004,1009,20,female,True,9113,9117,False,False,inspiration,inspiration
208,122.0,25,M,up,0.4402771000022767,1.6534155878934709,,experiment,emotion,0.0,,,,913.6720500999983,1009,20,female,True,9136,9140,False,False,inspiration,inspiration
209,122.0,25,F,up,0.5994208000010985,0.7846511657526617,,experiment,emotion,0.0,,,,915.1719940999974,1009,20,female,True,9151,9157,False,False,expiration,expiration
210,117.0,25,M,down,1.1330278999994334,1.8457198097428515,,experiment,emotion,0.0,,,,917.9383731999988,1009,20,female,True,9179,9190,False,False,expiration,inspiration
211,114.0,25,F,up,0.4202205000001413,1.5119640181560543,,experiment,emotion,0.0,,,,920.8550972999983,1009,20,female,True,9208,9212,False,False,expiration,inspiration
212,117.0,25,M,down,0.7791113999992376,0.3954342690575048,,experiment,emotion,0.0,,,,921.9382168999983,1009,20,female,True,9219,9227,False,False,expiration,inspiration
213,119.0,25,F,down,0.5120970999996644,1.3147710986573395,,experiment,emotion,0.0,,,,924.338183099997,1009,20,female,True,9243,9248,False,False,expiration,expiration
214,114.0,25,M,down,0.4893820999968739,1.5413620824456238,,experiment,emotion,0.0,,,,926.6548851999977,1009,20,female,True,9266,9271,False,False,expiration,expiration
215,122.0,25,F,up,0.5105671000019356,1.3730150696612715,,experiment,emotion,0.0,,,,928.8047895999988,1009,20,female,True,9287,9292,False,False,inspiration,expiration
216,119.0,25,M,up,0.6065536999994947,0.406602565944122,,experiment,emotion,0.0,,,,930.0047702999983,1009,20,female,True,9299,9305,False,False,expiration,inspiration
217,122.0,25,F,up,0.6439730999991298,1.3723761407234103,,experiment,emotion,0.0,,,,932.2713379999988,1009,20,female,True,9322,9328,False,False,expiration,expiration
218,114.0,25,M,down,0.4167882000001555,0.9376606254004884,,experiment,emotion,0.0,,,,934.1212578999983,1009,20,female,True,9340,9344,False,False,inspiration,expiration
219,119.0,25,F,up,0.8105490000016289,1.0255991590020124,,experiment,emotion,0.0,,,,935.8377572999997,1009,20,female,True,9358,9366,False,False,trough,inspiration
220,117.0,25,M,up,1.0458113000022422,0.4417685448665655,,experiment,emotion,0.0,,,,937.4045045999992,1009,20,female,True,9373,9383,False,False,expiration,expiration
221,117.0,25,F,up,0.8762589999969351,0.3286102167404491,,experiment,emotion,0.0,,,,939.0710612000003,1009,20,female,True,9390,9399,False,False,inspiration,expiration
222,119.0,25,F,up,2.1398827000011806,0.3248686162287349,,experiment,emotion,0.0,,,,940.554430799999,1009,20,female,True,9405,9426,False,False,expiration,expiration
223,122.0,25,M,down,0.6060899000003701,1.1866914497469212,,experiment,emotion,0.0,,,,944.1542288999989,1009,20,female,True,9441,9447,False,False,trough,inspiration
224,117.0,25,F,up,0.8611376000008022,0.4339531267952025,,experiment,emotion,0.0,,,,945.4541995,1009,20,female,True,9454,9463,False,False,peak,expiration
225,114.0,25,M,down,0.7572562999994261,1.834317887353623,,experiment,emotion,0.0,,,,948.4540777999972,1009,20,female,True,9484,9492,False,False,expiration,expiration
226,114.0,25,M,up,0.7622240000018792,0.8783088405165018,,experiment,emotion,0.0,,,,950.3540876999978,1009,20,female,True,9503,9511,False,False,inspiration,expiration
227,117.0,25,F,up,1.189361500000814,1.0717552819189562,,experiment,emotion,0.0,,,,952.4539491999968,1009,20,female,True,9524,9536,False,False,trough,expiration
228,122.0,25,F,up,1.2998153000007733,1.8036204817222143,,experiment,emotion,0.0,,,,955.7204952999999,1009,20,female,True,9556,9569,False,False,inspiration,expiration
229,119.0,25,M,down,0.44188429999849177,1.3438475838035049,,experiment,emotion,0.0,,,,958.6703841999988,1009,20,female,True,9586,9590,False,False,inspiration,expiration
230,114.0,25,F,up,0.4973648000013782,1.3897670846618015,,experiment,emotion,0.0,,,,960.7869718000003,1009,20,female,True,9607,9612,False,False,inspiration,inspiration
231,122.0,25,M,up,1.0964323000007423,0.3281054411001744,,experiment,emotion,0.0,,,,961.8869191999984,1009,20,female,True,9618,9629,False,False,expiration,expiration
232,119.0,25,M,,,0.6628758924176996,,experiment,emotion,0.0,,,,963.9035225999977,1009,20,female,True,9638,0,False,False,inspiration,0
233,119.0,25,M,down,1.571729499999492,0.6308463901395848,,experiment,emotion,0.0,,,,967.236565299998,1009,20,female,True,9672,9688,False,False,inspiration,expiration
234,114.0,25,M,down,0.8198926000004576,1.163007704278871,,experiment,emotion,0.0,,,,970.2364026999968,1009,20,female,True,9702,9710,False,False,inspiration,expiration
235,117.0,25,M,down,0.6967785000015283,0.8786639308961768,,experiment,emotion,0.0,,,,972.236497599999,1009,20,female,True,9722,9729,False,False,expiration,inspiration
236,122.0,25,F,up,0.89521319999767,1.967352416191328,,experiment,emotion,0.0,,,,975.2030963999968,1009,20,female,True,9751,9760,False,False,inspiration,expiration
237,117.0,25,F,down,0.8966241000016453,1.293476468526393,,experiment,emotion,0.0,,,,977.6696912999977,1009,20,female,True,9776,9785,False,False,inspiration,expiration
238,117.0,25,F,down,0.809456400002091,1.776927874510483,,experiment,emotion,0.0,,,,980.6029019999988,1009,20,female,True,9805,9813,False,False,inspiration,inspiration
239,117.0,25,M,down,1.7712188000004971,1.8108154467394435,,experiment,emotion,0.0,,,,983.4861210999987,1009,20,female,True,9834,9852,False,False,inspiration,expiration
240,122.0,25,F,up,1.1639704000008348,0.452641790654627,,experiment,emotion,0.0,,,,985.9693441999988,1009,20,female,True,9859,9871,False,False,expiration,expiration
241,119.0,25,F,down,0.8469538999997894,0.38648300677691294,,experiment,emotion,0.0,,,,987.819318599999,1009,20,female,True,9877,9885,False,False,inspiration,expiration
242,114.0,25,F,down,0.5820127000006323,1.6716240871529815,,experiment,emotion,0.0,,,,990.6523267999984,1009,20,female,True,9906,9912,False,False,inspiration,expiration
243,114.0,25,M,up,1.0969160000022384,0.9605249903762134,,experiment,emotion,0.0,,,,992.4524457999977,1009,20,female,True,9924,9935,False,False,trough,inspiration
244,119.0,25,F,down,0.8766253000030702,1.6864955796258934,,experiment,emotion,0.0,,,,995.4856852999983,1009,20,female,True,9954,9963,False,False,expiration,expiration
245,122.0,25,M,down,1.1840794999989157,1.7616138770783418,,experiment,emotion,0.0,,,,998.4022332999994,1009,20,female,True,9983,9995,False,False,expiration,expiration
246,122.0,25,M,up,0.6592294999973092,0.7017578823595989,,experiment,emotion,0.0,,,,1000.5521489999992,1009,20,female,True,10005,10012,False,False,inspiration,peak
247,114.0,25,F,up,1.1676018000034674,0.5339407191115895,,experiment,emotion,0.0,,,,1002.0187510999968,1009,20,female,True,10020,10032,False,False,expiration,expiration
248,122.0,25,M,up,1.0305981999990763,1.1813027670626781,,experiment,emotion,0.0,,,,1004.6186753000003,1009,20,female,True,10046,10056,False,False,expiration,inspiration
249,117.0,25,F,down,0.7748009999995702,1.8677966395553611,,experiment,emotion,0.0,,,,1007.8185438999973,1009,20,female,True,10077,10085,False,False,expiration,expiration
250,119.0,25,M,up,0.7664518999990833,0.68815087789163,,experiment,emotion,0.0,,,,1009.5518568999977,1009,20,female,True,10095,10103,False,False,expiration,inspiration
251,117.0,25,F,down,0.9222082000014781,1.0392550242476601,,experiment,emotion,0.0,,,,1011.6351025999976,1009,20,female,True,10116,10125,False,False,expiration,expiration
252,114.0,25,M,down,0.5529920000008133,0.43265343709606063,,experiment,emotion,0.0,,,,1013.2683584999976,1009,20,female,True,10132,10138,False,False,inspiration,expiration
253,119.0,25,F,,,1.010704162764064,,experiment,emotion,0.0,,,,1015.0849535999988,1009,20,female,True,10150,0,False,False,expiration,0
254,117.0,25,F,up,1.3064611999980116,0.997473346140473,,experiment,emotion,0.0,,,,1018.7848572000003,1009,20,female,True,10187,10200,False,False,expiration,peak
255,119.0,25,F,up,0.8265667999985453,1.3069817872996032,,experiment,emotion,0.0,,,,1021.6847455999997,1009,20,female,True,10216,10224,False,False,inspiration,inspiration
256,114.0,25,F,down,0.7143557999988843,0.7772326176342832,,experiment,emotion,0.0,,,,1023.5679819999968,1009,20,female,True,10235,10242,False,False,expiration,trough
257,122.0,25,F,down,0.8304360000001907,1.9267396665908239,,experiment,emotion,0.0,,,,1026.5178530999983,1009,20,female,True,10264,10272,False,False,expiration,trough
258,119.0,25,M,down,0.6321945000017877,0.8185618971242636,,experiment,emotion,0.0,,,,1028.451143899998,1009,20,female,True,10284,10290,False,False,expiration,expiration
259,122.0,25,M,up,0.6305917999998201,1.3634828258473752,,experiment,emotion,0.0,,,,1030.7177053999983,1009,20,female,True,10306,10312,False,False,inspiration,expiration
260,114.0,25,M,down,0.7803468000020075,0.5848281268180439,,experiment,emotion,0.0,,,,1032.2009967999984,1009,20,female,True,10321,10329,False,False,expiration,inspiration
261,117.0,25,M,down,0.7434898999999859,1.8140654266252247,,experiment,emotion,0.0,,,,1035.1008907999967,1009,20,female,True,10350,10357,False,False,inspiration,inspiration
262,0.2032915922009553,25,up,down,1.0089486000033503,1.665451465505175,,experiment,cRDM,0.0,,,,1058.483361399998,1009,20,female,True,10584,10594,False,False,expiration,expiration
263,0.2032915922009553,25,up,up,0.6263999999973748,1.7909883212805102,,experiment,cRDM,0.0,,,,1061.5499106999996,1009,20,female,True,10615,10621,False,False,expiration,expiration
264,0.2032915922009553,25,down,down,0.3504955999997037,1.2834258325128525,,experiment,cRDM,0.0,,,,1063.7164898999981,1009,20,female,True,10636,10640,False,False,inspiration,expiration
265,0.2032915922009553,25,down,down,0.5542139000026509,0.5895236264647821,,experiment,cRDM,0.0,,,,1064.9831178999993,1009,20,female,True,10649,10655,False,False,expiration,inspiration
266,0.2032915922009553,25,up,up,0.6035830000000715,1.3688223425384038,,experiment,cRDM,0.0,,,,1067.1497232999973,1009,20,female,True,10671,10677,False,False,expiration,inspiration
267,0.2032915922009553,25,down,down,0.4168099999988044,0.34633300025610275,,experiment,cRDM,0.0,,,,1068.3496813999989,1009,20,female,True,10683,10687,False,False,peak,expiration
268,0.2032915922009553,25,up,up,0.983134300000529,1.8455075597218955,,experiment,cRDM,0.0,,,,1070.8662222999992,1009,20,female,True,10708,10718,False,False,inspiration,expiration
269,0.2032915922009553,25,up,down,0.31711039999936474,1.9383834503936064,,experiment,cRDM,0.0,,,,1074.049487999997,1009,20,female,True,10740,10743,False,False,expiration,expiration
270,0.2032915922009553,25,down,up,1.0012805000005756,1.3888003726021472,,experiment,cRDM,0.0,,,,1076.1160297999998,1009,20,female,True,10760,10770,False,False,inspiration,expiration
271,0.2032915922009553,25,down,down,0.3171666999987792,0.7080461437242636,,experiment,cRDM,0.0,,,,1078.0826172999987,1009,20,female,True,10780,10783,False,False,expiration,inspiration
272,0.2032915922009553,25,down,up,0.8163941999991948,1.4702543127349443,,experiment,cRDM,0.0,,,,1080.2158775999997,1009,20,female,True,10801,10809,False,False,expiration,expiration
273,0.2032915922009553,25,down,down,0.5429646999982651,1.5261536491153145,,experiment,cRDM,0.0,,,,1082.832357899999,1009,20,female,True,10828,10833,False,False,expiration,expiration
274,0.2032915922009553,25,down,up,0.8460942000019713,1.29692166056839,,experiment,cRDM,0.0,,,,1084.9322294999984,1009,20,female,True,10849,10857,False,False,trough,inspiration
275,0.2032915922009553,25,down,down,0.5496237999977893,1.1174004212912882,,experiment,cRDM,0.0,,,,1087.1656494999988,1009,20,female,True,10871,10876,False,False,expiration,expiration
276,0.2032915922009553,25,up,up,1.0052116000006208,0.5587358053947709,,experiment,cRDM,0.0,,,,1088.5320964999992,1009,20,female,True,10885,10895,False,False,inspiration,expiration
277,0.2032915922009553,25,up,down,0.6601523999997879,1.2790970821577587,,experiment,cRDM,0.0,,,,1091.0821634999993,1009,20,female,True,10910,10917,False,False,inspiration,peak
278,0.2032915922009553,25,up,down,0.5084504000005836,1.8366364667900847,,experiment,cRDM,0.0,,,,1093.8318094999997,1009,20,female,True,10938,10943,False,False,inspiration,inspiration
279,0.2032915922009553,25,up,up,1.752013100001932,1.6597463457821826,,experiment,cRDM,0.0,,,,1096.2652936999982,1009,20,female,True,10962,10980,False,False,inspiration,expiration
280,0.2032915922009553,25,down,down,0.6495681000014883,1.0584034913609632,,experiment,cRDM,0.0,,,,1099.3317203999975,1009,20,female,True,10993,10999,False,False,inspiration,peak
281,0.2032915922009553,25,up,down,1.0716079000012542,0.37479011587369976,,experiment,cRDM,0.0,,,,1100.6317151999974,1009,20,female,True,11006,11017,False,False,expiration,trough
282,0.2032915922009553,25,up,down,0.993282100000215,1.2502070913998766,,experiment,cRDM,0.0,,,,1103.2150256999994,1009,20,female,True,11031,11041,False,False,expiration,expiration
283,0.2032915922009553,25,down,up,1.0080397999990964,1.879923905680409,,experiment,cRDM,0.0,,,,1106.3482814999988,1009,20,female,True,11063,11073,False,False,expiration,inspiration
284,0.2032915922009553,25,up,down,1.1824813000021095,0.9928960335254396,,experiment,cRDM,0.0,,,,1108.6148522999974,1009,20,female,True,11085,11097,False,False,inspiration,expiration
285,0.2032915922009553,25,down,down,1.062258000001748,1.8409642257961485,,experiment,cRDM,0.0,,,,1111.8980470999998,1009,20,female,True,11118,11129,False,False,inspiration,inspiration
286,0.2032915922009553,25,down,down,0.6390460999973584,1.5662082617790594,,experiment,cRDM,0.0,,,,1114.7812919999997,1009,20,female,True,11147,11153,False,False,expiration,expiration
287,0.2032915922009553,25,up,up,0.4927341000002343,0.4816792501913326,,experiment,cRDM,0.0,,,,1116.1645733999976,1009,20,female,True,11161,11166,False,False,expiration,inspiration
288,0.2032915922009553,25,up,down,0.7974751000001561,1.5709124826626322,,experiment,cRDM,0.0,,,,1118.4978376,1009,20,female,True,11184,11192,False,False,expiration,inspiration
289,0.2032915922009553,25,down,up,0.4167793999986316,1.6856587727581052,,experiment,cRDM,0.0,,,,1121.2477137999997,1009,20,female,True,11212,11216,False,False,expiration,expiration
290,0.2032915922009553,25,up,up,0.9906120000014198,0.525210204288755,,experiment,cRDM,0.0,,,,1122.4476995999976,1009,20,female,True,11224,11234,False,False,inspiration,expiration
291,0.2032915922009553,25,down,down,0.4293765000002168,0.4211001840001375,,experiment,cRDM,0.0,,,,1124.1309544999967,1009,20,female,True,11241,11245,False,False,expiration,expiration
292,0.2032915922009553,25,down,down,0.4168385000011767,1.3446808825964889,,experiment,cRDM,0.0,,,,1126.1808722999995,1009,20,female,True,11261,11265,False,False,expiration,expiration
293,0.2032915922009553,25,down,down,0.38382160000037396,1.4111767344312995,,experiment,cRDM,0.0,,,,1128.2641172999975,1009,20,female,True,11282,11286,False,False,inspiration,peak
294,0.2032915922009553,25,up,up,0.8659394000023894,1.8494754107125118,,experiment,cRDM,0.0,,,,1130.7973661999968,1009,20,female,True,11307,11316,False,False,inspiration,expiration
295,0.2032915922009553,25,up,down,0.3505034000008891,1.4763623760853692,,experiment,cRDM,0.0,,,,1133.4139075999992,1009,20,female,True,11333,11337,False,False,inspiration,inspiration
296,0.2032915922009553,25,up,down,1.1029610000005048,1.3351949386013615,,experiment,cRDM,0.0,,,,1135.430347499998,1009,20,female,True,11354,11365,False,False,expiration,inspiration
297,0.2032915922009553,25,down,down,0.5322768999976688,1.6029584809811666,,experiment,cRDM,0.0,,,,1138.3970646999987,1009,20,female,True,11383,11388,False,False,expiration,trough
298,0.2032915922009553,25,down,down,0.6998257000013837,1.813376101468344,,experiment,cRDM,0.0,,,,1141.0134953999984,1009,20,female,True,11410,11417,False,False,expiration,expiration
299,0.2032915922009553,25,up,down,0.5768654999992577,1.6397800716362037,,experiment,cRDM,0.0,,,,1143.6134588999996,1009,20,female,True,11436,11442,False,False,expiration,expiration
300,0.2032915922009553,25,down,down,0.619125899997016,0.3151091008967887,,experiment,cRDM,0.0,,,,1144.7801793,1009,20,female,True,11447,11453,False,False,expiration,inspiration
301,0.2032915922009553,25,up,down,0.7961460000005899,0.5817266372660825,,experiment,cRDM,0.0,,,,1146.2301458999973,1009,20,female,True,11462,11470,False,False,expiration,expiration
302,0.2032915922009553,25,up,up,0.7693443999996816,1.897150348142508,,experiment,cRDM,0.0,,,,1149.1800388999984,1009,20,female,True,11491,11499,False,False,expiration,expiration
303,0.2032915922009553,25,up,up,0.8153268999994907,0.317395460245331,,experiment,cRDM,0.0,,,,1150.5299976999995,1009,20,female,True,11505,11513,False,False,trough,inspiration
304,0.2032915922009553,25,down,down,1.2180810999998355,1.054623334144285,,experiment,cRDM,0.0,,,,1152.663227699999,1009,20,female,True,11526,11538,False,False,expiration,inspiration
305,0.2032915922009553,25,down,down,1.1802055000007383,1.6521631977557334,,experiment,cRDM,0.0,,,,1155.8130893999987,1009,20,female,True,11558,11570,False,False,expiration,peak
306,0.2032915922009553,25,up,up,0.8638183000002755,1.9696107304382413,,experiment,cRDM,0.0,,,,1159.2295062999985,1009,20,female,True,11592,11601,False,False,inspiration,expiration
307,0.2032915922009553,25,down,down,0.7007134999985283,0.974793043768314,,experiment,cRDM,0.0,,,,1161.3295892999995,1009,20,female,True,11613,11620,False,False,inspiration,inspiration
308,0.2032915922009553,25,down,up,0.9318312999967021,1.0371983381247112,,experiment,cRDM,0.0,,,,1163.3295145999982,1009,20,female,True,11633,11642,False,False,expiration,inspiration
309,0.2032915922009553,25,up,down,0.7105694999991101,1.744816843224232,,experiment,cRDM,0.0,,,,1166.2627391999995,1009,20,female,True,11662,11669,False,False,expiration,inspiration
310,0.2032915922009553,25,up,up,0.9203164999998992,1.3036241013165408,,experiment,cRDM,0.0,,,,1168.5459736999985,1009,20,female,True,11685,11694,False,False,expiration,expiration
311,0.2032915922009553,25,down,down,0.6224432000017259,1.6224513383166366,,experiment,cRDM,0.0,,,,1171.345863999999,1009,20,female,True,11713,11719,False,False,expiration,expiration
312,0.2032915922009553,25,up,up,0.9393992999976036,1.7826005107336478,,experiment,cRDM,0.0,,,,1174.0289540999984,1009,20,female,True,11740,11749,False,False,expiration,expiration
313,0.2032915922009553,25,down,down,0.6036439999988943,1.5675249099478104,,experiment,cRDM,0.0,,,,1176.7956601999977,1009,20,female,True,11767,11773,False,False,expiration,expiration
314,0.2032915922009553,25,down,up,0.816054200000508,1.9495500223183424,,experiment,cRDM,0.0,,,,1179.612214599998,1009,20,female,True,11796,11804,False,False,expiration,expiration
315,0.2032915922009553,25,down,down,0.595567199998186,1.8885575326015565,,experiment,cRDM,0.0,,,,1182.5787885999996,1009,20,female,True,11825,11831,False,False,expiration,expiration
316,0.2032915922009553,25,up,up,0.6602466000003915,1.5376898332399662,,experiment,cRDM,0.0,,,,1184.9620458999998,1009,20,female,True,11849,11856,False,False,expiration,expiration
317,0.2032915922009553,25,up,up,0.8529853000000003,0.9651426705390792,,experiment,cRDM,0.0,,,,1186.845323999998,1009,20,female,True,11868,11877,False,False,inspiration,expiration
318,0.2032915922009553,25,down,down,0.5024553000002925,1.9464284427644545,,experiment,cRDM,0.0,,,,1189.9118533999972,1009,20,female,True,11898,11903,False,False,inspiration,expiration
319,0.2032915922009553,25,down,up,0.4851607000018703,0.8595497784519666,,experiment,cRDM,0.0,,,,1191.5451488,1009,20,female,True,11915,11920,False,False,expiration,inspiration
320,0.2032915922009553,25,up,up,0.7805990999986534,1.6683535275416264,,experiment,cRDM,0.0,,,,1193.961703699999,1009,20,female,True,11939,11947,False,False,expiration,inspiration
321,0.2032915922009553,25,up,up,0.8279930000026071,0.465515067323765,,experiment,cRDM,0.0,,,,1195.4783073,1009,20,female,True,11954,11962,False,False,inspiration,expiration
322,0.2032915922009553,25,up,down,0.4732676999992691,1.1620610495805483,,experiment,cRDM,0.0,,,,1197.7280929999981,1009,20,female,True,11977,11982,False,False,inspiration,inspiration
323,0.2032915922009553,25,up,up,0.86449850000281,1.8777269164463732,,experiment,cRDM,0.0,,,,1200.344815499997,1009,20,female,True,12003,12012,False,False,inspiration,expiration
324,0.2032915922009553,25,up,up,0.6182219000002078,1.3178920871318462,,experiment,cRDM,0.0,,,,1202.7780422999967,1009,20,female,True,12027,12033,False,False,inspiration,inspiration
325,0.2032915922009553,25,down,down,0.5699687000014819,1.408920326725682,,experiment,cRDM,0.0,,,,1205.0612832999975,1009,20,female,True,12050,12056,False,False,inspiration,inspiration
326,0.2032915922009553,25,down,down,0.5037579000018013,1.855307459581894,,experiment,cRDM,0.0,,,,1207.744544899997,1009,20,female,True,12077,12082,False,False,inspiration,inspiration
327,0.2032915922009553,25,up,up,0.7077762999979313,0.54154804119148,,experiment,cRDM,0.0,,,,1209.044507999999,1009,20,female,True,12090,12097,False,False,expiration,expiration
328,0.2032915922009553,25,down,down,0.7238265999985742,1.8125206115341472,,experiment,cRDM,0.0,,,,1211.827543899999,1009,20,female,True,12118,12125,False,False,expiration,expiration
329,0.2032915922009553,25,down,up,0.6784081999976479,0.4827668948875488,,experiment,cRDM,0.0,,,,1213.3109673000001,1009,20,female,True,12132,12139,False,False,inspiration,inspiration
330,0.2032915922009553,25,down,up,0.5357190000031551,0.624660678935145,,experiment,cRDM,0.0,,,,1214.8775843999977,1009,20,female,True,12148,12153,False,False,expiration,expiration
331,0.2032915922009553,25,up,down,0.7848071000007621,1.1929227972711356,,experiment,cRDM,0.0,,,,1216.8774990999989,1009,20,female,True,12168,12176,False,False,expiration,expiration
332,0.2032915922009553,25,down,down,0.6571784000007028,1.5075762103787909,,experiment,cRDM,0.0,,,,1219.4441131999993,1009,20,female,True,12194,12201,False,False,inspiration,inspiration
333,0.2032915922009553,25,down,up,1.2406706000001575,1.5817813350801275,,experiment,cRDM,0.0,,,,1221.9606660999998,1009,20,female,True,12219,12231,False,False,expiration,expiration
334,0.2032915922009553,25,down,up,0.905040599998756,1.109259975621312,,experiment,cRDM,0.0,,,,1224.5772593000004,1009,20,female,True,12245,12254,False,False,inspiration,expiration
335,0.2032915922009553,25,up,up,0.9298598999994284,1.2716955574866573,,experiment,cRDM,0.0,,,,1227.0104804000002,1009,20,female,True,12269,12278,False,False,inspiration,peak
336,0.2032915922009553,25,up,up,0.6548843999989913,0.75690660944204,,experiment,cRDM,0.0,,,,1228.9604450999975,1009,20,female,True,12289,12296,False,False,expiration,trough
337,0.2032915922009553,25,down,up,0.7384934999972756,1.8548475521596581,,experiment,cRDM,0.0,,,,1231.7268138,1009,20,female,True,12317,12324,False,False,expiration,expiration
338,0.2032915922009553,25,up,up,0.6674094999980298,1.1516352553997913,,experiment,cRDM,0.0,,,,1233.8768934999969,1009,20,female,True,12338,12345,False,False,inspiration,inspiration
339,0.2032915922009553,25,down,up,0.8375184999968042,1.6649377421750828,,experiment,cRDM,0.0,,,,1236.4767850999995,1009,20,female,True,12364,12372,False,False,expiration,expiration
340,0.2032915922009553,25,up,down,0.3336853999971936,1.3229593708661913,,experiment,cRDM,0.0,,,,1238.8933765000004,1009,20,female,True,12388,12391,False,False,peak,expiration
341,0.2032915922009553,25,up,down,0.4417799000002561,1.550695388888318,,experiment,cRDM,0.0,,,,1241.1265231999969,1009,20,female,True,12411,12415,False,False,inspiration,peak
342,122.0,25,M,up,0.5539979999994102,0.7870849099767174,,experiment,emotion,1.0,,,,1267.8423215000005,1009,20,female,True,12678,12684,False,False,expiration,expiration
343,114.0,25,M,down,0.4877297999992152,1.536648431809133,,experiment,emotion,1.0,,,,1270.2255656999987,1009,20,female,True,12702,12707,False,False,expiration,expiration
344,119.0,25,F,down,0.6891251999986707,0.4285190465074786,,experiment,emotion,1.0,,,,1271.442178199999,1009,20,female,True,12714,12721,False,False,expiration,expiration
345,122.0,25,F,up,0.6785576000002038,0.9513425688261096,,experiment,emotion,1.0,,,,1273.3587642999992,1009,20,female,True,12733,12740,False,False,expiration,expiration
346,119.0,25,M,down,0.7445981999990181,0.9615571118187368,,experiment,emotion,1.0,,,,1275.2587004999987,1009,20,female,True,12752,12759,False,False,expiration,expiration
347,117.0,25,F,down,0.5993656999999075,0.7107318014290631,,experiment,emotion,1.0,,,,1276.9919569999984,1009,20,female,True,12769,12775,False,False,expiration,inspiration
348,114.0,25,M,down,0.4657249999982014,1.3929715747474178,,experiment,emotion,1.0,,,,1279.2585703999976,1009,20,female,True,12792,12797,False,False,expiration,expiration
349,117.0,25,M,down,0.4874745999986772,1.4040123468938543,,experiment,emotion,1.0,,,,1281.3918282999985,1009,20,female,True,12813,12818,False,False,expiration,expiration
350,122.0,25,F,up,0.44058439999935217,1.8053435323354647,,experiment,emotion,1.0,,,,1283.991719499998,1009,20,female,True,12839,12843,False,False,expiration,inspiration
351,117.0,25,F,down,0.5410338000001502,1.9949336554587416,,experiment,emotion,1.0,,,,1286.7082668999976,1009,20,female,True,12866,12871,False,False,inspiration,inspiration
352,119.0,25,F,down,0.5761470999968878,1.8857009685663584,,experiment,emotion,1.0,,,,1289.4581733999985,1009,20,female,True,12894,12900,False,False,expiration,expiration
353,122.0,25,F,down,0.4992373000022781,0.9525104891227668,,experiment,emotion,1.0,,,,1291.258117999998,1009,20,female,True,12912,12917,False,False,expiration,trough
354,119.0,25,F,down,0.6272430999997596,0.4253132405252497,,experiment,emotion,1.0,,,,1292.4580653999985,1009,20,female,True,12924,12930,False,False,inspiration,expiration
355,114.0,25,F,down,0.8166467000010016,1.0111335746294028,,experiment,emotion,1.0,,,,1294.3746619999986,1009,20,female,True,12943,12951,False,False,expiration,expiration
356,117.0,25,M,down,0.7786957000025723,1.229661495739626,,experiment,emotion,1.0,,,,1296.6745953999996,1009,20,female,True,12966,12974,False,False,inspiration,expiration
357,114.0,25,M,down,0.7791574999973818,1.726357939627096,,experiment,emotion,1.0,,,,1299.441141299998,1009,20,female,True,12994,13002,False,False,inspiration,expiration
358,122.0,25,M,down,0.7395947000004526,1.3791186812282994,,experiment,emotion,1.0,,,,1301.8577098999995,1009,20,female,True,13018,13025,False,False,inspiration,peak
359,114.0,25,M,down,0.7086273999993864,0.5779427602223683,,experiment,emotion,1.0,,,,1303.4576688999987,1009,20,female,True,13034,13041,False,False,expiration,expiration
360,119.0,25,F,down,0.72540950000257,1.768209920078757,,experiment,emotion,1.0,,,,1306.240888299999,1009,20,female,True,13062,13069,False,False,expiration,expiration
361,119.0,25,M,down,0.6938396000005014,1.4346656862993574,,experiment,emotion,1.0,,,,1308.6574640000001,1009,20,female,True,13086,13093,False,False,inspiration,expiration
362,117.0,25,M,up,0.8366526999998314,1.3821550300910668,,experiment,emotion,1.0,,,,1311.0407503999995,1009,20,female,True,13110,13118,False,False,inspiration,expiration
363,117.0,25,F,down,0.5826911000003747,0.9010393247104558,,experiment,emotion,1.0,,,,1313.040632199998,1009,20,female,True,13130,13136,False,False,expiration,inspiration
364,114.0,25,M,up,0.8750651000009384,1.5802118966873435,,experiment,emotion,1.0,,,,1315.4572348999973,1009,20,female,True,13154,13163,False,False,expiration,expiration
365,122.0,25,F,up,0.5561658000005991,1.2383538886637748,,experiment,emotion,1.0,,,,1317.8571342999967,1009,20,female,True,13178,13184,False,False,expiration,expiration
366,119.0,25,F,down,0.6582393999997294,1.8841951902313148,,experiment,emotion,1.0,,,,1320.5570683999977,1009,20,female,True,13205,13212,False,False,peak,expiration
367,114.0,25,M,up,0.5919993000024988,0.5950830747556796,,experiment,emotion,1.0,,,,1322.0902928999967,1009,20,female,True,13220,13226,False,False,expiration,inspiration
368,122.0,25,M,down,0.4730845000012778,1.0355565470930737,,experiment,emotion,1.0,,,,1323.9902393999982,1009,20,female,True,13239,13244,False,False,expiration,expiration
369,122.0,25,F,down,0.6661404999977094,1.5690684148046974,,experiment,emotion,1.0,,,,1326.2901466999976,1009,20,female,True,13262,13269,False,False,inspiration,expiration
370,117.0,25,M,up,0.6258765999991738,0.8639974284252236,,experiment,emotion,1.0,,,,1328.1234232999996,1009,20,female,True,13281,13287,False,False,inspiration,inspiration
371,114.0,25,F,down,0.4329259999976785,1.567285501643548,,experiment,emotion,1.0,,,,1330.5733398999982,1009,20,female,True,13305,13309,False,False,expiration,inspiration
372,117.0,25,F,down,0.4848569999994652,1.633455080402038,,experiment,emotion,1.0,,,,1332.9064910999987,1009,20,female,True,13329,13334,False,False,expiration,expiration
373,119.0,25,F,down,0.6909204999974463,1.6191146753660952,,experiment,emotion,1.0,,,,1335.306379499998,1009,20,female,True,13353,13360,False,False,expiration,expiration
374,114.0,25,M,down,0.593569299999217,0.9302146298920158,,experiment,emotion,1.0,,,,1337.1897330999998,1009,20,female,True,13371,13377,False,False,inspiration,peak
375,122.0,25,M,up,0.8863071000014315,1.872049805630294,,experiment,emotion,1.0,,,,1339.9729899999984,1009,20,female,True,13399,13408,False,False,inspiration,expiration
376,119.0,25,M,up,0.4168071999993117,0.8121670365022384,,experiment,emotion,1.0,,,,1341.9395695999992,1009,20,female,True,13419,13423,False,False,expiration,trough
377,122.0,25,F,down,0.5383011999983864,1.1827963640183894,,experiment,emotion,1.0,,,,1343.8060236999988,1009,20,female,True,13438,13443,False,False,inspiration,peak
378,114.0,25,F,down,1.4441468000004534,0.4392704327828653,,experiment,emotion,1.0,,,,1345.0561308999968,1009,20,female,True,13450,13464,False,False,expiration,expiration
379,119.0,25,M,down,0.9896073999989312,1.2164555783710616,,experiment,emotion,1.0,,,,1347.9726810999998,1009,20,female,True,13479,13489,False,False,peak,expiration
380,117.0,25,F,up,0.4587090999993961,1.3002689414837827,,experiment,emotion,1.0,,,,1350.5726108999988,1009,20,female,True,13505,13510,False,False,inspiration,inspiration
381,117.0,25,M,up,0.6800820999997086,0.9440722458051878,,experiment,emotion,1.0,,,,1352.2392166999996,1009,20,female,True,13522,13529,False,False,expiration,inspiration
382,119.0,25,M,down,0.952709799999866,1.6221714618919951,,experiment,emotion,1.0,,,,1354.8055870999995,1009,20,female,True,13548,13558,False,False,expiration,expiration
383,122.0,25,M,up,0.42695869999806746,1.4407409977862222,,experiment,emotion,1.0,,,,1357.4723404999968,1009,20,female,True,13574,13578,False,False,inspiration,inspiration
384,117.0,25,F,down,1.1073692999998457,1.667676942923061,,experiment,emotion,1.0,,,,1359.838926299999,1009,20,female,True,13598,13609,False,False,expiration,inspiration
385,114.0,25,F,down,0.6177771999973629,0.3239737483402925,,experiment,emotion,1.0,,,,1361.5555244999996,1009,20,female,True,13615,13621,False,False,peak,expiration
386,114.0,25,M,down,1.0139945000009902,1.0451377366746042,,experiment,emotion,1.0,,,,1363.5052617999972,1009,20,female,True,13635,13645,False,False,inspiration,expiration
387,117.0,25,F,down,1.2022828999979538,1.634241770984989,,experiment,emotion,1.0,,,,1366.4220115999995,1009,20,female,True,13664,13676,False,False,inspiration,expiration
388,122.0,25,F,up,0.3834965000023658,1.1774401126737246,,experiment,emotion,1.0,,,,1369.0719052999993,1009,20,female,True,13690,13694,False,False,inspiration,inspiration
389,119.0,25,M,down,0.7405139000002237,1.8485528412032424,,experiment,emotion,1.0,,,,1371.6218188999992,1009,20,female,True,13716,13723,False,False,inspiration,expiration
390,114.0,25,M,down,0.539890000000014,0.6573102629969649,,experiment,emotion,1.0,,,,1373.2884271999976,1009,20,female,True,13732,13737,False,False,expiration,inspiration
391,122.0,25,F,up,0.7929550000008021,0.8447387506027437,,experiment,emotion,1.0,,,,1374.9383392999991,1009,20,female,True,13749,13757,False,False,expiration,expiration
392,119.0,25,M,down,0.7266744000007748,1.2172149868895572,,experiment,emotion,1.0,,,,1377.2216245999991,1009,20,female,True,13772,13779,False,False,peak,expiration
393,119.0,25,F,down,0.8387875000007625,0.6659604393841666,,experiment,emotion,1.0,,,,1378.8715561999998,1009,20,female,True,13788,13796,False,False,inspiration,inspiration
394,114.0,25,F,down,0.7207955999983824,0.6956968335209194,,experiment,emotion,1.0,,,,1380.6714977999982,1009,20,female,True,13806,13813,False,False,expiration,expiration
395,117.0,25,F,up,0.4218834999992396,0.9809626499696632,,experiment,emotion,1.0,,,,1382.6714171999995,1009,20,female,True,13826,13830,False,False,expiration,inspiration
396,122.0,25,M,up,0.477944900001603,1.8110306002102268,,experiment,emotion,1.0,,,,1385.1713244999994,1009,20,female,True,13851,13856,False,False,expiration,expiration
397,117.0,25,M,down,0.6750492999999551,1.4007073851319032,,experiment,emotion,1.0,,,,1387.3212365,1009,20,female,True,13873,13880,False,False,inspiration,inspiration
398,117.0,25,F,up,0.5564999999987776,1.7659374798567082,,experiment,emotion,1.0,,,,1390.0377999999982,1009,20,female,True,13900,13906,False,False,expiration,expiration
399,117.0,25,F,up,0.7232308999991801,1.0022951110005351,,experiment,emotion,1.0,,,,1391.8710655999967,1009,20,female,True,13918,13925,False,False,inspiration,expiration
400,122.0,25,M,up,0.7761030000001483,0.928599026527542,,experiment,emotion,1.0,,,,1393.8041798999984,1009,20,female,True,13938,13946,False,False,expiration,expiration
401,119.0,25,M,down,0.9077362000025458,0.7081226945041312,,experiment,emotion,1.0,,,,1395.5876033999994,1009,20,female,True,13955,13964,False,False,inspiration,expiration
402,114.0,25,M,down,0.8719400000009045,1.2887983699722927,,experiment,emotion,1.0,,,,1398.0875138999982,1009,20,female,True,13980,13989,False,False,expiration,expiration
403,114.0,25,M,down,0.7841977999996743,1.0372254093044977,,experiment,emotion,1.0,,,,1400.2540859999972,1009,20,female,True,14002,14010,False,False,inspiration,expiration
404,119.0,25,M,down,0.6582608999997319,0.7488589973884572,,experiment,emotion,1.0,,,,1402.0540402999975,1009,20,female,True,14020,14027,False,False,expiration,expiration
405,122.0,25,F,down,0.5576679000005242,0.6638274095669072,,experiment,emotion,1.0,,,,1403.6706275999966,1009,20,female,True,14036,14042,False,False,expiration,inspiration
406,122.0,25,F,up,0.7490883000027679,1.926187771684117,,experiment,emotion,1.0,,,,1406.4372057999972,1009,20,female,True,14064,14071,False,False,expiration,expiration
407,114.0,25,M,down,0.6421702000006917,0.3851313239218678,,experiment,emotion,1.0,,,,1407.8371232999998,1009,20,female,True,14078,14084,False,False,inspiration,inspiration
408,122.0,25,F,up,0.4322315999997953,0.5343282704192877,,experiment,emotion,1.0,,,,1409.2870890999984,1009,20,female,True,14092,14096,False,False,expiration,expiration
409,117.0,25,F,down,0.6959184000006644,1.9864317676306182,,experiment,emotion,1.0,,,,1412.020346199999,1009,20,female,True,14120,14127,False,False,expiration,expiration
410,119.0,25,F,up,0.456340700002329,0.8432900756167443,,experiment,emotion,1.0,,,,1413.836936399999,1009,20,female,True,14138,14143,False,False,trough,inspiration
411,117.0,25,M,up,0.5684051999996882,0.4804212204138647,,experiment,emotion,1.0,,,,1415.0368925999976,1009,20,female,True,14150,14156,False,False,expiration,expiration
412,114.0,25,F,down,0.5541374000022188,0.6908251589845299,,experiment,emotion,1.0,,,,1416.5701626999978,1009,20,female,True,14165,14171,False,False,expiration,inspiration
413,119.0,25,F,down,1.0905276000012236,0.3083072346509449,,experiment,emotion,1.0,,,,1417.6867628999973,1009,20,female,True,14176,14187,False,False,inspiration,expiration
414,117.0,25,F,down,1.1783772000017052,0.915344013818475,,experiment,emotion,1.0,,,,1419.9700329999978,1009,20,female,True,14199,14211,False,False,inspiration,expiration
415,119.0,25,M,up,0.7784092000001692,1.8926912556067168,,experiment,emotion,1.0,,,,1423.3199175999978,1009,20,female,True,14233,14241,False,False,inspiration,expiration
416,114.0,25,M,down,0.7307493000007526,0.3168636177572799,,experiment,emotion,1.0,,,,1424.6865532999982,1009,20,female,True,14246,14253,False,False,expiration,inspiration
417,122.0,25,F,up,0.5385870999998588,1.009249533018179,,experiment,emotion,1.0,,,,1426.7197334999985,1009,20,female,True,14267,14272,False,False,expiration,expiration
418,119.0,25,M,down,0.5135578000008536,0.3558281201641545,,experiment,emotion,1.0,,,,1427.8697426,1009,20,female,True,14278,14283,False,False,trough,inspiration
419,122.0,25,F,down,0.5116017000000284,0.9094491347978332,,experiment,emotion,1.0,,,,1429.5696927999998,1009,20,female,True,14295,14300,False,False,expiration,expiration
420,114.0,25,M,up,0.38347119999889395,1.2425907762646156,,experiment,emotion,1.0,,,,1431.5862840999978,1009,20,female,True,14315,14319,False,False,inspiration,expiration
421,117.0,25,M,down,0.3001698999978544,1.0078727191803198,,experiment,emotion,1.0,,,,1433.2862036999975,1009,20,female,True,14332,14335,False,False,inspiration,inspiration
422,0.2032915922009553,25,up,down,0.6826355999983207,1.658849334383713,,experiment,cRDM,1.0,,,,1457.2686715999992,1009,20,female,True,14572,14579,False,False,expiration,expiration
423,0.2032915922009553,25,up,down,0.8040811000028043,1.8609717996550852,,experiment,cRDM,1.0,,,,1460.0851994999975,1009,20,female,True,14600,14608,False,False,expiration,expiration
424,0.2032915922009553,25,down,up,0.5114852000006067,1.6022661627090768,,experiment,cRDM,1.0,,,,1462.7517924999993,1009,20,female,True,14627,14632,False,False,inspiration,expiration
425,0.2032915922009553,25,down,down,0.3504662999985157,1.0056920649007313,,experiment,cRDM,1.0,,,,1464.535065,1009,20,female,True,14645,14649,False,False,expiration,expiration
426,0.2032915922009553,25,up,up,0.5689427000033902,0.5969244124668622,,experiment,cRDM,1.0,,,,1465.8183675,1009,20,female,True,14658,14664,False,False,inspiration,peak
427,0.2032915922009553,25,down,down,0.4168449999997392,1.5989682274649453,,experiment,cRDM,1.0,,,,1468.251583199999,1009,20,female,True,14682,14686,False,False,expiration,expiration
428,0.2032915922009553,25,up,up,0.926095200000418,1.8487649916461768,,experiment,cRDM,1.0,,,,1470.7681976999993,1009,20,female,True,14707,14716,False,False,expiration,expiration
429,0.2032915922009553,25,up,up,0.7159103999983927,1.7896233447048586,,experiment,cRDM,1.0,,,,1473.7513830999994,1009,20,female,True,14737,14744,False,False,expiration,expiration
430,0.2032915922009553,25,down,down,0.4206535999983316,1.7017660638120131,,experiment,cRDM,1.0,,,,1476.4346448999966,1009,20,female,True,14764,14768,False,False,expiration,expiration
431,0.2032915922009553,25,down,up,0.6587188999983482,0.6168230148122928,,experiment,cRDM,1.0,,,,1477.7345967,1009,20,female,True,14777,14784,False,False,expiration,inspiration
432,0.2032915922009553,25,down,down,0.4776549999987765,0.8585790698747601,,experiment,cRDM,1.0,,,,1479.5176698999967,1009,20,female,True,14795,14800,False,False,inspiration,inspiration
433,0.2032915922009553,25,down,down,0.5655938999989303,0.9510739271123024,,experiment,cRDM,1.0,,,,1481.2177029999984,1009,20,female,True,14812,14818,False,False,expiration,expiration
434,0.2032915922009553,25,down,up,0.9692546000005676,1.0476675340676622,,experiment,cRDM,1.0,,,,1483.101033699997,1009,20,female,True,14830,14840,False,False,inspiration,expiration
435,0.2032915922009553,25,down,down,0.656835099998716,1.8807332374222259,,experiment,cRDM,1.0,,,,1486.2174896999966,1009,20,female,True,14862,14869,False,False,expiration,inspiration
436,0.2032915922009553,25,up,up,0.5454327000006742,1.303266781894704,,experiment,cRDM,1.0,,,,1488.4508658999985,1009,20,female,True,14884,14889,False,False,inspiration,inspiration
437,0.2032915922009553,25,up,up,1.1148917999998955,1.8573811956731416,,experiment,cRDM,1.0,,,,1491.1174345000002,1009,20,female,True,14911,14922,False,False,inspiration,inspiration
438,0.2032915922009553,25,up,down,0.5898484999997889,0.8051571568572635,,experiment,cRDM,1.0,,,,1493.3004703999975,1009,20,female,True,14933,14939,False,False,inspiration,expiration
439,0.2032915922009553,25,up,up,0.583050600002025,1.405084861361751,,experiment,cRDM,1.0,,,,1495.5672417999995,1009,20,female,True,14955,14961,False,False,inspiration,peak
440,0.2032915922009553,25,down,down,0.9123242000023309,0.997856837628587,,experiment,cRDM,1.0,,,,1497.4169691999994,1009,20,female,True,14974,14983,False,False,expiration,expiration
441,0.2032915922009553,25,up,up,0.622123000001011,0.5769169820955155,,experiment,cRDM,1.0,,,,1499.1671154999967,1009,20,female,True,14991,14997,False,False,inspiration,expiration
442,0.2032915922009553,25,up,up,0.5736151999990398,1.1381082107747786,,experiment,cRDM,1.0,,,,1501.183704799998,1009,20,female,True,15011,15017,False,False,expiration,inspiration
443,0.2032915922009553,25,down,down,0.40034400000149617,1.5995861073004174,,experiment,cRDM,1.0,,,,1503.6168738999984,1009,20,female,True,15036,15040,False,False,expiration,expiration
444,0.2032915922009553,25,up,up,1.1117473000012978,0.9527513763207156,,experiment,cRDM,1.0,,,,1505.2335996999973,1009,20,female,True,15052,15063,False,False,peak,inspiration
445,0.2032915922009553,25,down,down,0.4411933000010322,1.689443938958212,,experiment,cRDM,1.0,,,,1508.3000995999973,1009,20,female,True,15082,15086,False,False,expiration,inspiration
446,0.2032915922009553,25,down,down,1.2387305000011108,1.8112953144024042,,experiment,cRDM,1.0,,,,1510.8165589999992,1009,20,female,True,15108,15120,False,False,expiration,expiration
447,0.2032915922009553,25,up,up,0.5063332999998238,0.5358253974293159,,experiment,cRDM,1.0,,,,1512.8499436999994,1009,20,female,True,15128,15133,False,False,expiration,expiration
448,0.2032915922009553,25,up,down,0.9251162000000476,1.4614729081585844,,experiment,cRDM,1.0,,,,1515.083229799999,1009,20,female,True,15150,15159,False,False,inspiration,expiration
449,0.2032915922009553,25,down,up,0.5371545999987575,0.3127156810019941,,experiment,cRDM,1.0,,,,1516.5831375999987,1009,20,female,True,15165,15170,False,False,expiration,expiration
450,0.2032915922009553,25,up,down,0.9512490000015532,0.8686356127695403,,experiment,cRDM,1.0,,,,1518.2331018999976,1009,20,female,True,15182,15192,False,False,inspiration,expiration
451,0.2032915922009553,25,down,up,0.8315987000023597,0.9493982558203278,,experiment,cRDM,1.0,,,,1520.399648999999,1009,20,female,True,15204,15212,False,False,expiration,expiration
452,0.2032915922009553,25,down,down,0.6126793999974325,1.0507681639383806,,experiment,cRDM,1.0,,,,1522.5496054999967,1009,20,female,True,15225,15231,False,False,inspiration,expiration
453,0.2032915922009553,25,down,up,0.30046979999679024,1.2091983410770375,,experiment,cRDM,1.0,,,,1524.6328996999982,1009,20,female,True,15246,15249,False,False,inspiration,inspiration
454,0.2032915922009553,25,up,up,0.8513320000020028,0.8175967242801023,,experiment,cRDM,1.0,,,,1526.1159588999978,1009,20,female,True,15261,15270,False,False,expiration,expiration
455,0.2032915922009553,25,up,up,0.9069398999999976,1.6337947809616291,,experiment,cRDM,1.0,,,,1528.8493667999976,1009,20,female,True,15288,15297,False,False,inspiration,inspiration
456,0.2032915922009553,25,up,up,0.770977899999707,0.465565321494395,,experiment,cRDM,1.0,,,,1530.4993107999978,1009,20,female,True,15305,15313,False,False,expiration,expiration
457,0.2032915922009553,25,down,up,0.8497445999964839,1.192980727364363,,experiment,cRDM,1.0,,,,1532.7325676999972,1009,20,female,True,15327,15335,False,False,inspiration,expiration
458,0.2032915922009553,25,down,down,0.33406969999850844,0.6515126931514204,,experiment,cRDM,1.0,,,,1534.4825017999976,1009,20,female,True,15344,15347,False,False,expiration,inspiration
459,0.2032915922009553,25,up,down,0.6415773000007903,1.2034613089976058,,experiment,cRDM,1.0,,,,1536.3657432,1009,20,female,True,15363,15369,False,False,expiration,expiration
460,0.2032915922009553,25,down,down,0.4608549000004132,1.1497673855681625,,experiment,cRDM,1.0,,,,1538.415465099999,1009,20,female,True,15384,15389,False,False,inspiration,expiration
461,0.2032915922009553,25,up,up,0.4167942000021867,0.5189573890329395,,experiment,cRDM,1.0,,,,1539.6656211999978,1009,20,female,True,15396,15400,False,False,expiration,expiration
462,0.2032915922009553,25,up,up,0.8578799000024446,1.8719481781487088,,experiment,cRDM,1.0,,,,1542.2154164999995,1009,20,female,True,15422,15431,False,False,expiration,inspiration
463,0.2032915922009553,25,up,down,0.3670343000012508,1.0048014149239937,,experiment,cRDM,1.0,,,,1544.3487742999966,1009,20,female,True,15443,15447,False,False,expiration,expiration
464,0.2032915922009553,25,down,down,0.7352225000031467,1.8003087632473112,,experiment,cRDM,1.0,,,,1546.8320503999967,1009,20,female,True,15468,15475,False,False,expiration,expiration
465,0.2032915922009553,25,down,down,0.7417890000033367,1.8822073132790889,,experiment,cRDM,1.0,,,,1549.7154988999973,1009,20,female,True,15497,15504,False,False,expiration,expiration
466,0.2032915922009553,25,up,up,0.4584881999981008,1.4199832730930804,,experiment,cRDM,1.0,,,,1552.1318546000002,1009,20,female,True,15521,15526,False,False,inspiration,expiration
467,0.2032915922009553,25,down,down,0.5015400000011141,1.9274297598773849,,experiment,cRDM,1.0,,,,1554.781753299998,1009,20,female,True,15547,15552,False,False,inspiration,expiration
468,0.2032915922009553,25,down,down,0.7299746999997296,1.103137115765617,,experiment,cRDM,1.0,,,,1556.6483284999995,1009,20,female,True,15566,15573,False,False,inspiration,inspiration
469,0.2032915922009553,25,up,down,0.8250786999997217,1.859558428589697,,experiment,cRDM,1.0,,,,1559.498214299998,1009,20,female,True,15594,15602,False,False,inspiration,expiration
470,0.2032915922009553,25,up,down,0.7372309999991558,1.7176004583643791,,experiment,cRDM,1.0,,,,1562.298125199999,1009,20,female,True,15622,15629,False,False,inspiration,expiration
471,0.2032915922009553,25,down,up,0.5022910000006959,1.8437078030000404,,experiment,cRDM,1.0,,,,1565.1480193999994,1009,20,female,True,15651,15656,False,False,inspiration,expiration
472,0.2032915922009553,25,up,down,0.7249750000009954,0.9688102576266704,,experiment,cRDM,1.0,,,,1566.8812865999969,1009,20,female,True,15668,15675,False,False,expiration,inspiration
473,0.2032915922009553,25,down,down,0.7104479999979958,1.7409838536529838,,experiment,cRDM,1.0,,,,1569.597827499998,1009,20,female,True,15695,15702,False,False,trough,inspiration
474,0.2032915922009553,25,down,down,0.7766303999997035,1.826132819441689,,experiment,cRDM,1.0,,,,1572.397757499999,1009,20,female,True,15723,15731,False,False,expiration,trough
475,0.2032915922009553,25,down,down,0.670286100001249,1.4472470095909649,,experiment,cRDM,1.0,,,,1574.8810032999972,1009,20,female,True,15748,15755,False,False,expiration,expiration
476,0.2032915922009553,25,up,up,0.5230042000002868,1.3976729243280068,,experiment,cRDM,1.0,,,,1577.2142706999985,1009,20,female,True,15772,15777,False,False,inspiration,expiration
477,0.2032915922009553,25,up,up,0.8419834999986051,1.197004624081781,,experiment,cRDM,1.0,,,,1579.1973197999978,1009,20,female,True,15792,15800,False,False,expiration,inspiration
478,0.2032915922009553,25,down,,,0.710541786626143,,experiment,cRDM,1.0,,,,1580.9974029999976,1009,20,female,True,15809,0,False,False,expiration,0
479,0.2032915922009553,25,down,down,0.06719339999835937,0.9275072913597642,,experiment,cRDM,1.0,,,,1584.5972796999995,1009,20,female,True,15845,15846,False,False,expiration,expiration
480,0.2032915922009553,25,up,down,1.2010838999995028,0.5204512233336416,,experiment,cRDM,1.0,,,,1585.7972415999975,1009,20,female,True,15857,15869,False,False,expiration,inspiration
481,0.2032915922009553,25,up,up,0.8798218999982055,1.6150184843353412,,experiment,cRDM,1.0,,,,1588.8804693999994,1009,20,female,True,15888,15897,False,False,inspiration,expiration
482,0.2032915922009553,25,up,down,0.4167762000033689,1.0439769863010748,,experiment,cRDM,1.0,,,,1591.0470922999993,1009,20,female,True,15910,15914,False,False,trough,inspiration
483,0.2032915922009553,25,up,up,1.0129005999988294,0.9103608221211688,,experiment,cRDM,1.0,,,,1592.6303506999975,1009,20,female,True,15926,15936,False,False,expiration,expiration
484,0.2032915922009553,25,up,up,0.819019999999,1.56444387297897,,experiment,cRDM,1.0,,,,1595.4802651999996,1009,20,female,True,15954,15962,False,False,expiration,expiration
485,0.2032915922009553,25,down,down,0.4301553000004788,1.906739539410211,,experiment,cRDM,1.0,,,,1598.4801259999986,1009,20,female,True,15984,15988,False,False,expiration,expiration
486,0.2032915922009553,25,down,up,0.7492603999999119,0.9514666198440092,,experiment,cRDM,1.0,,,,1600.1300601999976,1009,20,female,True,16001,16008,False,False,inspiration,expiration
487,0.2032915922009553,25,up,down,1.260769500000606,0.5453084252276242,,experiment,cRDM,1.0,,,,1601.6965161999979,1009,20,female,True,16017,16030,False,False,expiration,inspiration
488,0.2032915922009553,25,down,up,0.7721025999999256,1.6372599556362624,,experiment,cRDM,1.0,,,,1604.8632208999989,1009,20,female,True,16048,16056,False,False,expiration,inspiration
489,0.2032915922009553,25,down,down,0.511485700000776,1.4862470905075251,,experiment,cRDM,1.0,,,,1607.3797796,1009,20,female,True,16073,16078,False,False,expiration,inspiration
490,0.2032915922009553,25,down,up,0.5822082999984559,0.3084934117149365,,experiment,cRDM,1.0,,,,1608.4630781999986,1009,20,female,True,16084,16090,False,False,inspiration,expiration
491,0.2032915922009553,25,up,up,0.6946205999993253,1.5628804728530044,,experiment,cRDM,1.0,,,,1610.8796650999975,1009,20,female,True,16108,16115,False,False,inspiration,expiration
492,0.2032915922009553,25,down,down,1.1867082999997365,1.5495585151127984,,experiment,cRDM,1.0,,,,1613.3795756999968,1009,20,female,True,16133,16145,False,False,inspiration,expiration
493,0.2032915922009553,25,down,up,0.6528472999998485,1.0470917665335555,,experiment,cRDM,1.0,,,,1615.8794817999988,1009,20,female,True,16158,16165,False,False,trough,inspiration
494,0.2032915922009553,25,down,up,0.6375293999990389,0.4798282221701711,,experiment,cRDM,1.0,,,,1617.2627644999993,1009,20,female,True,16172,16178,False,False,expiration,expiration
495,0.2032915922009553,25,up,down,0.5172472000012931,0.7848461075890488,,experiment,cRDM,1.0,,,,1618.9460362999996,1009,20,female,True,16189,16194,False,False,inspiration,inspiration
496,0.2032915922009553,25,up,down,0.7839988000014273,1.8087767667311487,,experiment,cRDM,1.0,,,,1621.5292745999975,1009,20,female,True,16215,16223,False,False,inspiration,peak
497,0.2032915922009553,25,down,up,0.6617602000005718,1.1868586940184933,,experiment,cRDM,1.0,,,,1623.7625150999993,1009,20,female,True,16237,16244,False,False,expiration,inspiration
498,0.2032915922009553,25,up,up,0.6777999000005366,0.6414305325279714,,experiment,cRDM,1.0,,,,1625.3124962000004,1009,20,female,True,16253,16260,False,False,expiration,expiration
499,0.2032915922009553,25,down,down,0.718215799999598,0.6786727812835975,,experiment,cRDM,1.0,,,,1626.9290667999994,1009,20,female,True,16269,16276,False,False,inspiration,inspiration
500,0.2032915922009553,25,up,up,0.7673052999998617,1.0670372279811853,,experiment,cRDM,1.0,,,,1628.9789816999985,1009,20,female,True,16289,16297,False,False,expiration,inspiration
501,0.2032915922009553,25,up,up,1.1896661999999196,1.399158106487411,,experiment,cRDM,1.0,,,,1631.3955940999986,1009,20,female,True,16314,16326,False,False,expiration,inspiration
502,122.0,25,M,up,0.6130499999999302,1.947376949288245,,experiment,emotion,2.0,,,,1677.4272160999972,1009,20,female,True,16774,16780,False,False,expiration,inspiration
503,114.0,25,M,down,0.6538043000000471,0.5086239883073816,,experiment,emotion,2.0,,,,1678.860525,1009,20,female,True,16788,16795,False,False,expiration,expiration
504,119.0,25,F,down,0.539932100000442,1.7849546038756932,,experiment,emotion,2.0,,,,1681.6103819999992,1009,20,female,True,16816,16821,False,False,expiration,expiration
505,122.0,25,F,up,0.4780023000021174,1.6492898322554832,,experiment,emotion,2.0,,,,1684.0602875999975,1009,20,female,True,16840,16845,False,False,expiration,expiration
506,119.0,25,M,up,0.7506802000025345,0.3348512712447247,,experiment,emotion,2.0,,,,1685.1435996999974,1009,20,female,True,16851,16859,False,False,expiration,inspiration
507,117.0,25,F,up,0.5888692999978957,0.4030191935614442,,experiment,emotion,2.0,,,,1686.5934163999993,1009,20,female,True,16866,16872,False,False,expiration,expiration
508,114.0,25,M,down,1.021465600002557,1.6878513466225191,,experiment,emotion,2.0,,,,1689.1267902999969,1009,20,female,True,16891,16901,False,False,peak,expiration
509,117.0,25,M,down,0.8948926000011852,0.6175493320675027,,experiment,emotion,2.0,,,,1691.0433874999978,1009,20,female,True,16910,16919,False,False,inspiration,expiration
510,122.0,25,F,up,0.7513609000016004,1.2502684862626878,,experiment,emotion,2.0,,,,1693.4599731999988,1009,20,female,True,16934,16942,False,False,inspiration,peak
511,117.0,25,F,down,0.6723941000018385,0.9247979117619194,,experiment,emotion,2.0,,,,1695.4098896999967,1009,20,female,True,16954,16961,False,False,expiration,inspiration
512,119.0,25,F,up,0.7461460999984411,1.0818781389474668,,experiment,emotion,2.0,,,,1697.4431377,1009,20,female,True,16974,16981,False,False,peak,expiration
513,122.0,25,F,up,0.8553740999996079,1.7383464626238814,,experiment,emotion,2.0,,,,1700.1929385999977,1009,20,female,True,17002,17011,False,False,inspiration,expiration
514,119.0,25,F,down,0.6899520999977541,0.6031752880689869,,experiment,emotion,2.0,,,,1701.9263333999988,1009,20,female,True,17019,17026,False,False,expiration,expiration
515,114.0,25,F,down,0.5675424000000929,1.2952335482264468,,experiment,emotion,2.0,,,,1704.192771599999,1009,20,female,True,17042,17048,False,False,expiration,expiration
516,117.0,25,M,down,0.8617733999999473,1.1689627670913618,,experiment,emotion,2.0,,,,1706.2095196999978,1009,20,female,True,17062,17071,False,False,expiration,expiration
517,114.0,25,M,down,0.5575366999983089,0.503917450351132,,experiment,emotion,2.0,,,,1707.8427448999973,1009,20,female,True,17078,17084,False,False,inspiration,expiration
518,122.0,25,M,down,0.6577937000001839,1.331920098051262,,experiment,emotion,2.0,,,,1709.9925235999979,1009,20,female,True,17100,17107,False,False,expiration,inspiration
519,114.0,25,M,down,0.5647871000001032,0.9744433577488758,,experiment,emotion,2.0,,,,1711.892499499998,1009,20,female,True,17119,17125,False,False,expiration,expiration
520,119.0,25,F,down,0.7268571999993583,0.4681606126894973,,experiment,emotion,2.0,,,,1713.1925045999994,1009,20,female,True,17132,17139,False,False,expiration,inspiration
521,119.0,25,M,up,0.4001760999999533,0.5674035956361079,,experiment,emotion,2.0,,,,1714.7591810999984,1009,20,female,True,17147,17151,False,False,expiration,expiration
522,117.0,25,M,down,0.4169779000003473,1.3628283520063031,,experiment,emotion,2.0,,,,1716.7922735999998,1009,20,female,True,17168,17172,False,False,expiration,inspiration
523,117.0,25,F,down,0.4000986999999441,1.208665654230884,,experiment,emotion,2.0,,,,1718.6922937999989,1009,20,female,True,17187,17191,False,False,expiration,expiration
524,114.0,25,M,down,0.3668160999986867,1.6601682920227334,,experiment,emotion,2.0,,,,1721.042290399997,1009,20,female,True,17210,17214,False,False,inspiration,inspiration
525,122.0,25,F,down,0.4787536000003456,1.3696419714411825,,experiment,emotion,2.0,,,,1723.1255231999967,1009,20,female,True,17231,17236,False,False,expiration,expiration
526,119.0,25,F,up,0.3834777000010945,1.1907197306575843,,experiment,emotion,2.0,,,,1725.0588070999984,1009,20,female,True,17250,17254,False,False,expiration,expiration
527,114.0,25,M,down,0.43697659999816096,1.936033622392288,,experiment,emotion,2.0,,,,1727.6753381999988,1009,20,female,True,17276,17280,False,False,inspiration,inspiration
528,122.0,25,M,down,0.554652900002111,1.4231989782970378,,experiment,emotion,2.0,,,,1729.8086282999975,1009,20,female,True,17298,17304,False,False,expiration,inspiration
529,122.0,25,F,up,0.8061402999992424,1.8373261799709608,,experiment,emotion,2.0,,,,1732.4751596999995,1009,20,female,True,17324,17332,False,False,expiration,expiration
530,117.0,25,M,down,0.5647233999989112,0.828086816126006,,experiment,emotion,2.0,,,,1734.3915696999975,1009,20,female,True,17344,17350,False,False,inspiration,expiration
531,114.0,25,F,up,0.4713368000011542,1.3748145435828296,,experiment,emotion,2.0,,,,1736.5919536,1009,20,female,True,17366,17371,False,False,expiration,inspiration
532,117.0,25,F,down,0.416999000000942,0.9546427257856998,,experiment,emotion,2.0,,,,1738.2914568999984,1009,20,female,True,17383,17387,False,False,expiration,expiration
533,119.0,25,F,down,0.5647353000022122,1.3436860842602278,,experiment,emotion,2.0,,,,1740.3415529999984,1009,20,female,True,17403,17409,False,False,inspiration,inspiration
