,stimLvl,stimTime,rand,response,rt,precedingITI,trialNumber,trialType,stimuli,block,estIntens,estThres,estSlope,trialStart,subject,age,gender,headRest,onset,responsI,manBadOnset,manBadRespons,onset_phase,respons_phase
0,0.9,100,down,,,1.7319969441686194,,introTrial,cRDM,,,,,274.1494033,1010,23,female,True,2740,0,False,False,expiration,0
1,150.0,100,F,,,1.3168430895844103,,introTrial,emotion,,,,,279.4325265,1010,23,female,True,2793,0,False,False,expiration,0
2,0.9,25,up,up,1.0227717000000212,1.4534384064290926,,tutorial,cRDM,,,,,321.8476251,1010,23,female,True,3217,3227,False,False,expiration,expiration
3,0.9,25,down,down,0.8165350999998964,1.7976321317888124,,tutorial,cRDM,,,,,324.9308655,1010,23,female,True,3248,3256,False,False,inspiration,expiration
4,0.9,25,up,up,1.3527172999999948,0.926654667492429,,tutorial,cRDM,,,,,326.9807056,1010,23,female,True,3269,3283,False,False,expiration,inspiration
5,0.9,25,down,down,0.6080594000000019,0.7284355927328326,,tutorial,cRDM,,,,,329.347355,1010,23,female,True,3292,3298,False,False,inspiration,expiration
6,0.9,25,up,up,0.5580883999999742,0.3699040527071689,,tutorial,cRDM,,,,,330.5973095,1010,23,female,True,3305,3311,False,False,expiration,expiration
7,0.9,25,down,down,0.43481629999996585,1.4477898896438794,,tutorial,cRDM,,,,,332.8805871,1010,23,female,True,3328,3332,False,False,inspiration,expiration
8,0.9,25,down,up,0.3506151000000273,1.7623593590556137,,tutorial,cRDM,,,,,335.36368910000004,1010,23,female,True,3353,3357,False,False,expiration,inspiration
9,0.9,25,down,down,0.9073348999999098,0.7484062580840054,,tutorial,cRDM,,,,,336.7970766,1010,23,female,True,3367,3376,False,False,inspiration,expiration
10,0.9,25,up,up,0.5294384000000036,1.415271779775081,,tutorial,cRDM,,,,,339.3970276,1010,23,female,True,3393,3398,False,False,inspiration,peak
11,0.9,25,up,up,0.8321961999999985,1.2921693890615726,,tutorial,cRDM,,,,,341.4802366,1010,23,female,True,3414,3422,False,False,expiration,inspiration
12,200.0,25,M,up,0.7747732999999926,1.047950476735879,,tutorial,emotion,,,,,350.546604,1010,23,female,True,3504,3512,False,False,expiration,expiration
13,200.0,25,M,up,0.7348977999999988,1.9900917486834917,,tutorial,emotion,,,,,353.5964878000001,1010,23,female,True,3535,3542,False,False,inspiration,inspiration
14,200.0,25,F,up,0.8809848000000784,0.7897146735855959,,tutorial,emotion,,,,,355.3964071000001,1010,23,female,True,3553,3562,False,False,expiration,expiration
15,0.0,25,F,down,0.6224090999999135,1.834511302681796,,tutorial,emotion,,,,,358.4129729,1010,23,female,True,3583,3589,False,False,inspiration,expiration
16,0.0,25,M,down,0.5405725999999049,1.994991441513972,,tutorial,emotion,,,,,361.31286580000005,1010,23,female,True,3612,3617,False,False,inspiration,peak
17,200.0,25,F,up,0.5912276000000247,0.3583317832153788,,tutorial,emotion,,,,,362.4961648,1010,23,female,True,3624,3630,False,False,expiration,expiration
18,0.0,25,M,down,0.4737014999999474,0.4932390609790876,,tutorial,emotion,,,,,363.862747,1010,23,female,True,3637,3642,False,False,inspiration,inspiration
19,200.0,25,M,up,0.42969619999996667,1.1423979680146674,,tutorial,emotion,,,,,365.7626856,1010,23,female,True,3656,3660,False,False,expiration,expiration
20,0.0,25,F,down,0.4847718000000896,1.012620616290721,,tutorial,emotion,,,,,367.4626507,1010,23,female,True,3673,3678,False,False,inspiration,inspiration
21,0.0,25,F,up,0.2501534000000447,1.0708338969638989,,tutorial,emotion,,,,,369.3125684,1010,23,female,True,3692,3695,False,False,expiration,expiration
22,0.29,25,up,down,1.0478451000000175,1.6950195666677237,,psi_staircase_training,cRDM,,0.25,0.25693124029946324,0.10500000000000002,388.07855939999996,1010,23,female,True,3880,3890,False,False,inspiration,expiration
23,0.39,25,up,down,1.0753538000000162,0.8534767892028527,,psi_staircase_training,cRDM,,0.3546095744690497,0.36161092129536426,0.10606203002656786,390.26207969999996,1010,23,female,True,3902,3913,False,False,expiration,inspiration
24,0.45,25,down,up,1.5923564999999371,0.4212855666115047,,psi_staircase_training,cRDM,,0.4150689485921841,0.4216473382772667,0.09965473524084284,392.0450719,1010,23,female,True,3919,3935,False,False,inspiration,expiration
25,0.48,25,down,down,0.5951069000000189,0.4622682158946715,,psi_staircase_training,cRDM,,0.4484251751263589,0.4546964183417799,0.09500183360692226,394.3783272,1010,23,female,True,3943,3949,False,False,expiration,inspiration
26,0.47,25,up,up,0.6378692999999203,1.5061997159050629,,psi_staircase_training,cRDM,,0.4434381740917061,0.4497616785860461,0.09579352947222344,396.761492,1010,23,female,True,3967,3973,False,False,expiration,expiration
27,0.47,25,down,down,0.7576010000000224,1.6792130140645023,,psi_staircase_training,cRDM,,0.43754481070397855,0.4440140335274075,0.0980009878625393,399.3448132,1010,23,female,True,3992,4000,False,False,inspiration,expiration
28,0.44,25,up,up,0.7043012999999974,1.5064051048144502,,psi_staircase_training,cRDM,,0.4321668183226705,0.4386635152939484,0.09841718834030466,401.87809910000004,1010,23,female,True,4018,4025,False,False,expiration,inspiration
29,0.44,25,down,down,1.0378150000000232,0.8889673530758955,,psi_staircase_training,cRDM,,0.4232315641157769,0.4303209092690669,0.10739509942442632,403.74462400000004,1010,23,female,True,4036,4046,False,False,inspiration,expiration
30,0.43,25,down,down,0.5375664000000597,1.9664446679927103,,psi_staircase_training,cRDM,,0.4140469260957472,0.4215917067910562,0.11429440313428382,407.0278519,1010,23,female,True,4069,4074,False,False,expiration,trough
31,0.43,25,up,up,0.6856494000001021,1.0893726653758875,,psi_staircase_training,cRDM,,0.4042330142930134,0.4121893271328253,0.12052862288513272,408.9277715,1010,23,female,True,4088,4095,False,False,inspiration,inspiration
32,0.43,25,down,down,0.6370419999999513,0.4931711811355646,,psi_staircase_training,cRDM,,0.3945905856762648,0.40281042056693983,0.1245206667539308,410.3943974,1010,23,female,True,4103,4109,False,False,expiration,expiration
33,0.43,25,down,down,0.5244243999999298,0.9075378592685583,,psi_staircase_training,cRDM,,0.38538182726067655,0.3937323050703894,0.12649975071384414,412.2110017,1010,23,female,True,4121,4126,False,False,expiration,expiration
34,0.43,25,down,down,0.6862145999999711,1.3494592602388962,,psi_staircase_training,cRDM,,0.3767780461254977,0.38514879448837147,0.12680682534838775,414.3611914,1010,23,female,True,4143,4150,False,False,expiration,expiration
35,0.38,25,up,up,0.6342119999999339,0.4084752527914272,,psi_staircase_training,cRDM,,0.3688785810045718,0.37718306115066935,0.12580294112841028,415.7442269,1010,23,female,True,4156,4162,False,False,expiration,inspiration
36,0.38,25,up,down,0.7236283999999387,1.6414672541724933,,psi_staircase_training,cRDM,,0.3567497621936465,0.3654926837753715,0.13244480445328186,418.3107753,1010,23,female,True,4182,4189,False,False,expiration,expiration
37,0.44,25,down,up,0.8673138000000336,0.4932272800621716,,psi_staircase_training,cRDM,,0.39134289309008696,0.399186470926261,0.11882082242366535,419.7940575,1010,23,female,True,4197,4206,False,False,expiration,expiration
38,0.44,25,down,down,0.7618789000000561,1.827292590495866,,psi_staircase_training,cRDM,,0.4153572776570733,0.4242237183381488,0.13431597106581614,422.76053820000004,1010,23,female,True,4227,4235,False,False,expiration,inspiration
39,0.44,25,up,up,0.6685382000000573,1.4008561970316729,,psi_staircase_training,cRDM,,0.4091259545733732,0.4181344779682624,0.1364683542333135,425.1938608,1010,23,female,True,4251,4258,False,False,expiration,expiration
40,0.44,25,up,down,0.9903186999999888,1.4904363959994944,,psi_staircase_training,cRDM,,0.4031032977169305,0.4121753359456581,0.1374305279951364,427.62712080000006,1010,23,female,True,4275,4285,False,False,expiration,expiration
41,0.43,25,up,up,0.7354268999999931,1.736777980293459,,psi_staircase_training,cRDM,,0.4238656211578468,0.4329413964746107,0.1374871404089116,430.6269718,1010,23,female,True,4305,4312,False,False,inspiration,inspiration
42,0.43,25,up,up,0.6311750999999504,1.7634641844244927,,psi_staircase_training,cRDM,,0.41815715671031495,0.4275005679544749,0.14154150458652726,433.4102721,1010,23,female,True,4333,4339,False,False,expiration,expiration
43,0.43,25,down,down,0.6299344000000247,0.8718941619849205,,psi_staircase_training,cRDM,,0.41244935877434574,0.4219884762135172,0.14450621935450247,435.19350080000004,1010,23,female,True,4351,4357,False,False,inspiration,inspiration
44,0.43,25,down,up,1.0260203999999928,0.8467026485535132,,psi_staircase_training,cRDM,,0.40677470948910704,0.4164506943728661,0.1465795974312665,436.9434238,1010,23,female,True,4368,4378,False,False,expiration,expiration
45,0.48,25,down,down,0.7801028000000088,1.7530096330878528,,psi_staircase_training,cRDM,,0.4243815726184988,0.4337769539109252,0.14232878865578535,439.9932944,1010,23,female,True,4399,4407,False,False,inspiration,expiration
46,0.48,25,up,up,0.6186595000000352,0.9001916672835133,,psi_staircase_training,cRDM,,0.42123242399239336,0.4305157645767194,0.14063150594125506,441.95975890000005,1010,23,female,True,4419,4425,False,False,expiration,expiration
47,0.42,25,up,up,0.8068292000000383,0.5148138460573759,,psi_staircase_training,cRDM,,0.41821201986929,0.4273628698094051,0.13862443115505485,443.37655989999996,1010,23,female,True,4433,4441,False,False,inspiration,inspiration
48,0.42,25,down,down,0.7272715999999946,0.3979860734877037,,psi_staircase_training,cRDM,,0.41274190445741626,0.4221700622879591,0.14282531400385168,444.843136,1010,23,female,True,4447,4454,False,False,inspiration,expiration
49,0.42,25,down,down,0.7689602000000377,1.7346222010214118,,psi_staircase_training,cRDM,,0.4072879383650846,0.4169268199009508,0.14601752609043486,447.576424,1010,23,female,True,4475,4483,False,False,expiration,inspiration
50,0.42,25,up,up,0.6156981000000314,0.6763531969899449,,psi_staircase_training,cRDM,,0.4018791510686953,0.4116753054709957,0.14840002190101434,449.309672,1010,23,female,True,4492,4498,False,False,inspiration,inspiration
51,0.42,25,up,down,1.0488258000000314,1.7208171143682718,,psi_staircase_training,cRDM,,0.3965330404666594,0.4064445977886314,0.15014823809926933,451.9095751,1010,23,female,True,4518,4528,False,False,expiration,expiration
52,100.0,25,M,down,0.6832196000000295,0.9813611481185056,,psi_staircase_training,emotion,,100.0,100.0,25.00050000000001,470.34222350000005,1010,23,female,True,4702,4709,False,False,expiration,expiration
53,145.0,25,M,down,0.06689570000003188,0.6964930255095041,,psi_staircase_training,emotion,,145.25719053245996,145.25719053245996,25.000500000000283,472.0754214,1010,23,female,True,4720,4721,False,False,expiration,expiration
54,168.0,25,F,up,0.5236649999999372,1.4957348233195913,,psi_staircase_training,emotion,,168.03875363226317,168.03875363226317,24.34819504815532,474.3587229,1010,23,female,True,4743,4748,False,False,expiration,expiration
55,155.0,25,F,up,2.246396100000084,1.1830758628053797,,psi_staircase_training,emotion,,155.004436652377,155.004436652377,25.558429500416704,476.4419908,1010,23,female,True,4763,4785,False,False,expiration,expiration
56,139.0,25,M,up,0.4169995999999401,1.1202557630206884,,psi_staircase_training,emotion,,143.86793575555103,143.86793575555103,26.188292731613213,480.1583947,1010,23,female,True,4801,4805,False,False,peak,expiration
57,122.0,25,F,up,0.3834825000000137,0.4785161503816186,,psi_staircase_training,emotion,,130.8823002299959,130.8823002299959,30.625430602924858,481.40847369999994,1010,23,female,True,4813,4817,False,False,expiration,expiration
58,109.0,25,M,up,0.3668013000000201,0.8537041379097059,,psi_staircase_training,emotion,,117.46191703120144,117.46191703120144,33.58127212714132,483.02509490000006,1010,23,female,True,4829,4833,False,False,inspiration,peak
59,91.0,25,F,down,0.5264251999999487,1.028923481739353,,psi_staircase_training,emotion,,104.91361817224713,104.91361817224713,35.49151417204504,484.8249962,1010,23,female,True,4847,4852,False,False,expiration,trough
60,113.0,25,F,down,0.3335737999999537,1.9453962548497004,,psi_staircase_training,emotion,,112.36935204047116,112.36935204047116,34.147092122003706,487.6415692,1010,23,female,True,4875,4878,False,False,expiration,expiration
61,121.0,25,M,down,0.3835572999998931,0.8741629941657709,,psi_staircase_training,emotion,,119.77157104349827,119.77157104349827,34.629378655856016,489.27481830000005,1010,23,female,True,4892,4896,False,False,inspiration,inspiration
62,143.0,25,F,down,0.7573270000000321,0.4830565821473623,,psi_staircase_training,emotion,,125.78738034410705,125.78738034410705,34.743378162003935,490.55809760000005,1010,23,female,True,4905,4913,False,False,expiration,expiration
63,153.0,25,F,up,0.6366934000000128,1.7615677306815538,,psi_staircase_training,emotion,,133.0069751642436,133.0069751642436,36.62357105899161,493.4247267,1010,23,female,True,4933,4939,False,False,inspiration,expiration
64,110.0,25,F,down,0.4491745000000265,1.8120344661758236,,psi_staircase_training,emotion,,129.99161536160938,129.99161536160938,35.831787924847326,496.2412702,1010,23,female,True,4961,4965,False,False,expiration,expiration
65,156.0,25,M,up,0.7535186000000067,1.3551006073283574,,psi_staircase_training,emotion,,132.6278793900262,132.6278793900262,35.089536747930886,498.40787530000006,1010,23,female,True,4983,4991,False,False,inspiration,expiration
66,107.0,25,M,down,0.4002378000000135,0.508482980201311,,psi_staircase_training,emotion,,130.3937580462783,130.3937580462783,34.19910059421789,500.0244612,1010,23,female,True,4999,5003,False,False,expiration,expiration
67,157.0,25,F,up,0.4906947000000628,0.7453494814262852,,psi_staircase_training,emotion,,132.34401159096674,132.34401159096674,33.3470466274826,501.557722,1010,23,female,True,5014,5019,False,False,inspiration,inspiration
68,106.0,25,F,down,0.7007304999999633,1.4970107215072572,,psi_staircase_training,emotion,,130.5826018213825,130.5826018213825,32.390314785797656,503.9076595,1010,23,female,True,5038,5045,False,False,expiration,expiration
69,157.0,25,M,up,0.416825299999914,0.9652141849973604,,psi_staircase_training,emotion,,132.12332207408824,132.12332207408824,31.473636657018236,505.9242521000001,1010,23,female,True,5058,5062,False,False,inspiration,expiration
70,106.0,25,M,down,0.6145487000000003,0.31878284318776845,,psi_staircase_training,emotion,,130.68643647129548,130.68643647129548,30.4782013303014,506.9908909,1010,23,female,True,5069,5075,False,False,expiration,expiration
71,157.0,25,M,up,0.36682629999995703,0.9749726429309168,,psi_staircase_training,emotion,,131.94973930720028,131.94973930720028,29.529091146085314,508.92413710000005,1010,23,female,True,5088,5092,False,False,inspiration,inspiration
72,106.0,25,M,down,0.2670123999999987,0.4816866057006881,,psi_staircase_training,emotion,,130.77550674577517,130.77550674577517,28.52955948996531,510.1572511,1010,23,female,True,5101,5104,False,False,expiration,expiration
73,156.0,25,F,up,0.3830434999999852,0.4385022305443933,,psi_staircase_training,emotion,,131.81510037688903,131.81510037688903,27.584011010899268,511.3578449,1010,23,female,True,5113,5117,False,False,expiration,expiration
74,107.0,25,F,down,0.4711318999999321,1.8936558538611787,,psi_staircase_training,emotion,,130.81676957950782,130.81676957950782,26.60813402929934,514.0072978000001,1010,23,female,True,5139,5144,False,False,expiration,expiration
75,155.0,25,F,up,0.5466016000000309,1.529569790967465,,psi_staircase_training,emotion,,131.71358534667567,131.71358534667567,25.69151496532605,516.3738794,1010,23,female,True,5163,5168,False,False,inspiration,expiration
76,109.0,25,M,down,0.5262432999999191,1.9424833367943972,,psi_staircase_training,emotion,,130.8590955365654,130.8590955365654,24.76830344808711,519.2071417,1010,23,female,True,5191,5196,False,False,peak,expiration
77,154.0,25,M,up,0.4406741999999895,0.7201387477958954,,psi_staircase_training,emotion,,131.67887018326985,131.67887018326985,23.89849309796177,520.8237124999998,1010,23,female,True,5207,5211,False,False,expiration,inspiration
78,111.0,25,F,down,0.7586515999998937,1.9453492941586197,,psi_staircase_training,emotion,,130.94027398381164,130.94027398381164,23.04800846041109,523.5567917,1010,23,female,True,5235,5243,False,False,expiration,expiration
79,152.0,25,F,up,0.40019500000005337,1.1327553091399234,,psi_staircase_training,emotion,,131.70462366799143,131.70462366799143,22.24218209797844,525.8235361999998,1010,23,female,True,5257,5261,False,False,inspiration,expiration
80,114.0,25,M,down,0.880650199999991,0.9791083808243944,,psi_staircase_training,emotion,,131.0212512651474,131.0212512651474,21.471012317957925,527.573763,1010,23,female,True,5275,5284,False,False,expiration,inspiration
81,149.0,25,M,down,0.6570884999999862,1.1458474781904942,,psi_staircase_training,emotion,,131.79100001127722,131.79100001127722,20.735037258007647,529.9732948,1010,23,female,True,5299,5306,False,False,expiration,expiration
82,0.29,25,up,up,0.7479849000000058,1.4320051667792304,,psi_staircase,cRDM,,0.25,0.25693124029946324,0.10500000000000002,583.9714203,1010,23,female,True,5839,5846,False,False,inspiration,expiration
83,0.25,25,up,down,0.9517908999999918,0.6708390017694844,,psi_staircase,cRDM,,0.21910266653183127,0.2260132002683493,0.10468632033873933,585.6546562000001,1010,23,female,True,5856,5866,False,False,expiration,expiration
84,0.36,25,down,down,0.5996346000000585,0.6964018197773211,,psi_staircase,cRDM,,0.3202997408361979,0.3276103223604739,0.1107465658214764,587.5547833999998,1010,23,female,True,5875,5881,False,False,expiration,inspiration
85,0.33,25,down,down,0.5889174000000139,0.9748563481171602,,psi_staircase,cRDM,,0.2990372097977385,0.30641398280716875,0.1117492876491608,589.4045481999998,1010,23,female,True,5893,5899,False,False,expiration,expiration
86,0.31,25,up,up,0.5306242000000339,1.0613421546852406,,psi_staircase,cRDM,,0.2780189805609542,0.28539811096413914,0.1117849993448388,591.3377820999998,1010,23,female,True,5912,5917,False,False,expiration,expiration
87,0.31,25,down,down,0.6464240000000245,1.4337223758357434,,psi_staircase,cRDM,,0.2582073586141265,0.2655339603556145,0.11098925295027023,593.5710237999998,1010,23,female,True,5935,5941,False,False,inspiration,expiration
88,0.29,25,up,up,0.4917229000000134,0.6606066039768872,,psi_staircase,cRDM,,0.24138240409280395,0.2485489846939697,0.1085651240775294,595.1376429,1010,23,female,True,5951,5956,False,False,expiration,expiration
89,0.24,25,down,down,0.6967978999999787,0.6882795927135905,,psi_staircase,cRDM,,0.22544905583343344,0.2325152283915249,0.107044062324179,596.5876152999998,1010,23,female,True,5965,5972,False,False,expiration,inspiration
90,0.24,25,down,down,0.6398768999999902,1.0312180310277883,,psi_staircase,cRDM,,0.20474749939231834,0.21227317020784012,0.11400491131305583,598.5875328999998,1010,23,female,True,5985,5991,False,False,inspiration,expiration
91,0.23,25,up,up,0.5996108000000504,0.9318716289310772,,psi_staircase,cRDM,,0.18503962375809055,0.1928548615388246,0.11839150448161755,600.4208061999999,1010,23,female,True,6003,6009,False,False,expiration,expiration
92,0.22,25,down,down,0.7876117999999224,0.795744261742148,,psi_staircase,cRDM,,0.1668004946365475,0.17476932355743144,0.12071822654274562,602.0707882999999,1010,23,female,True,6020,6028,False,False,expiration,inspiration
93,0.19,25,down,down,0.7013816999999563,1.6172055638384586,,psi_staircase,cRDM,,0.1506096300720314,0.15859812929352204,0.12101620806906235,604.7539806,1010,23,female,True,6047,6054,False,False,expiration,expiration
94,0.16,25,down,down,0.7834993999999824,1.2776899562823345,,psi_staircase,cRDM,,0.13550708967370206,0.14343887879110018,0.12015711782367405,607.0038876,1010,23,female,True,6069,6077,False,False,expiration,expiration
95,0.14,25,up,down,1.0025596000000403,0.39603322293124055,,psi_staircase,cRDM,,0.12135183675393126,0.1291794776051846,0.118579396164529,608.4538862999998,1010,23,female,True,6084,6094,False,False,inspiration,inspiration
96,0.22,25,up,up,0.6030081000000109,1.4361929681534509,,psi_staircase,cRDM,,0.16564583679879558,0.17402595270387278,0.1269487324081439,611.1704062000001,1010,23,female,True,6111,6117,False,False,expiration,expiration
97,0.2,25,down,up,0.7091010999999979,1.3736561136921597,,psi_staircase,cRDM,,0.15417741454319087,0.16248648609496086,0.12587249543251378,613.4203153,1010,23,female,True,6133,6140,False,False,inspiration,expiration
98,0.24,25,down,down,0.6492117999999891,1.9645977768358405,,psi_staircase,cRDM,,0.19658940780952894,0.20536639607254975,0.13296087392736253,616.3702195999998,1010,23,female,True,6163,6169,False,False,expiration,expiration
99,0.24,25,up,up,0.7466020000000526,1.147427675882454,,psi_staircase,cRDM,,0.18484420604840035,0.193693975670742,0.13406342446644468,618.4367907999998,1010,23,female,True,6183,6190,False,False,inspiration,expiration
100,0.24,25,up,up,0.7270214999999781,1.1408094878547743,,psi_staircase,cRDM,,0.17481842585439947,0.18365061743249872,0.13379713812147515,620.6033966,1010,23,female,True,6205,6212,False,False,expiration,expiration
101,0.19,25,up,down,0.7517457000000151,1.4827586056522986,,psi_staircase,cRDM,,0.16641015565734696,0.1751577491208647,0.13251557787435084,623.0866490999998,1010,23,female,True,6230,6238,False,False,expiration,expiration
102,0.24,25,up,down,0.6701333999999406,0.6863774507059414,,psi_staircase,cRDM,,0.19786655028370936,0.2059133954659239,0.12190007958574978,624.8032347,1010,23,female,True,6247,6254,False,False,inspiration,inspiration
103,0.27,25,down,down,1.1458676999999398,0.5567715770983155,,psi_staircase,cRDM,,0.23051523452124956,0.23927416295588824,0.1326872891289434,626.286533,1010,23,female,True,6262,6273,False,False,expiration,expiration
104,0.26,25,down,down,0.9489348999999264,0.6911300683496109,,psi_staircase,cRDM,,0.2213322834069705,0.2300414834474267,0.13193396343778624,628.3864847,1010,23,female,True,6283,6292,False,False,expiration,inspiration
105,0.26,25,down,down,0.8294713000000229,0.5495764833988515,,psi_staircase,cRDM,,0.21276121726286606,0.2214415161683264,0.13149614581158198,630.1529804999999,1010,23,female,True,6301,6309,False,False,peak,expiration
106,0.23,25,up,up,0.7351555999999846,1.1083022072659112,,psi_staircase,cRDM,,0.20533720316656212,0.21393304631180105,0.13021674206274078,632.3362916,1010,23,female,True,6322,6329,False,False,expiration,inspiration
107,0.23,25,up,up,0.5658280999999761,0.6416568632621421,,psi_staircase,cRDM,,0.19670996252089815,0.20548377631783712,0.13291278456323735,633.9696114,1010,23,female,True,6339,6345,False,False,expiration,expiration
108,0.23,25,down,up,0.6979097000000821,0.3187954258040255,,psi_staircase,cRDM,,0.1888986374711056,0.19776741326057906,0.13435134516499556,635.1195429999998,1010,23,female,True,6350,6357,False,False,expiration,expiration
109,0.27,25,down,down,0.7316761000000724,1.2162873769922973,,psi_staircase,cRDM,,0.21476224471757968,0.2235290212229328,0.13280617801309794,637.3027742999999,1010,23,female,True,6372,6379,False,False,inspiration,expiration
110,0.22,25,up,down,0.8414460999999847,1.644094432333322,,psi_staircase,cRDM,,0.20911304736872907,0.21770741099689733,0.13019432914878834,639.9359999,1010,23,female,True,6398,6406,False,False,expiration,trough
111,0.28,25,up,up,0.7819661000000906,1.7541037874080263,,psi_staircase,cRDM,,0.23090874342840964,0.2385828087359556,0.11625291037085,642.8025819000001,1010,23,female,True,6427,6435,False,False,expiration,expiration
112,0.28,25,down,down,0.8515632999999525,1.2401407472345531,,psi_staircase,cRDM,,0.22646424380196475,0.2338045516684971,0.11119688435063786,645.085832,1010,23,female,True,6450,6459,False,False,inspiration,expiration
113,0.28,25,up,up,0.5607855000000654,1.8444876900204417,,psi_staircase,cRDM,,0.22297158961218294,0.22996221536526035,0.10589961859062437,648.0357088999998,1010,23,female,True,6479,6485,False,False,inspiration,inspiration
114,0.27,25,down,down,0.5838606999999456,1.685170128689625,,psi_staircase,cRDM,,0.2203142225339289,0.2269470691461891,0.1004796925510216,650.5525561999998,1010,23,female,True,6505,6511,False,False,expiration,expiration
115,0.22,25,up,down,0.8599532000000636,1.7292294884949877,,psi_staircase,cRDM,,0.21797105302986725,0.224270538651902,0.09542967228605033,653.1355226,1010,23,female,True,6530,6539,False,False,inspiration,expiration
116,0.27,25,down,down,0.7049504999999954,1.258587217465708,,psi_staircase,cRDM,,0.23394829057587405,0.2387512481284452,0.07275906204824911,655.5354464,1010,23,female,True,6554,6561,False,False,expiration,expiration
117,0.26,25,up,up,0.6197039999999561,1.6081692757550081,,psi_staircase,cRDM,,0.2323782759534768,0.23679175259824856,0.06685889215771781,658.1186955000001,1010,23,female,True,6580,6586,False,False,inspiration,expiration
118,0.25,25,down,down,0.7218139999999948,0.4580515205037279,,psi_staircase,cRDM,,0.230575184534682,0.2347050962077141,0.0625632220112102,659.4686528999998,1010,23,female,True,6594,6601,False,False,expiration,expiration
119,0.25,25,up,up,0.6212149000000409,0.8414222094235471,,psi_staircase,cRDM,,0.2279728986143157,0.2320085720411617,0.061135625300949764,661.2852379999998,1010,23,female,True,6612,6618,False,False,expiration,inspiration
120,0.26,25,up,up,0.4682679000000008,1.1662191898599523,,psi_staircase,cRDM,,0.2258681400037547,0.22977277471124696,0.059150545439672464,663.3351459999999,1010,23,female,True,6632,6637,False,False,expiration,expiration
121,0.25,25,down,down,0.7469489000000067,1.9566388065997156,,psi_staircase,cRDM,,0.22537844251847786,0.2289846626181857,0.054629921068910466,666.0184131999998,1010,23,female,True,6659,6666,False,False,peak,expiration
122,0.24,25,down,down,0.6380667000000813,0.7455566164037388,,psi_staircase,cRDM,,0.2240508779100573,0.22750426662599504,0.0523147084081821,667.7683688999998,1010,23,female,True,6677,6683,False,False,expiration,inspiration
123,0.22,25,down,down,0.4819168999999874,1.372835541837181,,psi_staircase,cRDM,,0.2211774786249899,0.22473019752834836,0.05381944193761702,670.051558,1010,23,female,True,6700,6705,False,False,expiration,expiration
124,0.21,25,up,up,0.7409884999999576,1.5467837990601911,,psi_staircase,cRDM,,0.21486565932398435,0.2191486652639926,0.06488241703807243,672.3514524,1010,23,female,True,6723,6730,False,False,expiration,inspiration
125,0.21,25,up,up,0.8747115999999551,1.0814172830290048,,psi_staircase,cRDM,,0.2071517681777093,0.2123374180681216,0.07855639322380044,674.4347369,1010,23,female,True,6743,6752,False,False,expiration,expiration
126,0.21,25,down,down,0.6490418999999292,1.4726153413524137,,psi_staircase,cRDM,,0.19866546429993345,0.20476069323881352,0.09233542785004427,677.0513729999999,1010,23,female,True,6770,6776,False,False,inspiration,expiration
127,0.21,25,down,down,0.7975151000000551,1.7602439476469278,,psi_staircase,cRDM,,0.18997826496605488,0.1969172887138771,0.1051179099327654,679.7178865999998,1010,23,female,True,6796,6804,False,False,expiration,inspiration
128,0.21,25,down,down,0.7345887999999832,1.0824582673608931,,psi_staircase,cRDM,,0.1816255643754195,0.1892891962583799,0.11609485646791895,681.8678461999998,1010,23,female,True,6818,6825,False,False,expiration,expiration
129,0.21,25,up,down,0.6799683000000414,0.7198010368423098,,psi_staircase,cRDM,,0.1739676439137102,0.18221372775367176,0.1249183069389489,683.5844490999998,1010,23,female,True,6835,6842,False,False,expiration,expiration
130,0.21,25,up,up,1.1967634999999746,1.5472933877753496,,psi_staircase,cRDM,,0.19449595888983928,0.2014028710999537,0.10463145854547444,686.0676771999998,1010,23,female,True,6860,6872,False,False,expiration,expiration
131,0.21,25,up,up,0.7091755999999805,1.1000562777865586,,psi_staircase,cRDM,,0.18694337250929935,0.19455291405935285,0.11527545262245302,688.6342404,1010,23,female,True,6885,6892,False,False,inspiration,inspiration
132,100.0,25,M,down,0.9111245999999936,1.5524480233756404,,psi_staircase,emotion,,100.0,100.0,25.00050000000001,711.9503132,1010,23,female,True,7119,7128,False,False,inspiration,inspiration
133,145.0,25,M,up,0.8095248999999285,1.3719066226446397,,psi_staircase,emotion,,145.25719053245996,145.25719053245996,25.000500000000283,714.5999406000001,1010,23,female,True,7145,7153,False,False,expiration,expiration
134,121.0,25,F,up,1.2112798000000566,0.6045135669752214,,psi_staircase,emotion,,120.36392901436103,120.36392901436103,25.71326925488699,716.3501748,1010,23,female,True,7163,7175,False,False,expiration,expiration
135,97.0,25,F,down,0.5799733000000059,1.6049785658110458,,psi_staircase,emotion,,102.38876106084959,102.38876106084959,26.14633372628729,719.5164566000001,1010,23,female,True,7194,7200,False,False,inspiration,inspiration
136,113.0,25,M,up,0.6649678999999651,0.7608374583824519,,psi_staircase,emotion,,114.01123255420406,114.01123255420406,23.003056417783352,721.2164196,1010,23,female,True,7211,7218,False,False,inspiration,inspiration
137,105.0,25,F,down,0.6271569000000454,1.1316145988511206,,psi_staircase,emotion,,104.94359593877377,104.94359593877377,22.15060322358215,723.3662996999999,1010,23,female,True,7233,7239,False,False,expiration,expiration
138,116.0,25,M,down,0.910587899999996,1.377216845733074,,psi_staircase,emotion,,111.58377353439043,111.58377353439043,20.59785325106301,725.7498102000001,1010,23,female,True,7257,7266,False,False,expiration,expiration
139,131.0,25,F,up,0.6229994999999917,1.281029342829153,,psi_staircase,emotion,,119.22444233711107,119.22444233711107,26.33379145122974,728.299454,1010,23,female,True,7282,7288,False,False,inspiration,inspiration
140,129.0,25,F,up,0.6270722000000433,0.8790938195347948,,psi_staircase,emotion,,115.25120882513642,115.25120882513642,23.773562394969286,730.1493684,1010,23,female,True,7301,7307,False,False,expiration,expiration
141,100.0,25,M,down,0.6767962000000125,1.7558387783864455,,psi_staircase,emotion,,112.7078904442417,112.7078904442417,21.562133495044044,732.8826176,1010,23,female,True,7328,7335,False,False,expiration,inspiration
142,127.0,25,F,up,1.250277399999959,0.8298498586452026,,psi_staircase,emotion,,114.91549407296937,114.91549407296937,19.18743550316675,734.7491686999998,1010,23,female,True,7347,7360,False,False,inspiration,expiration
143,102.0,25,F,down,0.7580282000000125,1.3654751621266985,,psi_staircase,emotion,,113.24160152552571,113.24160152552571,17.063107323649838,737.7493764999998,1010,23,female,True,7377,7385,False,False,inspiration,expiration
144,124.0,25,F,up,0.6514128999999684,1.6395154894180597,,psi_staircase,emotion,,114.6727300848,114.6727300848,14.98760826440683,740.4990048999998,1010,23,female,True,7404,7411,False,False,inspiration,inspiration
145,108.0,25,M,down,1.7014947999999777,1.4073182361950454,,psi_staircase,emotion,,113.46213110785784,113.46213110785784,13.19020889473051,742.8989352000001,1010,23,female,True,7428,7445,False,False,expiration,expiration
146,122.0,25,M,up,0.8275936999999658,0.4386950273964925,,psi_staircase,emotion,,114.82120463346668,114.82120463346668,11.712498011187675,745.3988261999998,1010,23,female,True,7453,7461,False,False,expiration,expiration
147,110.0,25,F,down,1.0784484999999222,1.9743152495231169,,psi_staircase,emotion,,113.92509273536214,113.92509273536214,10.295585302788915,748.5489699,1010,23,female,True,7485,7496,False,False,inspiration,expiration
148,118.0,25,F,down,0.6955083000000286,1.1370856525211903,,psi_staircase,emotion,,115.0000009981923,115.0000009981923,9.209586443854274,751.1319467999998,1010,23,female,True,7510,7517,False,False,expiration,expiration
149,125.0,25,M,up,0.6029015000000301,1.0645469806667052,,psi_staircase,emotion,,116.96372976257315,116.96372976257315,10.801273657223103,753.248515,1010,23,female,True,7532,7538,False,False,trough,inspiration
150,117.0,25,M,up,0.654638900000009,1.3279956190302744,,psi_staircase,emotion,,116.3776521544987,116.3776521544987,9.498416804212805,755.548739,1010,23,female,True,7555,7562,False,False,inspiration,inspiration
151,108.0,25,M,up,0.4987142999999605,0.9292573457314746,,psi_staircase,emotion,,115.15135907376093,115.15135907376093,9.71334350760555,757.4817251999998,1010,23,female,True,7574,7579,False,False,inspiration,inspiration
152,100.0,25,M,down,0.7315003999999592,1.2682093602120132,,psi_staircase,emotion,,112.9749382247042,112.9749382247042,13.998851277016287,759.6149613,1010,23,female,True,7595,7602,False,False,expiration,expiration
153,101.0,25,F,up,0.5805451999999605,1.8108925700714416,,psi_staircase,emotion,,113.54655797989041,113.54655797989041,12.641055063975177,762.5149151999998,1010,23,female,True,7624,7630,False,False,expiration,expiration
154,93.0,25,F,down,0.6659892999999784,0.7850564314255111,,psi_staircase,emotion,,111.15627879911398,111.15627879911398,18.9903161611832,764.2314729,1010,23,female,True,7641,7648,False,False,expiration,inspiration
155,94.0,25,F,down,0.8913672999999562,0.8514607276420865,,psi_staircase,emotion,,111.7728574076267,111.7728574076267,17.53615328448242,766.0980573999999,1010,23,female,True,7660,7669,False,False,inspiration,expiration
156,129.0,25,M,down,0.9110542999999324,0.5311486872262393,,psi_staircase,emotion,,112.2312069473035,112.2312069473035,16.297881255863935,767.8813657000001,1010,23,female,True,7678,7687,False,False,expiration,expiration
157,137.0,25,M,up,1.0345360000000028,1.74351814325044,,psi_staircase,emotion,,114.6461954556432,114.6461954556432,22.858593008132647,770.8979032000001,1010,23,female,True,7708,7718,False,False,expiration,inspiration
158,136.0,25,F,up,0.5510024000000158,1.1176796707888257,,psi_staircase,emotion,,114.06766707191258,114.06766707191258,21.58073191083978,773.4144442999999,1010,23,female,True,7733,7739,False,False,expiration,expiration
159,92.0,25,F,up,1.2523470999999518,1.1433317449404383,,psi_staircase,emotion,,113.60338291727473,113.60338291727473,20.429456795931387,775.4810579,1010,23,female,True,7754,7767,False,False,expiration,expiration
160,84.0,25,M,down,0.7664620000000468,0.5940096294908186,,psi_staircase,emotion,,111.02730923429822,111.02730923429822,26.932612541511396,777.6810016999998,1010,23,female,True,7776,7784,False,False,expiration,expiration
161,85.0,25,M,down,0.7422529000000395,1.8170083593495416,,psi_staircase,emotion,,111.62015134442356,111.62015134442356,25.816393715990305,780.6142196999998,1010,23,female,True,7805,7812,False,False,inspiration,expiration
162,138.0,25,F,up,0.950318599999946,1.5995000479470711,,psi_staircase,emotion,,112.1201947993469,112.1201947993469,24.77225650280312,783.3141106999999,1010,23,female,True,7832,7842,False,False,expiration,expiration
163,87.0,25,M,down,0.7030555999999706,0.5705806895142427,,psi_staircase,emotion,,111.68121273947473,111.68121273947473,23.78663048576324,785.1973686000001,1010,23,female,True,7851,7858,False,False,expiration,inspiration
164,137.0,25,F,down,0.9111442000000808,0.8943154834723308,,psi_staircase,emotion,,112.1231585819049,112.1231585819049,22.81537271923096,787.1472516,1010,23,female,True,7871,7880,False,False,inspiration,expiration
165,144.0,25,M,down,0.7242732999999362,1.296055251764399,,psi_staircase,emotion,,114.42249519204093,114.42249519204093,28.274335397137563,789.6972053,1010,23,female,True,7896,7903,False,False,expiration,inspiration
166,150.0,25,F,down,0.6546471999999994,1.8170706379749757,,psi_staircase,emotion,,117.08015786284423,117.08015786284423,33.248534004970274,792.6137779999998,1010,23,female,True,7925,7932,False,False,inspiration,inspiration
167,154.0,25,M,up,0.4754621999999245,1.112388451039538,,psi_staircase,emotion,,119.95734214329241,119.95734214329241,37.07509180702201,794.7469693999999,1010,23,female,True,7947,7952,False,False,inspiration,inspiration
168,154.0,25,F,up,0.6225370999999313,1.63723790994569,,psi_staircase,emotion,,119.29317978241863,119.29317978241863,36.472198284673894,797.1969230999998,1010,23,female,True,7971,7977,False,False,expiration,expiration
169,154.0,25,M,up,0.48163470000008596,1.2215877793640144,,psi_staircase,emotion,,118.69233929536871,118.69233929536871,35.87528138443613,799.3968444999998,1010,23,female,True,7993,7998,False,False,expiration,expiration
170,153.0,25,M,up,0.4969930999999406,0.4485831356265283,,psi_staircase,emotion,,118.14931597734686,118.14931597734686,35.28640189201653,800.6634676,1010,23,female,True,8006,8011,False,False,expiration,expiration
171,83.0,25,F,down,0.6180269999999837,0.3488605347297621,,psi_staircase,emotion,,117.64249780536059,117.64249780536059,34.699689885890564,801.8634222999998,1010,23,female,True,8018,8024,False,False,expiration,expiration
172,153.0,25,F,up,0.4698198999999477,1.1080590807841104,,psi_staircase,emotion,,118.14042173031116,118.14042173031116,34.09227921593477,803.9466276999998,1010,23,female,True,8039,8044,False,False,expiration,expiration
173,83.0,25,F,down,0.4725013999999419,1.1363583232627903,,psi_staircase,emotion,,117.68394272130399,117.68394272130399,33.4950181181003,805.8799578999998,1010,23,female,True,8058,8063,False,False,expiration,expiration
174,153.0,25,M,up,0.7422043999999914,0.8614352776512015,,psi_staircase,emotion,,118.13135187305876,118.13135187305876,32.883978414506764,807.5632231999998,1010,23,female,True,8075,8082,False,False,expiration,expiration
175,83.0,25,M,down,0.8606343000000152,0.3527202428316264,,psi_staircase,emotion,,117.7210167764411,117.7210167764411,32.28758050751065,808.9798231000001,1010,23,female,True,8089,8098,False,False,expiration,expiration
176,152.0,25,F,up,0.547409200000061,1.812746659794366,,psi_staircase,emotion,,118.1220459825846,118.1220459825846,31.684581506691828,812.0130519999999,1010,23,female,True,8119,8124,False,False,inspiration,peak
177,84.0,25,F,down,0.5115695999999161,1.5883690906974806,,psi_staircase,emotion,,117.73930972923105,117.73930972923105,31.090812990225317,814.5129367000001,1010,23,female,True,8144,8149,False,False,expiration,expiration
178,151.0,25,F,down,0.5825254999999743,0.7423546396503069,,psi_staircase,emotion,,118.11217717923802,118.11217717923802,30.496271597874397,816.1129024999998,1010,23,female,True,8160,8166,False,False,expiration,inspiration
179,156.0,25,M,up,0.6049793000000818,1.9907698906220892,,psi_staircase,emotion,,120.19387946257808,120.19387946257808,33.8841139852995,819.0294464,1010,23,female,True,8189,8195,False,False,expiration,expiration
180,84.0,25,M,down,0.6683870000000525,1.9267675701941271,,psi_staircase,emotion,,119.8027941475516,119.8027941475516,33.35401126449606,821.8960211,1010,23,female,True,8218,8225,False,False,inspiration,inspiration
181,155.0,25,M,up,0.6477983000000904,0.7456888738504789,,psi_staircase,emotion,,120.16915719465335,120.16915719465335,32.83241722560143,823.6626299999998,1010,23,female,True,8236,8242,False,False,expiration,expiration
182,0.17994120999811145,25,down,down,0.819844900000021,1.3384570536027895,,experiment,cRDM,0.0,,,,863.0445702999998,1010,23,female,True,8630,8638,False,False,inspiration,expiration
183,0.17994120999811145,25,up,up,0.5519648000000643,0.579155963412761,,experiment,cRDM,0.0,,,,864.6944490000001,1010,23,female,True,8646,8652,False,False,expiration,expiration
184,0.17994120999811145,25,down,down,0.6513965000000326,0.6965478110689267,,experiment,cRDM,0.0,,,,866.2110550000001,1010,23,female,True,8661,8668,False,False,expiration,inspiration
185,0.17994120999811145,25,up,down,0.6921075999999857,1.1708354163648866,,experiment,cRDM,0.0,,,,868.2943278999999,1010,23,female,True,8682,8689,False,False,peak,expiration
186,0.17994120999811145,25,down,down,0.5214502000000039,0.8115673470258735,,experiment,cRDM,0.0,,,,870.0609784999998,1010,23,female,True,8700,8705,False,False,expiration,expiration
187,0.17994120999811145,25,down,down,0.8425687000000153,1.2039316075655868,,experiment,cRDM,0.0,,,,872.0608619999998,1010,23,female,True,8720,8728,False,False,expiration,expiration
188,0.17994120999811145,25,up,up,0.8473040000000083,0.337174111316464,,experiment,cRDM,0.0,,,,873.4941301000001,1010,23,female,True,8734,8742,False,False,expiration,expiration
189,0.17994120999811145,25,down,down,0.7293465999999853,0.7509393209607893,,experiment,cRDM,0.0,,,,875.3440741000001,1010,23,female,True,8753,8760,False,False,inspiration,inspiration
190,0.17994120999811145,25,up,up,0.5508131000000276,1.4582053508582116,,experiment,cRDM,0.0,,,,877.8106226,1010,23,female,True,8777,8783,False,False,expiration,expiration
191,0.17994120999811145,25,up,up,0.6155266000000665,1.7739976462855802,,experiment,cRDM,0.0,,,,880.3938846000001,1010,23,female,True,8803,8809,False,False,inspiration,inspiration
192,0.17994120999811145,25,down,down,0.4989952000000813,1.9497156571315213,,experiment,cRDM,0.0,,,,883.2104344999998,1010,23,female,True,8831,8836,False,False,expiration,expiration
193,0.17994120999811145,25,up,down,0.5647475000000668,1.125562555085457,,experiment,cRDM,0.0,,,,885.0937058000001,1010,23,female,True,8850,8856,False,False,expiration,expiration
194,0.17994120999811145,25,up,up,0.6101302999999234,1.4320790912044368,,experiment,cRDM,0.0,,,,887.3602989,1010,23,female,True,8873,8879,False,False,inspiration,peak
195,0.17994120999811145,25,up,down,0.5952010000000882,0.3723257655561266,,experiment,cRDM,0.0,,,,888.6102275000001,1010,23,female,True,8885,8891,False,False,expiration,expiration
196,0.17994120999811145,25,down,down,0.6362311999999974,0.6864823176313527,,experiment,cRDM,0.0,,,,890.1602046999999,1010,23,female,True,8901,8907,False,False,expiration,expiration
197,0.17994120999811145,25,down,up,0.4777376000000686,0.8648357407551059,,experiment,cRDM,0.0,,,,891.9266921999998,1010,23,female,True,8919,8924,False,False,expiration,inspiration
198,0.17994120999811145,25,up,down,0.5741181000000779,1.9369863405889465,,experiment,cRDM,0.0,,,,894.5933697999999,1010,23,female,True,8945,8951,False,False,expiration,expiration
199,0.17994120999811145,25,up,up,0.8848265999999967,0.5973245527972331,,experiment,cRDM,0.0,,,,896.0265847000001,1010,23,female,True,8960,8969,False,False,expiration,expiration
200,0.17994120999811145,25,down,down,0.5875114000000394,0.4850935286377852,,experiment,cRDM,0.0,,,,897.6599192,1010,23,female,True,8976,8982,False,False,expiration,expiration
201,0.17994120999811145,25,down,down,0.6426238999999896,1.8514462942513819,,experiment,cRDM,0.0,,,,900.3598238999998,1010,23,female,True,9003,9009,False,False,expiration,expiration
202,0.17994120999811145,25,up,up,0.6653321999999662,1.5753926472208613,,experiment,cRDM,0.0,,,,902.8430839,1010,23,female,True,9028,9035,False,False,expiration,expiration
203,0.17994120999811145,25,down,down,0.6841336999999612,0.4376731950224019,,experiment,cRDM,0.0,,,,904.2263026,1010,23,female,True,9042,9049,False,False,expiration,inspiration
204,0.17994120999811145,25,up,up,0.6014822000000777,1.3594141516006462,,experiment,cRDM,0.0,,,,906.5429515000001,1010,23,female,True,9065,9071,False,False,inspiration,inspiration
205,0.17994120999811145,25,down,down,0.5675350999999864,0.8832089248705991,,experiment,cRDM,0.0,,,,908.292884,1010,23,female,True,9082,9088,False,False,expiration,expiration
206,0.17994120999811145,25,down,down,0.667615899999987,1.228027221894646,,experiment,cRDM,0.0,,,,910.3428145,1010,23,female,True,9103,9110,False,False,expiration,expiration
207,0.17994120999811145,25,up,up,0.6610461000000214,1.8794692246716482,,experiment,cRDM,0.0,,,,913.1593681,1010,23,female,True,9131,9138,False,False,inspiration,expiration
208,0.17994120999811145,25,up,up,0.6761377000000266,0.8784121960239057,,experiment,cRDM,0.0,,,,914.9592916,1010,23,female,True,9149,9156,False,False,expiration,expiration
209,0.17994120999811145,25,down,down,0.6776107000000593,0.8267347917968138,,experiment,cRDM,0.0,,,,916.7258162,1010,23,female,True,9167,9174,False,False,expiration,expiration
210,0.17994120999811145,25,up,up,0.5787351999999828,1.913137049821117,,experiment,cRDM,0.0,,,,919.5757784,1010,23,female,True,9195,9201,False,False,trough,inspiration
211,0.17994120999811145,25,down,down,0.6637230000000045,1.06947171583902,,experiment,cRDM,0.0,,,,921.4757057,1010,23,female,True,9214,9221,False,False,expiration,expiration
212,0.17994120999811145,25,up,up,0.6921482999999853,0.4866817221089742,,experiment,cRDM,0.0,,,,922.8923174,1010,23,female,True,9228,9235,False,False,expiration,inspiration
213,0.17994120999811145,25,down,down,0.7815533000000414,1.767398670258756,,experiment,cRDM,0.0,,,,925.6088639000001,1010,23,female,True,9255,9263,False,False,expiration,expiration
214,0.17994120999811145,25,up,up,0.6965858999999455,0.40947346080521657,,experiment,cRDM,0.0,,,,927.0588546,1010,23,female,True,9270,9277,False,False,expiration,expiration
215,0.17994120999811145,25,down,up,0.7986273999999867,0.3826519492701145,,experiment,cRDM,0.0,,,,928.4087900000001,1010,23,female,True,9283,9291,False,False,expiration,inspiration
216,0.17994120999811145,25,up,up,0.7823177999999871,0.8523942507439348,,experiment,cRDM,0.0,,,,930.3420913999998,1010,23,female,True,9303,9311,False,False,expiration,expiration
217,0.17994120999811145,25,down,down,0.5995021999999608,1.2545034961192485,,experiment,cRDM,0.0,,,,932.6419900000001,1010,23,female,True,9326,9332,False,False,inspiration,inspiration
218,0.17994120999811145,25,up,down,0.6319244000000026,0.9541374346555841,,experiment,cRDM,0.0,,,,934.4585696,1010,23,female,True,9344,9350,False,False,expiration,expiration
219,0.17994120999811145,25,down,down,0.7103711999999405,1.268949013750767,,experiment,cRDM,0.0,,,,936.6250539,1010,23,female,True,9366,9373,False,False,inspiration,expiration
220,0.17994120999811145,25,up,up,0.8447046,1.3403566788759325,,experiment,cRDM,0.0,,,,938.9417627999999,1010,23,female,True,9389,9397,False,False,inspiration,inspiration
221,0.17994120999811145,25,down,down,0.6157745000000432,1.7855340415633962,,experiment,cRDM,0.0,,,,941.8416542000001,1010,23,female,True,9418,9424,False,False,trough,inspiration
222,0.17994120999811145,25,down,down,0.6928755999999794,1.0711681861119495,,experiment,cRDM,0.0,,,,943.7915566,1010,23,female,True,9437,9444,False,False,expiration,expiration
223,0.17994120999811145,25,up,up,0.6788977999999588,0.7908330114741904,,experiment,cRDM,0.0,,,,945.5415161000001,1010,23,female,True,9455,9462,False,False,expiration,trough
224,0.17994120999811145,25,down,down,0.8277954000000136,1.7291248635078118,,experiment,cRDM,0.0,,,,948.2246565,1010,23,female,True,9482,9490,False,False,expiration,expiration
225,0.17994120999811145,25,up,up,0.8808744000000388,1.807030318635632,,experiment,cRDM,0.0,,,,951.1245077,1010,23,female,True,9511,9520,False,False,trough,inspiration
226,0.17994120999811145,25,up,up,0.9179256999998416,1.450509933126369,,experiment,cRDM,0.0,,,,953.7244804,1010,23,female,True,9537,9546,False,False,expiration,expiration
227,0.17994120999811145,25,down,down,0.7626913999999942,1.9992016824502803,,experiment,cRDM,0.0,,,,956.9077179,1010,23,female,True,9568,9576,False,False,inspiration,expiration
228,0.17994120999811145,25,down,down,1.0571382999999057,1.5106201311763148,,experiment,cRDM,0.0,,,,959.424297,1010,23,female,True,9594,9605,False,False,expiration,inspiration
229,0.17994120999811145,25,up,up,0.7495480000000043,1.9470129146917137,,experiment,cRDM,0.0,,,,962.6908691,1010,23,female,True,9626,9633,False,False,expiration,expiration
230,0.17994120999811145,25,down,down,0.5614152000000558,1.1289547007141376,,experiment,cRDM,0.0,,,,964.8240304,1010,23,female,True,9648,9654,False,False,inspiration,inspiration
231,0.17994120999811145,25,up,up,0.6240387000000283,1.6925890271409934,,experiment,cRDM,0.0,,,,967.3573467,1010,23,female,True,9673,9679,False,False,expiration,trough
232,0.17994120999811145,25,up,up,0.682544800000187,0.9251355355689844,,experiment,cRDM,0.0,,,,969.1739497000001,1010,23,female,True,9691,9698,False,False,inspiration,expiration
233,0.17994120999811145,25,up,down,0.6805100999999922,0.5493577357996919,,experiment,cRDM,0.0,,,,970.6739050000001,1010,23,female,True,9706,9713,False,False,expiration,expiration
234,0.17994120999811145,25,up,up,0.6499508999997943,1.5244562987712618,,experiment,cRDM,0.0,,,,973.1405045,1010,23,female,True,9731,9737,False,False,inspiration,expiration
235,0.17994120999811145,25,up,up,0.5420337000000472,1.2369278606429936,,experiment,cRDM,0.0,,,,975.2904039,1010,23,female,True,9752,9757,False,False,expiration,expiration
236,0.17994120999811145,25,down,down,0.6231110000001081,1.1879168119873056,,experiment,cRDM,0.0,,,,977.2903266000001,1010,23,female,True,9772,9778,False,False,inspiration,expiration
237,0.17994120999811145,25,down,down,0.5358244999999897,1.2336296946418734,,experiment,cRDM,0.0,,,,979.4236103000001,1010,23,female,True,9794,9799,False,False,expiration,expiration
238,0.17994120999811145,25,down,down,0.7805483000001914,1.1383614647127671,,experiment,cRDM,0.0,,,,981.3568879,1010,23,female,True,9813,9821,False,False,inspiration,expiration
239,0.17994120999811145,25,up,up,0.6760342000000037,1.972193364174776,,experiment,cRDM,0.0,,,,984.3734024,1010,23,female,True,9843,9850,False,False,expiration,inspiration
240,0.17994120999811145,25,down,down,0.6558127000000695,1.1904517315031593,,experiment,cRDM,0.0,,,,986.5066439,1010,23,female,True,9864,9871,False,False,expiration,expiration
241,0.17994120999811145,25,down,down,0.8381987000000208,0.5916161320256275,,experiment,cRDM,0.0,,,,988.0232402,1010,23,female,True,9880,9888,False,False,expiration,expiration
242,0.17994120999811145,25,down,down,0.8059129999999186,0.8376453082793966,,experiment,cRDM,0.0,,,,989.9565426,1010,23,female,True,9899,9907,False,False,inspiration,expiration
243,0.17994120999811145,25,up,up,0.644386299999951,1.8658066489367084,,experiment,cRDM,0.0,,,,992.8730826999999,1010,23,female,True,9928,9934,False,False,expiration,expiration
244,0.17994120999811145,25,down,down,0.6593339000000924,0.4965877176894424,,experiment,cRDM,0.0,,,,994.2730567,1010,23,female,True,9942,9949,False,False,inspiration,inspiration
245,0.17994120999811145,25,up,up,0.7888288999999986,1.186696752857335,,experiment,cRDM,0.0,,,,996.3896122999997,1010,23,female,True,9963,9971,False,False,expiration,expiration
246,0.17994120999811145,25,up,up,0.8482108000000608,0.5217361103118071,,experiment,cRDM,0.0,,,,997.9562284999997,1010,23,female,True,9979,9987,False,False,expiration,expiration
247,0.17994120999811145,25,down,down,0.5716373000000203,1.4072787557330375,,experiment,cRDM,0.0,,,,1000.4728042000002,1010,23,female,True,10004,10010,False,False,inspiration,inspiration
248,0.17994120999811145,25,up,up,0.8584376999999677,1.1148530525949822,,experiment,cRDM,0.0,,,,1002.4229972,1010,23,female,True,10024,10033,False,False,inspiration,expiration
249,0.17994120999811145,25,down,down,0.5307569999999942,1.3842871278012885,,experiment,cRDM,0.0,,,,1004.9226794,1010,23,female,True,10049,10054,False,False,expiration,expiration
250,0.17994120999811145,25,up,up,0.656901199999993,0.6122576491864352,,experiment,cRDM,0.0,,,,1006.3225324,1010,23,female,True,10063,10070,False,False,expiration,expiration
251,0.17994120999811145,25,down,down,0.6295655999998644,1.4708906049231352,,experiment,cRDM,0.0,,,,1008.7058247,1010,23,female,True,10086,10092,False,False,inspiration,peak
252,0.17994120999811145,25,up,up,0.5183180999999877,1.1030169477473752,,experiment,cRDM,0.0,,,,1010.6891205,1010,23,female,True,10106,10111,False,False,expiration,expiration
253,0.17994120999811145,25,down,down,0.5304404999999406,1.3125665204124124,,experiment,cRDM,0.0,,,,1012.7890219000001,1010,23,female,True,10127,10132,False,False,inspiration,inspiration
254,0.17994120999811145,25,down,up,0.5015217000000121,0.7112167143752475,,experiment,cRDM,0.0,,,,1014.2889562999999,1010,23,female,True,10142,10147,False,False,expiration,expiration
255,0.17994120999811145,25,down,down,0.5406232000000273,1.6271262867717593,,experiment,cRDM,0.0,,,,1016.6888733999999,1010,23,female,True,10166,10171,False,False,expiration,expiration
256,0.17994120999811145,25,down,down,0.4994149999999991,1.9413241079310644,,experiment,cRDM,0.0,,,,1019.4220504,1010,23,female,True,10194,10199,False,False,inspiration,expiration
257,0.17994120999811145,25,down,up,0.5194390000001476,0.8835739860382936,,experiment,cRDM,0.0,,,,1021.072061,1010,23,female,True,10210,10215,False,False,expiration,expiration
258,0.17994120999811145,25,up,up,0.6641700000000128,1.4540046122219372,,experiment,cRDM,0.0,,,,1023.3052816,1010,23,female,True,10232,10239,False,False,expiration,inspiration
259,0.17994120999811145,25,up,up,0.5819060999999692,0.7502482952181735,,experiment,cRDM,0.0,,,,1024.9885929,1010,23,female,True,10249,10255,False,False,inspiration,expiration
260,0.17994120999811145,25,up,up,0.5185675000000174,0.7447363123512614,,experiment,cRDM,0.0,,,,1026.5718711000002,1010,23,female,True,10265,10270,False,False,expiration,expiration
261,0.17994120999811145,25,up,up,0.5483664000000772,0.3078893880630864,,experiment,cRDM,0.0,,,,1027.6551426,1010,23,female,True,10276,10281,False,False,expiration,expiration
262,132.0,25,M,down,1.290598499999987,1.0244094799207288,,experiment,emotion,0.0,,,,1053.8708611,1010,23,female,True,10538,10551,False,False,expiration,expiration
263,107.0,25,M,down,0.6719963000000462,0.6939865688675977,,experiment,emotion,0.0,,,,1056.1374284,1010,23,female,True,10561,10568,False,False,expiration,expiration
264,123.0,25,F,up,0.4240918999998939,1.7321981652503762,,experiment,emotion,0.0,,,,1058.8373322999998,1010,23,female,True,10588,10592,False,False,inspiration,expiration
265,132.0,25,F,up,0.534932900000058,0.3979355431129881,,experiment,emotion,0.0,,,,1059.9205158,1010,23,female,True,10599,10604,False,False,expiration,expiration
266,123.0,25,M,down,0.5469110999999884,1.8377690727504048,,experiment,emotion,0.0,,,,1062.5705323,1010,23,female,True,10625,10630,False,False,expiration,expiration
267,115.0,25,F,down,0.6469902999999704,0.6693614074159262,,experiment,emotion,0.0,,,,1064.0704775000004,1010,23,female,True,10640,10646,False,False,inspiration,inspiration
268,107.0,25,M,up,0.967025299999932,1.2838591457482216,,experiment,emotion,0.0,,,,1066.2704132,1010,23,female,True,10662,10672,False,False,expiration,expiration
269,115.0,25,M,up,0.7927938000000267,1.0870882193045546,,experiment,emotion,0.0,,,,1068.603648,1010,23,female,True,10685,10693,False,False,inspiration,peak
270,132.0,25,F,up,0.5897173999999268,1.7514276346398137,,experiment,emotion,0.0,,,,1071.4367946,1010,23,female,True,10714,10720,False,False,expiration,inspiration
271,115.0,25,F,up,0.5623752000001332,1.825559811626152,,experiment,emotion,0.0,,,,1074.1201069,1010,23,female,True,10740,10746,False,False,expiration,expiration
272,123.0,25,F,up,0.4384202000001096,1.3109795355674232,,experiment,emotion,0.0,,,,1076.2700267999999,1010,23,female,True,10762,10766,False,False,inspiration,inspiration
273,132.0,25,F,up,0.46745669999995704,0.38399188243201204,,experiment,emotion,0.0,,,,1077.3699852,1010,23,female,True,10773,10778,False,False,expiration,expiration
274,123.0,25,F,up,0.6045237000000725,1.9659324554955524,,experiment,emotion,0.0,,,,1080.0699,1010,23,female,True,10800,10806,False,False,inspiration,inspiration
275,107.0,25,F,up,0.4168064000000413,0.4326853069370037,,experiment,emotion,0.0,,,,1081.3865183,1010,23,female,True,10813,10817,False,False,expiration,expiration
276,115.0,25,M,up,0.3669345999999223,0.5652366683682882,,experiment,emotion,0.0,,,,1082.6363713,1010,23,female,True,10826,10830,False,False,expiration,expiration
277,107.0,25,M,up,0.30017259999999624,0.7207035655656344,,experiment,emotion,0.0,,,,1084.0531050999998,1010,23,female,True,10840,10843,False,False,expiration,expiration
278,132.0,25,M,up,0.5348157000000809,1.827126224360056,,experiment,emotion,0.0,,,,1086.5696564000002,1010,23,female,True,10865,10870,False,False,expiration,expiration
279,107.0,25,M,up,0.5155248000000938,0.4797046564142201,,experiment,emotion,0.0,,,,1087.8529503,1010,23,female,True,10878,10883,False,False,expiration,expiration
280,123.0,25,F,up,0.5414542000000893,1.7149336508681925,,experiment,emotion,0.0,,,,1090.3360484999998,1010,23,female,True,10903,10908,False,False,inspiration,expiration
281,123.0,25,M,up,0.6489929000001666,1.7208972678197112,,experiment,emotion,0.0,,,,1092.8694382,1010,23,female,True,10928,10934,False,False,expiration,expiration
282,115.0,25,M,up,0.8054128999999648,0.5456221030150814,,experiment,emotion,0.0,,,,1094.3360277000004,1010,23,female,True,10943,10951,False,False,trough,inspiration
283,115.0,25,F,up,0.6744740999999976,0.9170842738482912,,experiment,emotion,0.0,,,,1096.3359619,1010,23,female,True,10963,10970,False,False,expiration,expiration
284,107.0,25,M,down,0.6862550000000738,1.7860156842877748,,experiment,emotion,0.0,,,,1099.0691875,1010,23,female,True,10990,10997,False,False,inspiration,expiration
285,132.0,25,F,down,0.5356819999999516,1.8925026167644277,,experiment,emotion,0.0,,,,1101.9357427999998,1010,23,female,True,11019,11024,False,False,expiration,inspiration
286,123.0,25,F,up,0.6498119999998835,1.8489031838878365,,experiment,emotion,0.0,,,,1104.5856568000004,1010,23,female,True,11045,11051,False,False,expiration,expiration
287,107.0,25,M,down,0.6799664999998639,1.1366707980150603,,experiment,emotion,0.0,,,,1106.6355104000004,1010,23,female,True,11066,11073,False,False,inspiration,peak
288,132.0,25,M,up,0.5782039000000623,0.8861902110865056,,experiment,emotion,0.0,,,,1108.4521999,1010,23,female,True,11084,11090,False,False,expiration,expiration
289,132.0,25,F,up,0.6140184000000772,1.5017527534275332,,experiment,emotion,0.0,,,,1110.7854267,1010,23,female,True,11107,11113,False,False,inspiration,peak
290,115.0,25,M,down,0.7660386000000017,0.3403486227881741,,experiment,emotion,0.0,,,,1112.0354108,1010,23,female,True,11120,11128,False,False,expiration,expiration
291,107.0,25,F,up,0.7454856000001655,1.7673051873389534,,experiment,emotion,0.0,,,,1114.8519324,1010,23,female,True,11148,11155,False,False,inspiration,expiration
292,115.0,25,F,up,0.4915911999999025,1.0364021498136204,,experiment,emotion,0.0,,,,1116.9018588,1010,23,female,True,11168,11173,False,False,expiration,expiration
293,123.0,25,F,up,0.6529043999998976,0.5031354765539927,,experiment,emotion,0.0,,,,1118.1684917000002,1010,23,female,True,11181,11188,False,False,expiration,inspiration
294,107.0,25,M,down,0.6933181000001696,1.543172341604172,,experiment,emotion,0.0,,,,1120.6350868,1010,23,female,True,11206,11213,False,False,expiration,expiration
295,132.0,25,M,up,0.5034833000001981,1.866594093717924,,experiment,emotion,0.0,,,,1123.4849824,1010,23,female,True,11234,11239,False,False,inspiration,expiration
296,123.0,25,M,up,0.5455431999998837,0.9111727914516791,,experiment,emotion,0.0,,,,1125.1848988000004,1010,23,female,True,11251,11256,False,False,expiration,expiration
297,132.0,25,F,up,0.8305838000001131,1.0313171090548183,,experiment,emotion,0.0,,,,1127.0348629,1010,23,female,True,11270,11278,False,False,expiration,inspiration
298,107.0,25,F,down,0.6146822000000611,0.8620579321850828,,experiment,emotion,0.0,,,,1128.9847646,1010,23,female,True,11289,11295,False,False,expiration,expiration
299,123.0,25,M,up,0.5354286999997839,1.0100964614687244,,experiment,emotion,0.0,,,,1130.8680146000004,1010,23,female,True,11308,11313,False,False,inspiration,inspiration
300,115.0,25,F,down,0.7078478999999334,0.8489703626768135,,experiment,emotion,0.0,,,,1132.5346059,1010,23,female,True,11325,11332,False,False,expiration,expiration
301,115.0,25,M,up,0.6252812000000176,0.32847068470672336,,experiment,emotion,0.0,,,,1133.8511904000004,1010,23,female,True,11338,11344,False,False,expiration,expiration
302,123.0,25,M,up,0.5582210000000032,0.5612818490361644,,experiment,emotion,0.0,,,,1135.3012034,1010,23,female,True,11352,11358,False,False,expiration,inspiration
303,132.0,25,M,up,0.5469862999998439,0.30332872503459835,,experiment,emotion,0.0,,,,1136.434482,1010,23,female,True,11364,11369,False,False,inspiration,expiration
304,115.0,25,F,down,0.5387222000001657,1.6144745106647649,,experiment,emotion,0.0,,,,1138.8677403000004,1010,23,female,True,11388,11393,False,False,expiration,expiration
305,107.0,25,F,down,0.7605092999999671,1.7608974687718213,,experiment,emotion,0.0,,,,1141.4509626,1010,23,female,True,11414,11422,False,False,expiration,expiration
306,107.0,25,M,down,0.7325240999998641,1.5161313496495157,,experiment,emotion,0.0,,,,1144.0008762,1010,23,female,True,11439,11446,False,False,inspiration,inspiration
307,115.0,25,F,down,0.5473081999998612,1.5777877427830944,,experiment,emotion,0.0,,,,1146.5841117999998,1010,23,female,True,11465,11470,False,False,inspiration,inspiration
308,132.0,25,F,up,0.6531431999999313,1.6627741382113903,,experiment,emotion,0.0,,,,1149.0673609,1010,23,female,True,11490,11497,False,False,expiration,expiration
309,123.0,25,M,up,0.5015108000000055,1.3653653290905985,,experiment,emotion,0.0,,,,1151.3839320999998,1010,23,female,True,11513,11518,False,False,inspiration,inspiration
310,107.0,25,M,up,0.6279010999999173,1.843460198322569,,experiment,emotion,0.0,,,,1154.0005237999999,1010,23,female,True,11539,11545,False,False,inspiration,inspiration
311,132.0,25,F,up,0.5710257000000638,1.4074577124855479,,experiment,emotion,0.0,,,,1156.3004156,1010,23,female,True,11562,11568,False,False,expiration,expiration
312,123.0,25,M,up,0.6301825999998982,1.6142310595190157,,experiment,emotion,0.0,,,,1158.7503389,1010,23,female,True,11587,11593,False,False,expiration,inspiration
313,123.0,25,F,up,0.43914780000000064,0.4951093041964814,,experiment,emotion,0.0,,,,1160.1502982999998,1010,23,female,True,11601,11605,False,False,inspiration,inspiration
314,107.0,25,F,up,0.5260608000000957,1.7789075125952374,,experiment,emotion,0.0,,,,1162.6333855,1010,23,female,True,11626,11631,False,False,expiration,expiration
315,115.0,25,F,down,0.6720369999998184,1.8884980187489315,,experiment,emotion,0.0,,,,1165.3334117000004,1010,23,female,True,11653,11660,False,False,expiration,inspiration
316,132.0,25,M,up,0.5580740000000333,0.6884882105290113,,experiment,emotion,0.0,,,,1166.9833687,1010,23,female,True,11669,11675,False,False,inspiration,inspiration
317,115.0,25,M,up,0.44985059999999066,1.4125592558639268,,experiment,emotion,0.0,,,,1169.2165927,1010,23,female,True,11691,11695,False,False,inspiration,inspiration
318,115.0,25,F,up,0.4662599999999202,1.851218355509271,,experiment,emotion,0.0,,,,1171.7831882,1010,23,female,True,11717,11722,False,False,expiration,expiration
319,115.0,25,F,up,1.3346259999998438,1.173265795831054,,experiment,emotion,0.0,,,,1173.6997787,1010,23,female,True,11736,11749,False,False,inspiration,expiration
320,132.0,25,M,up,0.5360961999999745,0.3159902420733479,,experiment,emotion,0.0,,,,1175.6163605000004,1010,23,female,True,11755,11760,False,False,expiration,expiration
321,123.0,25,M,up,0.6641259000000446,1.5268734482771569,,experiment,emotion,0.0,,,,1177.9662912,1010,23,female,True,11779,11786,False,False,inspiration,expiration
322,107.0,25,M,up,0.8183102000000417,0.9060892424546289,,experiment,emotion,0.0,,,,1179.8161151000004,1010,23,female,True,11798,11806,False,False,expiration,expiration
323,107.0,25,M,up,0.6056906000001163,1.326452659152764,,experiment,emotion,0.0,,,,1182.2328167,1010,23,female,True,11822,11828,False,False,peak,expiration
324,123.0,25,M,up,0.5350449000000026,0.5445036045829594,,experiment,emotion,0.0,,,,1183.6494193,1010,23,female,True,11836,11841,False,False,expiration,expiration
325,132.0,25,F,up,0.6024452999999994,0.953375665799483,,experiment,emotion,0.0,,,,1185.4159962,1010,23,female,True,11854,11860,False,False,inspiration,inspiration
326,132.0,25,F,up,0.4924968000000263,0.8675568406186669,,experiment,emotion,0.0,,,,1187.1659511,1010,23,female,True,11871,11876,False,False,expiration,expiration
327,107.0,25,M,up,0.6515254000000823,0.598823301719489,,experiment,emotion,0.0,,,,1188.5159237999999,1010,23,female,True,11885,11892,False,False,expiration,expiration
328,132.0,25,F,up,0.5275770000000648,0.7319991206530334,,experiment,emotion,0.0,,,,1190.1658517,1010,23,female,True,11901,11906,False,False,inspiration,inspiration
329,115.0,25,F,down,0.9533561999999164,1.5252339611028325,,experiment,emotion,0.0,,,,1192.4990753,1010,23,female,True,11924,11934,False,False,expiration,expiration
330,123.0,25,F,down,0.7353850000001785,0.32606104754897985,,experiment,emotion,0.0,,,,1194.0490616,1010,23,female,True,11940,11947,False,False,trough,inspiration
331,115.0,25,M,up,0.5711518999999043,0.7897732808720471,,experiment,emotion,0.0,,,,1195.8322965999998,1010,23,female,True,11958,11964,False,False,expiration,expiration
332,107.0,25,F,up,0.7852204999999229,1.9091499324773948,,experiment,emotion,0.0,,,,1198.582209,1010,23,female,True,11985,11993,False,False,inspiration,inspiration
333,123.0,25,F,up,0.5566853000000265,1.8474765675012323,,experiment,emotion,0.0,,,,1201.4987832000004,1010,23,female,True,12014,12020,False,False,expiration,expiration
334,115.0,25,F,down,0.6830840000000079,0.9708128493280614,,experiment,emotion,0.0,,,,1203.3153619999998,1010,23,female,True,12033,12040,False,False,inspiration,expiration
335,123.0,25,M,up,0.5651465999999346,0.9009024386397092,,experiment,emotion,0.0,,,,1205.1652900999998,1010,23,female,True,12051,12057,False,False,expiration,inspiration
336,107.0,25,M,down,0.7933368999999857,1.1157405580628903,,experiment,emotion,0.0,,,,1207.1150956,1010,23,female,True,12071,12079,False,False,expiration,expiration
337,132.0,25,F,down,0.5707151999999951,1.3871930375874129,,experiment,emotion,0.0,,,,1209.5818064,1010,23,female,True,12095,12101,False,False,expiration,expiration
338,123.0,25,M,up,0.6030428999999913,1.038648945797821,,experiment,emotion,0.0,,,,1211.4484052999999,1010,23,female,True,12114,12120,False,False,inspiration,expiration
339,132.0,25,F,up,0.5295129999999517,1.056318105552517,,experiment,emotion,0.0,,,,1213.3649922,1010,23,female,True,12133,12138,False,False,expiration,expiration
340,107.0,25,M,up,0.41683059999991207,0.5759169010063099,,experiment,emotion,0.0,,,,1214.7316195,1010,23,female,True,12147,12151,False,False,inspiration,inspiration
341,115.0,25,M,up,0.8996007999999165,1.5917578935624708,,experiment,emotion,0.0,,,,1217.014851,1010,23,female,True,12170,12179,False,False,expiration,expiration
342,0.17994120999811145,25,up,up,0.6529345999999805,0.7193232481786938,,experiment,cRDM,1.0,,,,1253.1635252,1010,23,female,True,12531,12538,True,True,inspiration,inspiration
343,0.17994120999811145,25,up,down,0.8130193000001782,0.9272939941227892,,experiment,cRDM,1.0,,,,1255.0134419,1010,23,female,True,12549,12557,True,False,expiration,inspiration
344,0.17994120999811145,25,down,down,0.6563630999999077,0.7393044427592621,,experiment,cRDM,1.0,,,,1256.8300969000004,1010,23,female,True,12568,12575,False,False,peak,expiration
345,0.17994120999811145,25,down,down,0.5691320000000815,0.8120391030942113,,experiment,cRDM,1.0,,,,1258.5633240999998,1010,23,female,True,12585,12591,False,False,expiration,expiration
346,0.17994120999811145,25,up,up,0.4168545999998514,1.1204882153135467,,experiment,cRDM,1.0,,,,1260.5132467,1010,23,female,True,12604,12608,False,False,expiration,expiration
347,0.17994120999811145,25,down,down,0.626694999999927,1.633037889264772,,experiment,cRDM,1.0,,,,1262.8297521000004,1010,23,female,True,12628,12634,False,False,expiration,expiration
348,0.17994120999811145,25,up,up,0.6327278999999635,1.9605160591356523,,experiment,cRDM,1.0,,,,1265.679768,1010,23,female,True,12656,12662,False,False,expiration,expiration
349,0.17994120999811145,25,up,up,0.6641088000001218,1.5739457735098228,,experiment,cRDM,1.0,,,,1268.1463222999998,1010,23,female,True,12681,12688,False,False,expiration,expiration
350,0.17994120999811145,25,down,down,0.7548567999999705,0.7121646993573117,,experiment,cRDM,1.0,,,,1269.7795902,1010,23,female,True,12697,12705,False,False,expiration,inspiration
351,0.17994120999811145,25,down,down,0.8696421999998165,1.8079440539041671,,experiment,cRDM,1.0,,,,1272.6128152,1010,23,female,True,12726,12735,False,False,expiration,expiration
352,0.17994120999811145,25,down,down,0.7190376999999444,1.7875136253354935,,experiment,cRDM,1.0,,,,1275.5293984999998,1010,23,female,True,12755,12762,False,False,inspiration,expiration
353,0.17994120999811145,25,down,down,0.7718498000001546,1.9496030296947653,,experiment,cRDM,1.0,,,,1278.4626002,1010,23,female,True,12784,12792,False,False,expiration,inspiration
354,0.17994120999811145,25,down,up,0.6242283999999927,0.6796842630529383,,experiment,cRDM,1.0,,,,1280.1792188000004,1010,23,female,True,12801,12807,False,False,inspiration,expiration
355,0.17994120999811145,25,down,up,0.6859951999999794,0.6530990643930095,,experiment,cRDM,1.0,,,,1281.7124511,1010,23,female,True,12817,12824,False,False,expiration,expiration
356,0.17994120999811145,25,up,up,0.7543582000000697,1.0237300869464592,,experiment,cRDM,1.0,,,,1283.679089,1010,23,female,True,12836,12844,False,False,inspiration,inspiration
357,0.17994120999811145,25,up,down,0.5521283999999014,1.7248149934403354,,experiment,cRDM,1.0,,,,1286.4123285,1010,23,female,True,12864,12870,False,False,expiration,expiration
358,0.17994120999811145,25,up,up,1.0018857999998545,0.7287780467240978,,experiment,cRDM,1.0,,,,1287.9455992,1010,23,female,True,12879,12889,False,False,expiration,inspiration
359,0.17994120999811145,25,up,up,0.6432724999999664,0.44870403988435337,,experiment,cRDM,1.0,,,,1289.6621845,1010,23,female,True,12896,12902,False,False,inspiration,inspiration
360,0.17994120999811145,25,down,down,0.5816551000000345,1.5608139651997677,,experiment,cRDM,1.0,,,,1292.1288085,1010,23,female,True,12921,12927,False,False,expiration,expiration
361,0.17994120999811145,25,up,up,0.963730299999952,1.055743325370519,,experiment,cRDM,1.0,,,,1294.0287168,1010,23,female,True,12940,12950,False,False,inspiration,inspiration
362,0.17994120999811145,25,up,up,0.6411650000000009,0.6499572956005646,,experiment,cRDM,1.0,,,,1295.8952840999998,1010,23,female,True,12958,12964,False,False,expiration,expiration
363,0.17994120999811145,25,down,up,0.8586540999999671,1.524508109788136,,experiment,cRDM,1.0,,,,1298.3117974000004,1010,23,female,True,12983,12992,False,False,expiration,expiration
364,0.17994120999811145,25,up,up,0.5960589999999684,1.3379919174531267,,experiment,cRDM,1.0,,,,1300.778447,1010,23,female,True,13007,13013,False,False,inspiration,expiration
365,0.17994120999811145,25,down,down,0.9067337000001316,1.1230398134933477,,experiment,cRDM,1.0,,,,1302.7617232,1010,23,female,True,13027,13036,False,False,expiration,expiration
366,0.17994120999811145,25,down,up,0.5901602999999795,1.642030658841222,,experiment,cRDM,1.0,,,,1305.5782954,1010,23,female,True,13055,13061,False,False,inspiration,expiration
367,0.17994120999811145,25,up,up,0.6815464000001157,1.1082653941101883,,experiment,cRDM,1.0,,,,1307.5448755999998,1010,23,female,True,13075,13082,False,False,expiration,expiration
368,0.17994120999811145,25,up,down,1.2310408999999254,1.6836084816997483,,experiment,cRDM,1.0,,,,1310.1614262,1010,23,female,True,13101,13113,False,False,inspiration,expiration
369,0.17994120999811145,25,down,down,0.7018126999998913,1.2808663344007647,,experiment,cRDM,1.0,,,,1312.9446455999998,1010,23,female,True,13129,13136,False,False,expiration,expiration
370,0.17994120999811145,25,up,up,0.6788887000000159,1.7774658998730501,,experiment,cRDM,1.0,,,,1315.6945695000004,1010,23,female,True,13156,13163,False,False,inspiration,expiration
371,0.17994120999811145,25,down,down,0.630974500000093,1.8197017976749628,,experiment,cRDM,1.0,,,,1318.4445114,1010,23,female,True,13184,13190,False,False,expiration,expiration
372,0.17994120999811145,25,down,up,1.0317496000000121,1.8563633133871489,,experiment,cRDM,1.0,,,,1321.1777027,1010,23,female,True,13211,13221,False,False,inspiration,expiration
373,0.17994120999811145,25,down,down,0.6427651999999853,0.7410465035089846,,experiment,cRDM,1.0,,,,1323.2276692,1010,23,female,True,13232,13238,False,False,expiration,expiration
374,0.17994120999811145,25,up,up,0.6778850000000602,0.4619603915186858,,experiment,cRDM,1.0,,,,1324.5775962,1010,23,female,True,13245,13252,False,False,expiration,expiration
375,0.17994120999811145,25,up,up,0.7892732000000251,1.8344213553879585,,experiment,cRDM,1.0,,,,1327.344135,1010,23,female,True,13273,13281,False,False,peak,expiration
376,0.17994120999811145,25,up,up,0.6300439000001461,1.2634200811687324,,experiment,cRDM,1.0,,,,1329.6773912,1010,23,female,True,13296,13302,False,False,inspiration,inspiration
377,0.17994120999811145,25,down,up,1.5084782999999788,1.3162988351194758,,experiment,cRDM,1.0,,,,1331.8939830000004,1010,23,female,True,13318,13333,False,False,expiration,inspiration
378,0.17994120999811145,25,down,up,0.7022964000000229,1.3473992881393475,,experiment,cRDM,1.0,,,,1335.0271089000003,1010,23,female,True,13350,13357,False,False,expiration,expiration
379,0.17994120999811145,25,up,up,0.6119639000000916,1.1542191697753823,,experiment,cRDM,1.0,,,,1337.1604726,1010,23,female,True,13371,13377,False,False,inspiration,inspiration
380,0.17994120999811145,25,down,down,0.6304069999998774,1.028173793288458,,experiment,cRDM,1.0,,,,1339.0770439,1010,23,female,True,13390,13396,False,False,expiration,expiration
381,0.17994120999811145,25,up,up,0.5846083999999792,1.8586605394599964,,experiment,cRDM,1.0,,,,1341.8268445,1010,23,female,True,13418,13424,False,False,inspiration,expiration
382,0.17994120999811145,25,up,up,0.7042773999999099,0.7835257587373177,,experiment,cRDM,1.0,,,,1343.4602390999999,1010,23,female,True,13434,13441,False,False,expiration,expiration
383,0.17994120999811145,25,up,up,0.68898379999996,1.6677824538328825,,experiment,cRDM,1.0,,,,1346.0934423,1010,23,female,True,13460,13467,False,False,inspiration,expiration
384,0.17994120999811145,25,down,down,0.6976910000000771,0.7843446968383271,,experiment,cRDM,1.0,,,,1347.8267541,1010,23,female,True,13478,13485,False,False,expiration,expiration
385,0.17994120999811145,25,down,down,0.8838233999999829,0.943010790234318,,experiment,cRDM,1.0,,,,1349.7266143000004,1010,23,female,True,13497,13506,False,False,inspiration,expiration
386,0.17994120999811145,25,up,up,0.5160783999999694,0.4553525388143954,,experiment,cRDM,1.0,,,,1351.3264410999998,1010,23,female,True,13513,13518,False,False,expiration,expiration
387,0.17994120999811145,25,down,up,0.7105822999999418,0.39342760029720736,,experiment,cRDM,1.0,,,,1352.5098775,1010,23,female,True,13524,13531,False,False,expiration,trough
388,0.17994120999811145,25,down,down,0.7539664000000812,1.9377583975448565,,experiment,cRDM,1.0,,,,1355.426488,1010,23,female,True,13554,13562,False,False,expiration,expiration
389,0.17994120999811145,25,up,up,0.4767760999998245,1.8122727131726108,,experiment,cRDM,1.0,,,,1358.2596750999999,1010,23,female,True,13582,13587,False,False,inspiration,expiration
390,0.17994120999811145,25,up,up,0.5792251999998825,1.6191365805931146,,experiment,cRDM,1.0,,,,1360.6262744,1010,23,female,True,13606,13612,False,False,expiration,expiration
391,0.17994120999811145,25,down,down,0.6070910999999342,1.4251928386281003,,experiment,cRDM,1.0,,,,1362.909364,1010,23,female,True,13629,13635,False,False,inspiration,expiration
392,0.17994120999811145,25,up,up,0.5661006000000269,0.9362578086000112,,experiment,cRDM,1.0,,,,1364.7093541000004,1010,23,female,True,13647,13653,False,False,expiration,expiration
393,0.17994120999811145,25,down,down,0.650209200000063,1.6742273442729931,,experiment,cRDM,1.0,,,,1367.2093220000004,1010,23,female,True,13672,13679,False,False,inspiration,expiration
394,0.17994120999811145,25,down,up,0.468286100000114,0.7999803497668103,,experiment,cRDM,1.0,,,,1368.9091849,1010,23,female,True,13689,13694,False,False,expiration,expiration
395,0.17994120999811145,25,down,down,0.8268898000001172,0.9522900046442058,,experiment,cRDM,1.0,,,,1370.5925387,1010,23,female,True,13705,13713,False,False,expiration,inspiration
396,0.17994120999811145,25,up,up,0.6583049000000756,0.3801173397050085,,experiment,cRDM,1.0,,,,1372.0591635,1010,23,female,True,13720,13727,False,False,inspiration,expiration
397,0.17994120999811145,25,up,up,0.5400200999999925,0.5611703476935124,,experiment,cRDM,1.0,,,,1373.5424639,1010,23,female,True,13735,13740,False,False,expiration,expiration
398,0.17994120999811145,25,down,down,0.6494357999999921,1.4965506662456387,,experiment,cRDM,1.0,,,,1375.8590321,1010,23,female,True,13758,13764,False,False,inspiration,peak
399,0.17994120999811145,25,down,up,0.43225849999998905,1.7299627934791917,,experiment,cRDM,1.0,,,,1378.4922486,1010,23,female,True,13784,13788,False,False,expiration,expiration
400,0.17994120999811145,25,up,up,0.5202328999998826,1.0911765851884494,,experiment,cRDM,1.0,,,,1380.2922624000003,1010,23,female,True,13802,13807,False,False,inspiration,expiration
401,0.17994120999811145,25,up,up,0.6673273999999765,0.42026427794105203,,experiment,cRDM,1.0,,,,1381.4921332,1010,23,female,True,13814,13821,False,False,expiration,expiration
402,0.17994120999811145,25,up,down,0.6347299999999905,0.8035133471837244,,experiment,cRDM,1.0,,,,1383.2087265999999,1010,23,female,True,13832,13838,False,False,inspiration,inspiration
403,0.17994120999811145,25,up,up,0.6104147999999441,0.6285725110221462,,experiment,cRDM,1.0,,,,1384.7420382999999,1010,23,female,True,13847,13853,False,False,inspiration,expiration
404,0.17994120999811145,25,up,up,0.6965148000001591,1.8284531176906236,,experiment,cRDM,1.0,,,,1387.4419404,1010,23,female,True,13874,13881,False,False,inspiration,expiration
405,0.17994120999811145,25,down,down,0.6680292000000918,1.2030992082746232,,experiment,cRDM,1.0,,,,1389.6084420999998,1010,23,female,True,13896,13903,False,False,inspiration,inspiration
406,0.17994120999811145,25,down,up,0.8023683000001256,1.048368798084108,,experiment,cRDM,1.0,,,,1391.575113,1010,23,female,True,13915,13923,False,False,inspiration,inspiration
407,0.17994120999811145,25,up,up,0.5007924999999886,1.6579960279593788,,experiment,cRDM,1.0,,,,1394.2916673,1010,23,female,True,13942,13947,False,False,inspiration,inspiration
408,0.17994120999811145,25,down,down,0.6345277999998871,1.9787345039849809,,experiment,cRDM,1.0,,,,1397.0249531000004,1010,23,female,True,13970,13976,False,False,inspiration,expiration
409,0.17994120999811145,25,down,up,0.6112563000001501,0.6032230091512235,,experiment,cRDM,1.0,,,,1398.5081586,1010,23,female,True,13985,13991,False,False,expiration,expiration
410,0.17994120999811145,25,down,down,0.8550542999998925,1.2013516907242523,,experiment,cRDM,1.0,,,,1400.5914312,1010,23,female,True,14005,14014,False,False,expiration,expiration
411,0.17994120999811145,25,up,up,0.7607035999999425,0.9230573479805712,,experiment,cRDM,1.0,,,,1402.6247346,1010,23,female,True,14026,14034,False,False,expiration,inspiration
412,0.17994120999811145,25,down,up,0.5361073999999917,0.6948814713981888,,experiment,cRDM,1.0,,,,1404.3413362,1010,23,female,True,14043,14048,False,False,expiration,expiration
413,0.17994120999811145,25,down,down,0.6555622999999287,1.319090661379635,,experiment,cRDM,1.0,,,,1406.4579004,1010,23,female,True,14064,14071,False,False,expiration,expiration
414,0.17994120999811145,25,down,down,0.948678100000052,1.3248686881959386,,experiment,cRDM,1.0,,,,1408.7077727,1010,23,female,True,14087,14096,False,False,inspiration,expiration
415,0.17994120999811145,25,up,up,0.5769824999999855,0.3094045487509082,,experiment,cRDM,1.0,,,,1410.2244509000002,1010,23,female,True,14102,14108,False,False,expiration,expiration
416,0.17994120999811145,25,up,up,0.6330497999999807,0.5442646334596483,,experiment,cRDM,1.0,,,,1411.6244080999998,1010,23,female,True,14116,14122,False,False,expiration,expiration
417,0.17994120999811145,25,down,up,0.8426088000001073,0.9700599945095228,,experiment,cRDM,1.0,,,,1413.4909522,1010,23,female,True,14134,14142,False,False,inspiration,inspiration
418,0.17994120999811145,25,up,up,0.7531942000000527,0.4775776779308598,,experiment,cRDM,1.0,,,,1415.0742668,1010,23,female,True,14150,14158,False,False,expiration,expiration
419,0.17994120999811145,25,down,up,0.9472781000001759,1.1754865903069858,,experiment,cRDM,1.0,,,,1417.2741814,1010,23,female,True,14172,14181,False,False,expiration,inspiration
420,0.17994120999811145,25,up,up,0.9853980000000321,0.9940642115522592,,experiment,cRDM,1.0,,,,1419.4741134,1010,23,female,True,14194,14204,False,False,expiration,expiration
421,0.17994120999811145,25,up,up,0.7338192000001982,0.6633643010388801,,experiment,cRDM,1.0,,,,1421.3906920000004,1010,23,female,True,14213,14220,False,False,expiration,trough
422,132.0,25,M,down,1.162939900000083,1.26361465268446,,experiment,emotion,1.0,,,,1435.0735242,1010,23,female,True,14350,14362,False,False,inspiration,expiration
423,107.0,25,M,down,0.5977568999999221,1.7380550276719768,,experiment,emotion,1.0,,,,1438.2567375,1010,23,female,True,14382,14388,False,False,expiration,expiration
424,123.0,25,F,down,0.8998561999999308,0.7703817786709497,,experiment,emotion,1.0,,,,1439.9065905999998,1010,23,female,True,14399,14408,False,False,inspiration,inspiration
425,132.0,25,F,up,0.6058774999999059,1.0869172910274432,,experiment,emotion,1.0,,,,1442.1565833,1010,23,female,True,14421,14427,False,False,expiration,expiration
426,123.0,25,M,down,0.90890730000001,0.9340769743674132,,experiment,emotion,1.0,,,,1443.9565329000002,1010,23,female,True,14439,14448,False,False,inspiration,inspiration
427,115.0,25,F,down,0.8370245000000978,1.8999889958819696,,experiment,emotion,1.0,,,,1447.0564359999998,1010,23,female,True,14470,14478,False,False,trough,inspiration
428,107.0,25,M,down,0.7691586000000825,0.347677681115719,,experiment,emotion,1.0,,,,1448.5063095,1010,23,female,True,14485,14493,False,False,expiration,expiration
429,115.0,25,M,up,0.6215065999999752,1.2345950294916161,,experiment,emotion,1.0,,,,1450.7729605,1010,23,female,True,14507,14513,False,False,inspiration,inspiration
430,132.0,25,F,up,0.7969489999998132,1.4659049916369042,,experiment,emotion,1.0,,,,1453.1395125,1010,23,female,True,14531,14539,False,False,expiration,expiration
431,115.0,25,F,down,0.9323729999998704,1.6588974094358042,,experiment,emotion,1.0,,,,1455.8560968000004,1010,23,female,True,14558,14567,False,False,expiration,expiration
432,123.0,25,F,down,0.7281067999999777,0.7626304251021596,,experiment,emotion,1.0,,,,1457.8393506,1010,23,female,True,14578,14585,False,False,expiration,inspiration
433,132.0,25,F,down,0.5919198999999935,1.6439754745828792,,experiment,emotion,1.0,,,,1460.4725838000004,1010,23,female,True,14604,14610,False,False,expiration,expiration
434,123.0,25,F,down,0.7022850999999264,1.4107553740840024,,experiment,emotion,1.0,,,,1462.7391965000004,1010,23,female,True,14627,14634,False,False,expiration,expiration
435,107.0,25,F,down,0.6336754000001292,1.2400833194592653,,experiment,emotion,1.0,,,,1464.9557654999999,1010,23,female,True,14649,14655,False,False,expiration,expiration
436,115.0,25,M,up,0.5927558000000772,0.5305744572195713,,experiment,emotion,1.0,,,,1466.4057025999998,1010,23,female,True,14664,14670,False,False,inspiration,inspiration
437,107.0,25,M,down,0.7986097000000427,1.5312393666880026,,experiment,emotion,1.0,,,,1468.7889191000004,1010,23,female,True,14687,14695,False,False,expiration,expiration
438,132.0,25,M,down,0.5549361000000772,1.0087227399027,,experiment,emotion,1.0,,,,1470.8555289,1010,23,female,True,14708,14714,False,False,expiration,inspiration
439,107.0,25,M,down,0.7136595999998008,0.5547828714231574,,experiment,emotion,1.0,,,,1472.2387828,1010,23,female,True,14722,14729,False,False,expiration,expiration
440,123.0,25,F,up,0.8140207000001283,0.6242833730130314,,experiment,emotion,1.0,,,,1473.8554375999997,1010,23,female,True,14738,14746,False,False,expiration,trough
441,123.0,25,M,up,0.6791077999998834,0.6183141802017682,,experiment,emotion,1.0,,,,1475.5553538,1010,23,female,True,14755,14762,False,False,inspiration,expiration
442,115.0,25,M,up,0.681471399999964,0.5739118943082644,,experiment,emotion,1.0,,,,1477.0719892000002,1010,23,female,True,14770,14777,False,False,expiration,expiration
443,115.0,25,F,up,1.0978972000000342,0.5088827504861445,,experiment,emotion,1.0,,,,1478.5385772,1010,23,female,True,14785,14796,False,False,expiration,inspiration
444,107.0,25,M,down,0.6796151000000918,1.819444405393687,,experiment,emotion,1.0,,,,1481.7218283,1010,23,female,True,14817,14824,False,False,expiration,expiration
445,132.0,25,F,up,0.5594969000001129,0.813951777802745,,experiment,emotion,1.0,,,,1483.5049617999998,1010,23,female,True,14835,14841,False,False,inspiration,inspiration
446,123.0,25,F,up,0.7118009999999231,0.9399178417512486,,experiment,emotion,1.0,,,,1485.2716682,1010,23,female,True,14852,14859,False,False,expiration,expiration
447,107.0,25,M,down,0.6712388000000828,1.9408299311979749,,experiment,emotion,1.0,,,,1488.1882194,1010,23,female,True,14881,14888,False,False,expiration,expiration
448,132.0,25,M,down,0.8513521999998375,1.9044786976922332,,experiment,emotion,1.0,,,,1491.0381304000002,1010,23,female,True,14910,14919,False,False,inspiration,expiration
449,132.0,25,F,down,0.5504895999999917,1.4158660450009632,,experiment,emotion,1.0,,,,1493.5880203000004,1010,23,female,True,14935,14941,False,False,expiration,expiration
450,115.0,25,M,up,0.608976900000016,1.973690580562202,,experiment,emotion,1.0,,,,1496.40449,1010,23,female,True,14964,14970,False,False,expiration,expiration
451,107.0,25,F,up,0.4629671999998664,0.6666249428730133,,experiment,emotion,1.0,,,,1497.9545340999998,1010,23,female,True,14979,14984,False,False,expiration,inspiration
452,115.0,25,F,up,0.5383386000000883,1.5922174189970242,,experiment,emotion,1.0,,,,1500.2711330999998,1010,23,female,True,15002,15007,False,False,inspiration,expiration
453,123.0,25,F,down,0.8583995999999843,0.9877692004548052,,experiment,emotion,1.0,,,,1502.0710666,1010,23,female,True,15020,15029,False,False,expiration,expiration
454,107.0,25,M,up,0.7881876999999804,1.9530872031371052,,experiment,emotion,1.0,,,,1505.1542800999998,1010,23,female,True,15051,15059,False,False,peak,expiration
455,132.0,25,M,up,1.16862140000012,1.8960584519008885,,experiment,emotion,1.0,,,,1508.1208451,1010,23,female,True,15081,15093,False,False,expiration,inspiration
456,123.0,25,M,down,0.5837088999999196,1.7630614706364556,,experiment,emotion,1.0,,,,1511.320746,1010,23,female,True,15113,15119,False,False,expiration,inspiration
457,132.0,25,F,up,0.5601601999999275,1.2723142885950318,,experiment,emotion,1.0,,,,1513.4373062999998,1010,23,female,True,15134,15140,False,False,expiration,expiration
458,107.0,25,F,up,0.5323106999999254,1.6033389440305739,,experiment,emotion,1.0,,,,1515.8872274,1010,23,female,True,15158,15163,False,False,inspiration,expiration
459,123.0,25,M,up,0.4472809999999754,0.3452474326425605,,experiment,emotion,1.0,,,,1517.0371719,1010,23,female,True,15170,15174,False,False,expiration,expiration
460,115.0,25,F,up,0.8394341000000622,1.7714209711857178,,experiment,emotion,1.0,,,,1519.5370810000004,1010,23,female,True,15195,15203,False,False,inspiration,expiration
461,115.0,25,M,up,0.6361547999999857,0.4715500846163993,,experiment,emotion,1.0,,,,1521.1202715000004,1010,23,female,True,15211,15217,False,False,expiration,expiration
462,123.0,25,M,up,1.2198843999999551,0.825182364565304,,experiment,emotion,1.0,,,,1522.8536202,1010,23,female,True,15228,15240,False,False,inspiration,expiration
463,132.0,25,M,up,0.9313194000001204,1.8726763536748656,,experiment,emotion,1.0,,,,1526.2201506,1010,23,female,True,15262,15271,False,False,inspiration,inspiration
464,115.0,25,F,up,0.7153378000000429,0.44745932830551016,,experiment,emotion,1.0,,,,1527.8701050999998,1010,23,female,True,15278,15285,False,False,expiration,expiration
465,107.0,25,F,up,0.7901283999999578,1.3944411415288056,,experiment,emotion,1.0,,,,1530.2533467,1010,23,female,True,15302,15310,False,False,inspiration,expiration
466,107.0,25,M,up,1.0232504000000515,1.6265332746923735,,experiment,emotion,1.0,,,,1532.9532479,1010,23,female,True,15329,15339,False,False,inspiration,expiration
467,115.0,25,F,up,0.6619763999999577,1.7495511941899504,,experiment,emotion,1.0,,,,1535.986525,1010,23,female,True,15359,15366,False,False,inspiration,inspiration
468,132.0,25,F,up,0.5668319000001247,1.9208089026199529,,experiment,emotion,1.0,,,,1538.8696929999999,1010,23,female,True,15388,15394,False,False,expiration,expiration
469,123.0,25,M,down,0.5452205999999933,1.4118740385446218,,experiment,emotion,1.0,,,,1541.1362844,1010,23,female,True,15411,15416,False,False,expiration,expiration
470,107.0,25,M,down,0.5412860999999793,0.7322670372709567,,experiment,emotion,1.0,,,,1542.6862339000004,1010,23,female,True,15427,15432,False,False,trough,inspiration
471,132.0,25,F,down,0.6543635000000451,1.8923381928266545,,experiment,emotion,1.0,,,,1545.386138,1010,23,female,True,15454,15461,False,False,expiration,inspiration
472,123.0,25,M,up,0.666745100000071,1.7387635034998588,,experiment,emotion,1.0,,,,1548.0527135,1010,23,female,True,15480,15487,False,False,inspiration,expiration
473,123.0,25,F,down,0.4911673999999948,1.3670225279878692,,experiment,emotion,1.0,,,,1550.3692832000004,1010,23,female,True,15503,15508,False,False,expiration,expiration
474,107.0,25,F,down,0.4721528000000035,0.5257258747649046,,experiment,emotion,1.0,,,,1551.6693168000004,1010,23,female,True,15516,15521,False,False,inspiration,inspiration
475,115.0,25,F,up,0.9176785000001928,1.3112555962921892,,experiment,emotion,1.0,,,,1553.7358072999998,1010,23,female,True,15537,15546,False,False,expiration,expiration
476,132.0,25,M,up,0.5913815999999771,1.0040489151113463,,experiment,emotion,1.0,,,,1555.9190859999999,1010,23,female,True,15559,15565,False,False,inspiration,inspiration
477,115.0,25,M,down,1.1354747999998835,1.6388641504163226,,experiment,emotion,1.0,,,,1558.4189845,1010,23,female,True,15584,15595,False,False,inspiration,expiration
478,115.0,25,F,down,0.8315491999999267,0.751209976487789,,experiment,emotion,1.0,,,,1560.5689191,1010,23,female,True,15605,15613,False,False,inspiration,inspiration
479,115.0,25,F,up,0.7999801999999363,1.4512395630576695,,experiment,emotion,1.0,,,,1563.1354922,1010,23,female,True,15631,15639,False,False,inspiration,inspiration
480,132.0,25,M,up,1.2230739999999969,1.624936773800731,,experiment,emotion,1.0,,,,1565.8354079,1010,23,female,True,15658,15670,False,False,expiration,expiration
481,123.0,25,M,up,0.7511669000000438,0.7032637313538471,,experiment,emotion,1.0,,,,1568.0353012,1010,23,female,True,15680,15688,False,False,inspiration,inspiration
482,107.0,25,M,down,0.5306738000001587,0.9382758200373668,,experiment,emotion,1.0,,,,1570.0018231,1010,23,female,True,15700,15705,False,False,expiration,expiration
483,107.0,25,M,down,0.7713550000000851,1.5720326327200331,,experiment,emotion,1.0,,,,1572.3851354,1010,23,female,True,15723,15731,False,False,expiration,expiration
484,123.0,25,M,up,0.8214127999999619,0.8563288104494144,,experiment,emotion,1.0,,,,1574.2850543,1010,23,female,True,15742,15750,False,False,inspiration,inspiration
485,132.0,25,F,up,0.5087714999999662,1.4310111768995697,,experiment,emotion,1.0,,,,1576.8016527999998,1010,23,female,True,15768,15773,False,False,inspiration,expiration
486,132.0,25,F,down,1.0062406999998077,1.3364219554495056,,experiment,emotion,1.0,,,,1578.9182463,1010,23,female,True,15789,15799,False,False,expiration,expiration
487,107.0,25,M,down,1.058334099999911,1.1178366428967312,,experiment,emotion,1.0,,,,1581.3181410999998,1010,23,female,True,15813,15824,False,False,inspiration,inspiration
488,132.0,25,F,up,0.5250617000001512,1.2437123779240369,,experiment,emotion,1.0,,,,1583.9014056,1010,23,female,True,15839,15844,False,False,inspiration,inspiration
489,115.0,25,F,up,0.7275157000001401,1.6529974520043398,,experiment,emotion,1.0,,,,1586.3679524,1010,23,female,True,15863,15870,False,False,peak,expiration
490,123.0,25,F,up,0.7788739000000078,0.7589997447167824,,experiment,emotion,1.0,,,,1588.1345904999998,1010,23,female,True,15881,15889,False,False,expiration,expiration
491,115.0,25,M,down,0.5376440000000002,0.9236228574116848,,experiment,emotion,1.0,,,,1590.1178307,1010,23,female,True,15901,15906,False,False,inspiration,inspiration
492,107.0,25,F,down,0.5367295999999442,0.7596366407291637,,experiment,emotion,1.0,,,,1591.667745,1010,23,female,True,15916,15921,False,False,expiration,expiration
493,123.0,25,F,up,0.7831441000000723,1.1042375000047306,,experiment,emotion,1.0,,,,1593.5843316,1010,23,female,True,15935,15943,False,False,inspiration,expiration
494,115.0,25,F,up,0.8415629000000991,1.1570330301186316,,experiment,emotion,1.0,,,,1595.8009099,1010,23,female,True,15958,15966,False,False,expiration,inspiration
495,123.0,25,M,up,0.9566441000001759,1.7295528259236832,,experiment,emotion,1.0,,,,1598.6508295,1010,23,female,True,15986,15996,False,False,expiration,expiration
496,107.0,25,M,down,0.7293749999998909,0.8704154629239633,,experiment,emotion,1.0,,,,1600.7340952,1010,23,female,True,16007,16014,False,False,inspiration,inspiration
497,132.0,25,F,up,0.5454644999999799,1.5764912016280035,,experiment,emotion,1.0,,,,1603.3340101,1010,23,female,True,16033,16038,False,False,expiration,expiration
498,123.0,25,M,up,0.6825946000001295,1.0409788992997369,,experiment,emotion,1.0,,,,1605.1839222,1010,23,female,True,16051,16058,False,False,inspiration,inspiration
499,132.0,25,F,up,0.4178984000000128,0.8550156528394983,,experiment,emotion,1.0,,,,1607.0005545999998,1010,23,female,True,16070,16074,False,False,expiration,expiration
500,107.0,25,M,up,0.4001931000000241,1.2639177709064842,,experiment,emotion,1.0,,,,1608.9504580999999,1010,23,female,True,16089,16093,False,False,inspiration,inspiration
501,115.0,25,M,up,0.6620338000000174,0.7595763346155486,,experiment,emotion,1.0,,,,1610.4004403,1010,23,female,True,16104,16111,False,False,expiration,expiration
502,0.17994120999811145,25,up,up,0.6946472999998149,0.8277950397526561,,experiment,cRDM,2.0,,,,1643.2658744999999,1010,23,female,True,16432,16439,False,False,expiration,expiration
503,0.17994120999811145,25,up,up,0.5889912000000095,0.5515551079503409,,experiment,cRDM,2.0,,,,1644.7824692000004,1010,23,female,True,16448,16454,False,False,inspiration,inspiration
504,0.17994120999811145,25,down,down,0.7301042999999936,1.6478909330978546,,experiment,cRDM,2.0,,,,1647.2823681,1010,23,female,True,16472,16479,False,False,expiration,expiration
505,0.17994120999811145,25,down,down,0.5397812000001068,0.7394195102914913,,experiment,cRDM,2.0,,,,1649.0156692,1010,23,female,True,16490,16495,False,False,expiration,expiration
506,0.17994120999811145,25,up,up,0.44255139999995663,0.7851357186270262,,experiment,cRDM,2.0,,,,1650.5989544,1010,23,female,True,16506,16510,False,False,inspiration,inspiration
507,0.17994120999811145,25,down,down,0.6492645000000721,0.5769646741073269,,experiment,cRDM,2.0,,,,1651.8822082999998,1010,23,female,True,16519,16525,False,False,expiration,expiration
508,0.17994120999811145,25,up,up,0.5662892000000284,0.393295442775904,,experiment,cRDM,2.0,,,,1653.1821807,1010,23,female,True,16532,16538,False,False,expiration,expiration
509,0.17994120999811145,25,up,up,0.6250938999999107,1.855670483784956,,experiment,cRDM,2.0,,,,1655.8654039,1010,23,female,True,16558,16564,False,False,inspiration,expiration
510,0.17994120999811145,25,down,down,0.7227852999999413,0.6922739049040374,,experiment,cRDM,2.0,,,,1657.4486756,1010,23,female,True,16574,16581,False,False,expiration,inspiration
511,0.17994120999811145,25,down,up,0.809864700000162,0.6575878829593552,,experiment,cRDM,2.0,,,,1659.0986131,1010,23,female,True,16591,16599,False,False,inspiration,peak
512,0.17994120999811145,25,down,down,0.7816219999999703,0.6107580305341269,,experiment,cRDM,2.0,,,,1660.7818802000004,1010,23,female,True,16607,16615,False,False,expiration,expiration
513,0.17994120999811145,25,down,down,0.6682504000000336,0.4856213246826969,,experiment,cRDM,2.0,,,,1662.315197,1010,23,female,True,16623,16630,False,False,expiration,inspiration
514,0.17994120999811145,25,down,down,0.6439843999999084,0.4545090278261328,,experiment,cRDM,2.0,,,,1663.6984886,1010,23,female,True,16637,16643,False,False,inspiration,expiration
515,0.17994120999811145,25,down,down,0.6510246999998799,0.4513219598613997,,experiment,cRDM,2.0,,,,1665.0484099999999,1010,23,female,True,16650,16657,False,False,expiration,expiration
516,0.17994120999811145,25,up,up,0.4983821000000717,0.6444542996721704,,experiment,cRDM,2.0,,,,1666.6150830999998,1010,23,female,True,16666,16671,False,False,expiration,expiration
517,0.17994120999811145,25,up,up,0.5368894000000637,1.5110136559249974,,experiment,cRDM,2.0,,,,1668.8815755,1010,23,female,True,16688,16693,False,False,inspiration,expiration
518,0.17994120999811145,25,up,up,0.7516083999998955,1.4932201469492368,,experiment,cRDM,2.0,,,,1671.1648685999999,1010,23,female,True,16711,16719,False,False,expiration,expiration
519,0.17994120999811145,25,up,up,0.6950503999999,0.30228477398580483,,experiment,cRDM,2.0,,,,1672.481434,1010,23,female,True,16724,16731,False,False,expiration,inspiration
520,0.17994120999811145,25,down,down,0.5755547999999635,1.564648423939091,,experiment,cRDM,2.0,,,,1674.9979794,1010,23,female,True,16750,16756,False,False,expiration,expiration
521,0.17994120999811145,25,up,up,0.6485916999999972,1.80873162753122,,experiment,cRDM,2.0,,,,1677.6479499000002,1010,23,female,True,16776,16782,False,False,inspiration,expiration
522,0.17994120999811145,25,up,up,0.5775926999999683,0.9923824245069824,,experiment,cRDM,2.0,,,,1679.5478692000004,1010,23,female,True,16795,16801,False,False,expiration,inspiration
523,0.17994120999811145,25,down,up,0.5729662999999618,0.7354153998153479,,experiment,cRDM,2.0,,,,1681.1145064,1010,23,female,True,16811,16817,False,False,inspiration,expiration
524,0.17994120999811145,25,up,down,0.6549972999998772,0.7484699514786282,,experiment,cRDM,2.0,,,,1682.7144807,1010,23,female,True,16827,16834,False,False,expiration,expiration
525,0.17994120999811145,25,down,down,0.84681119999982,1.3122371571860258,,experiment,cRDM,2.0,,,,1684.9476625,1010,23,female,True,16849,16857,False,False,peak,expiration
526,0.17994120999811145,25,down,down,0.5965673000000606,1.210717020291879,,experiment,cRDM,2.0,,,,1687.2809046,1010,23,female,True,16872,16878,False,False,expiration,inspiration
527,0.17994120999811145,25,up,up,0.7642684999998437,0.527087348782555,,experiment,cRDM,2.0,,,,1688.6642125,1010,23,female,True,16886,16894,False,False,inspiration,expiration
528,0.17994120999811145,25,up,up,0.9597378000000844,1.887739039177683,,experiment,cRDM,2.0,,,,1691.5807415000004,1010,23,female,True,16915,16925,False,False,expiration,inspiration
529,0.17994120999811145,25,down,down,0.5008854000000156,1.9287030336476991,,experiment,cRDM,2.0,,,,1694.7306568,1010,23,female,True,16947,16952,False,False,expiration,expiration
530,0.17994120999811145,25,up,up,0.4394990000000689,0.9697997744402358,,experiment,cRDM,2.0,,,,1696.46393,1010,23,female,True,16964,16968,False,False,expiration,inspiration
531,0.17994120999811145,25,down,down,0.8266229999999268,0.9029104687010556,,experiment,cRDM,2.0,,,,1698.0638532,1010,23,female,True,16980,16988,False,False,expiration,expiration
532,0.17994120999811145,25,down,up,0.5216092000000572,0.5587670555255644,,experiment,cRDM,2.0,,,,1699.7138200000004,1010,23,female,True,16997,17002,False,False,expiration,expiration
533,0.17994120999811145,25,down,down,0.6564287999999578,1.4482523686180766,,experiment,cRDM,2.0,,,,1701.9470427,1010,23,female,True,17019,17026,False,False,inspiration,expiration
534,0.17994120999811145,25,up,up,0.5461328000001231,0.9100475324626348,,experiment,cRDM,2.0,,,,1703.7803268,1010,23,female,True,17037,17042,False,False,expiration,expiration
535,0.17994120999811145,25,up,up,0.4599063999999089,0.4794764178051874,,experiment,cRDM,2.0,,,,1705.0635985,1010,23,female,True,17050,17055,False,False,inspiration,inspiration
536,0.17994120999811145,25,up,up,0.5479860000000372,0.8772228311090693,,experiment,cRDM,2.0,,,,1706.6635440000002,1010,23,female,True,17066,17071,False,False,expiration,expiration
537,0.17994120999811145,25,down,down,0.6613194000001386,0.8483900714909249,,experiment,cRDM,2.0,,,,1708.3301463,1010,23,female,True,17083,17090,False,False,expiration,inspiration
538,0.17994120999811145,25,down,down,0.7990125999999691,0.6561475791011693,,experiment,cRDM,2.0,,,,1709.9134581,1010,23,female,True,17099,17107,False,False,inspiration,expiration
539,0.17994120999811145,25,up,up,0.5141423000000032,1.4943847569849484,,experiment,cRDM,2.0,,,,1712.4633403,1010,23,female,True,17124,17129,False,False,expiration,expiration
