,stimLvl,stimTime,rand,response,rt,precedingITI,trialNumber,trialType,stimuli,block,estIntens,estThres,estSlope,trialStart,subject,age,gender,headRest,onset,responsI,manBadOnset,manBadRespons,onset_phase,respons_phase
0,150.0,100,F,,,1.1201692539349632,,introTrial,emotion,,,,,402.6273287999993,1011,33,female,True,4025,0,False,False,expiration,0
1,0.9,100,down,,,1.8439488267450013,,introTrial,cRDM,,,,,408.4104454999997,1011,33,female,True,4083,0,False,False,trough,0
2,0.9,25,down,,,1.2825230268736807,,tutorial,cRDM,,,,,449.9922757999992,1011,33,female,True,4499,0,False,False,expiration,0
3,0.9,25,up,,,1.3964724720610928,,tutorial,cRDM,,,,,454.0754702999993,1011,33,female,True,4540,0,False,False,expiration,0
4,0.9,25,up,,,0.9459679945320356,,tutorial,cRDM,,,,,457.70863319999984,1011,33,female,True,4576,0,False,False,trough,0
5,0.9,25,down,down,0.8008884999999282,0.7633170249908168,,tutorial,cRDM,,,,,461.1918210999993,1011,33,female,True,4611,4619,False,False,inspiration,expiration
6,0.9,25,up,up,0.6486505000002579,0.34561684455442004,,tutorial,cRDM,,,,,462.62512509999937,1011,33,female,True,4625,4631,False,False,expiration,inspiration
7,0.9,25,up,up,0.6698483000000124,0.4378033614964896,,tutorial,cRDM,,,,,463.9917731999994,1011,33,female,True,4639,4646,False,False,inspiration,expiration
8,0.9,25,up,up,0.6181209000005765,1.717010045652464,,tutorial,cRDM,,,,,466.6415465999999,1011,33,female,True,4666,4672,False,False,inspiration,expiration
9,0.9,25,down,down,0.6113959000003888,1.3188133763972412,,tutorial,cRDM,,,,,468.85825739999933,1011,33,female,True,4688,4694,False,False,inspiration,inspiration
10,0.9,25,down,up,0.5722110000006069,1.2159386767310896,,tutorial,cRDM,,,,,470.9414779999997,1011,33,female,True,4709,4715,False,False,expiration,inspiration
11,0.9,25,down,down,0.6089031000001341,0.7339649765295218,,tutorial,cRDM,,,,,472.5247677999996,1011,33,female,True,4724,4730,False,False,expiration,expiration
12,200.0,25,M,,,1.9447397039092231,,tutorial,emotion,,,,,480.5911361999997,1011,33,female,True,4805,0,False,False,expiration,0
13,200.0,25,M,up,1.1577608999996298,1.7084076868623637,,tutorial,emotion,,,,,484.9909934999996,1011,33,female,True,4849,4861,False,False,expiration,peak
14,200.0,25,F,up,1.2299207999994906,1.614950327334545,,tutorial,emotion,,,,,488.0407596999994,1011,33,female,True,4880,4892,False,False,inspiration,expiration
15,0.0,25,F,up,1.6165544000004957,0.3593113027893349,,tutorial,emotion,,,,,489.9241327999998,1011,33,female,True,4898,4914,False,False,expiration,peak
16,0.0,25,M,down,1.216969600000084,0.9419880062788766,,tutorial,emotion,,,,,492.7906831,1011,33,female,True,4927,4939,False,False,expiration,peak
17,200.0,25,F,up,0.7827767999997377,0.5683920466839631,,tutorial,emotion,,,,,494.8739394999993,1011,33,female,True,4948,4956,False,False,expiration,inspiration
18,0.0,25,M,down,0.4464920999998867,0.3683618432996846,,tutorial,emotion,,,,,496.30723039999975,1011,33,female,True,4962,4966,False,False,inspiration,expiration
19,200.0,25,M,up,0.5427743000000191,0.34594421740152903,,tutorial,emotion,,,,,497.3739034,1011,33,female,True,4973,4978,False,False,expiration,expiration
20,0.0,25,F,down,0.2501716000006127,0.6035981603471152,,tutorial,emotion,,,,,498.7904693,1011,33,female,True,4987,4990,False,False,inspiration,peak
21,0.0,25,F,up,0.5436347000004389,1.150552272757963,,tutorial,emotion,,,,,500.65704999999986,1011,33,female,True,5006,5011,False,False,trough,inspiration
22,0.29,25,up,down,0.6754457000006369,0.6025842704145741,,psi_staircase_training,cRDM,,0.25,0.25693124029946324,0.10500000000000002,504.6902697999994,1011,33,female,True,5046,5053,False,False,expiration,expiration
23,0.39,25,up,up,0.4621476000002076,0.8949649253858576,,psi_staircase_training,cRDM,,0.3546095744690497,0.36161092129536426,0.10606203002656786,506.5235134999994,1011,33,female,True,5064,5069,False,False,inspiration,expiration
24,0.38,25,down,down,0.41753460000018094,0.7758571494688533,,psi_staircase_training,cRDM,,0.33579878490349385,0.3429317268363466,0.10805553848818844,508.0401038999999,1011,33,female,True,5079,5083,False,False,expiration,inspiration
25,0.35000000000000003,25,down,down,0.6259866999998849,1.2774174458943066,,psi_staircase_training,cRDM,,0.31782208253394256,0.3249720550198983,0.10831353099725742,510.0067232000002,1011,33,female,True,5099,5105,False,False,expiration,inspiration
26,0.34,25,up,up,0.5427647000005891,1.631298970115033,,psi_staircase_training,cRDM,,0.29874613801952915,0.3059673319859477,0.10939245123743067,512.5399428999998,1011,33,female,True,5124,5129,False,False,expiration,inspiration
27,0.33,25,down,down,0.2838576000003741,1.47577708392984,,psi_staircase_training,cRDM,,0.280506144113461,0.287744293960811,0.10964931255241722,514.8232117999996,1011,33,female,True,5147,5150,False,False,expiration,expiration
28,0.28,25,up,up,0.4884640000000218,0.7670772799932926,,psi_staircase_training,cRDM,,0.26317088112038345,0.27040595667174805,0.1096027406454384,516.2732056999994,1011,33,female,True,5162,5167,False,False,inspiration,inspiration
29,0.28,25,down,down,0.5089428000001135,1.1658070033812322,,psi_staircase_training,cRDM,,0.2406343605712441,0.2483363748915044,0.11667630448333274,518.1897558999998,1011,33,female,True,5181,5186,False,False,expiration,inspiration
30,0.27,25,down,up,0.5446568999996089,1.2481171143774683,,psi_staircase_training,cRDM,,0.21884767236250752,0.2268477896342611,0.1211922076340612,520.2230105999997,1011,33,female,True,5201,5206,False,False,expiration,expiration
31,0.34,25,up,down,0.6510969999999361,1.6953227208021142,,psi_staircase_training,cRDM,,0.2893546145267101,0.29680919023981783,0.1129279055491584,522.7396494999994,1011,33,female,True,5227,5234,False,False,expiration,trough
32,0.39,25,down,up,0.3672151999999187,0.9368799854935012,,psi_staircase_training,cRDM,,0.34128543325407795,0.34960908360901155,0.12609334686256754,524.6061829999999,1011,33,female,True,5245,5249,False,False,expiration,expiration
33,0.43,25,down,down,0.3671479999993608,0.8620540486264487,,psi_staircase_training,cRDM,,0.3866660217217212,0.3954615441678607,0.13324164463265845,526.1728104999993,1011,33,female,True,5261,5265,False,False,inspiration,inspiration
34,0.43,25,down,down,0.416818499999863,1.2406894065164178,,psi_staircase_training,cRDM,,0.3768527289731254,0.38575714703622893,0.13489128297835587,528.1060437999995,1011,33,female,True,5280,5284,False,False,expiration,inspiration
35,0.41,25,up,down,0.3838415999998688,1.3385189442526586,,psi_staircase_training,cRDM,,0.36787248669989625,0.3767799037115968,0.13493671346252195,530.1392988999996,1011,33,female,True,5301,5305,False,False,expiration,expiration
36,0.45,25,up,up,0.5672297999999499,0.44698132000493657,,psi_staircase_training,cRDM,,0.4024420192749161,0.4111867931525103,0.13247286452014795,531.2726143,1011,33,female,True,5312,5318,False,False,inspiration,peak
37,0.45,25,down,down,0.44248079999942996,0.6138674780786695,,psi_staircase_training,cRDM,,0.3957558586136839,0.4044693134572952,0.1319984186163668,532.7392031999998,1011,33,female,True,5327,5331,False,False,expiration,expiration
38,0.45,25,down,up,0.4522288999996818,1.9633585909480769,,psi_staircase_training,cRDM,,0.389756784248159,0.39835672199964095,0.13027877044971745,535.4224694999994,1011,33,female,True,5353,5358,False,False,expiration,expiration
39,0.45,25,up,down,0.5097493999992366,1.89929992937857,,psi_staircase_training,cRDM,,0.4151829406036056,0.42461522256251416,0.14288778961567605,538.0559718999993,1011,33,female,True,5380,5385,False,False,expiration,inspiration
40,0.47,25,up,up,0.845365899999706,1.374241741494975,,psi_staircase_training,cRDM,,0.4365677156503185,0.4455697121310409,0.13636947929060395,540.2222871999993,1011,33,female,True,5401,5409,False,False,expiration,expiration
41,0.44,25,up,down,0.4624543999998423,1.1283893703993164,,psi_staircase_training,cRDM,,0.4317213830279106,0.44086554711294346,0.13852314844758748,542.4722229999999,1011,33,female,True,5424,5429,False,False,expiration,trough
42,0.48,25,up,up,0.5940121000003273,1.7274264108975028,,psi_staircase_training,cRDM,,0.4475196472267614,0.4556853335562097,0.12370038081906705,544.9387243000001,1011,33,female,True,5449,5455,False,False,expiration,inspiration
43,0.48,25,down,down,0.5596654999999373,1.0416012206340912,,psi_staircase_training,cRDM,,0.4443781713501522,0.4524850895458599,0.12281011388614327,546.8390180999995,1011,33,female,True,5468,5474,False,False,inspiration,expiration
44,0.49,25,down,down,0.5276496999995288,0.9627622053987202,,psi_staircase_training,cRDM,,0.4415762453985453,0.4495455259896068,0.12072506880568665,548.6390022999993,1011,33,female,True,5486,5491,False,False,expiration,inspiration
45,0.49,25,down,down,0.5181807999997545,1.5960947616598302,,psi_staircase_training,cRDM,,0.4397643975071541,0.4474410477014072,0.11629206831264885,551.0384950999996,1011,33,female,True,5510,5515,False,False,expiration,inspiration
46,0.49,25,up,up,0.6162199999998847,0.9426503025101544,,psi_staircase_training,cRDM,,0.4382341810731536,0.4455854352074429,0.11136270721419803,552.7884864999996,1011,33,female,True,5527,5533,False,False,expiration,expiration
47,0.49,25,up,down,0.4902941000000282,1.8568873231517151,,psi_staircase_training,cRDM,,0.4369961312880017,0.44399674464505257,0.106050918844534,555.5383784999995,1011,33,female,True,5555,5560,False,False,expiration,expiration
48,0.44,25,down,down,0.5913838999995278,1.084878030820073,,psi_staircase_training,cRDM,,0.4428318464148181,0.4521137810860279,0.14061020803917426,557.3883127999999,1011,33,female,True,5573,5579,False,False,inspiration,expiration
49,0.44,25,down,down,0.5704108999998425,0.7786424603603552,,psi_staircase_training,cRDM,,0.4382633427164785,0.4479096326319923,0.1461297541808476,559.0382879999997,1011,33,female,True,5590,5596,False,False,expiration,inspiration
50,0.44,25,up,up,0.6808678999996118,0.9176376144546424,,psi_staircase_training,cRDM,,0.43370734347307743,0.44363538811881903,0.15039800133369952,560.8048621999997,1011,33,female,True,5607,5614,False,False,expiration,expiration
51,0.44,25,up,down,0.5965753999998924,1.4751443071828003,,psi_staircase_training,cRDM,,0.4291695818633513,0.4393118461128576,0.15364317210018472,563.2380837999998,1011,33,female,True,5632,5638,False,False,expiration,expiration
52,100.0,25,M,up,1.4767416000004232,1.017144851030581,,psi_staircase_training,emotion,,100.0,100.0,25.00050000000001,567.6879371999994,1011,33,female,True,5676,5691,False,False,inspiration,expiration
53,55.0,25,M,down,0.9775020000006408,0.5533893207644756,,psi_staircase_training,emotion,,54.742809467541896,54.742809467541896,25.00050000000011,570.0711978999998,1011,33,female,True,5700,5710,False,False,trough,expiration
54,79.0,25,F,down,1.330940300000293,1.015277702291288,,psi_staircase_training,emotion,,79.636070985635,79.636070985635,25.71326925488641,572.4377477999998,1011,33,female,True,5723,5736,False,False,expiration,peak
55,103.0,25,F,up,0.31680710000000545,0.5401690175711229,,psi_staircase_training,emotion,,97.61123893914808,97.61123893914808,26.1463337262867,574.6543574999996,1011,33,female,True,5746,5749,False,False,expiration,expiration
56,87.0,25,M,down,0.6335613999999623,1.0182879720831883,,psi_staircase_training,emotion,,85.98876744579668,85.98876744579668,23.003056417783494,576.4381040999998,1011,33,female,True,5764,5770,False,False,inspiration,expiration
57,95.0,25,F,down,0.5898550000001705,0.9440272609841528,,psi_staircase_training,emotion,,95.05640406123078,95.05640406123078,22.150603223582724,578.3708939999998,1011,33,female,True,5783,5789,False,False,trough,inspiration
58,108.0,25,M,down,0.9162397000000057,1.0817109383588648,,psi_staircase_training,emotion,,102.67895770092095,102.67895770092095,23.933073614491192,580.3874734000002,1011,33,female,True,5803,5812,False,False,expiration,expiration
59,126.0,25,F,down,0.4753810000001977,1.9968066581976935,,psi_staircase_training,emotion,,113.52218870526065,113.52218870526065,31.611106717665084,583.6873446000001,1011,33,female,True,5836,5841,False,False,expiration,expiration
60,141.0,25,F,up,0.5347215000001597,1.676195652583518,,psi_staircase_training,emotion,,125.91882333331543,125.91882333331543,36.39663949116166,586.2039255,1011,33,female,True,5861,5866,False,False,expiration,expiration
61,136.0,25,M,up,0.4168975999991744,1.1989446626768718,,psi_staircase_training,emotion,,119.53557470947138,119.53557470947138,35.07334609210929,588.3038422000001,1011,33,female,True,5882,5886,False,False,inspiration,expiration
62,133.0,25,F,up,0.30019439999978204,0.9510726092144509,,psi_staircase_training,emotion,,114.9817527128816,114.9817527128816,33.731033492664444,590.0371010999997,1011,33,female,True,5900,5903,False,False,expiration,expiration
63,131.0,25,F,up,0.3334921999994549,0.495280492791784,,psi_staircase_training,emotion,,111.50079323252343,111.50079323252343,32.500590880750536,591.3037353,1011,33,female,True,5912,5915,False,False,peak,expiration
64,87.0,25,F,up,0.38349509999989095,1.164703697442071,,psi_staircase_training,emotion,,108.75731285184436,108.75731285184436,31.37340943875356,593.2369850999994,1011,33,female,True,5931,5935,False,False,inspiration,inspiration
65,79.0,25,M,down,0.8144338000001881,1.863635682236025,,psi_staircase_training,emotion,,102.10294117608689,102.10294117608689,34.7908542558678,595.8702334999998,1011,33,female,True,5958,5966,False,False,expiration,inspiration
66,127.0,25,M,up,0.8435299000002487,0.7802387336457461,,psi_staircase_training,emotion,,104.38186571631586,104.38186571631586,33.87607429716758,597.8201781999996,1011,33,female,True,5977,5985,False,False,expiration,expiration
67,78.0,25,F,down,0.5755435999999463,0.8940640267584827,,psi_staircase_training,emotion,,102.36651695237292,102.36651695237292,33.00641149063258,599.9201155999998,1011,33,female,True,5998,6004,False,False,inspiration,expiration
68,128.0,25,F,up,1.627010400000472,1.2352619954665651,,psi_staircase_training,emotion,,104.15204824806791,104.15204824806791,32.02454078919961,602.0866750999994,1011,33,female,True,6020,6036,False,False,inspiration,expiration
69,78.0,25,M,down,0.4197869999998147,0.4080423593668848,,psi_staircase_training,emotion,,102.56614023262631,102.56614023262631,31.084231912782503,604.4699221000002,1011,33,female,True,6044,6048,False,False,expiration,inspiration
70,128.0,25,M,down,1.9437557000001109,0.6950610407138637,,psi_staircase_training,emotion,,104.0140446209615,104.0140446209615,30.06378742363801,605.9198754999998,1011,33,female,True,6058,6077,False,False,expiration,inspiration
71,136.0,25,M,down,0.7479598999998416,1.0911460945616784,,psi_staircase_training,emotion,,108.73060080650484,108.73060080650484,33.612772602959396,609.3197338,1011,33,female,True,6092,6099,False,False,expiration,inspiration
72,141.0,25,M,down,0.8530440000004091,0.3045680284721429,,psi_staircase_training,emotion,,113.49092767238268,113.49092767238268,36.597082909956534,610.7196747999998,1011,33,female,True,6106,6115,False,False,peak,expiration
73,145.0,25,F,up,0.5078118999999788,1.2841254660749428,,psi_staircase_training,emotion,,118.15513761584526,118.15513761584526,38.8259107778131,613.2029299999995,1011,33,female,True,6131,6136,False,False,inspiration,expiration
74,144.0,25,F,up,1.1388782999993057,1.8840947743160124,,psi_staircase_training,emotion,,116.64056258166418,116.64056258166418,38.26794745044332,615.9528424,1011,33,female,True,6159,6170,False,False,inspiration,expiration
75,88.0,25,F,down,0.7246718000005785,0.3986199865977701,,psi_staircase_training,emotion,,115.27250743641744,115.27250743641744,37.72236852420678,617.8530280999994,1011,33,female,True,6178,6185,False,False,expiration,inspiration
76,146.0,25,M,up,0.6600265999995827,0.5120596087372492,,psi_staircase_training,emotion,,116.53467078244422,116.53467078244422,37.191564011034906,619.4526575999997,1011,33,female,True,6194,6201,False,False,expiration,expiration
77,86.0,25,M,down,0.6571709999998347,1.3769187536156502,,psi_staircase_training,emotion,,115.39109494750345,115.39109494750345,36.60726780447219,621.8525503999998,1011,33,female,True,6218,6225,False,False,expiration,expiration
78,147.0,25,F,up,0.35017659999994066,1.0054353068375583,,psi_staircase_training,emotion,,116.44564829011264,116.44564829011264,36.035125007959955,623.8858739999996,1011,33,female,True,6238,6242,False,False,inspiration,expiration
79,85.0,25,F,up,0.33342979999997624,1.5787407009332282,,psi_staircase_training,emotion,,115.4635798169003,115.4635798169003,35.42151194910985,626.2191184999992,1011,33,female,True,6261,6264,False,False,inspiration,inspiration
80,82.0,25,M,down,0.6654851000002964,1.7733568774625452,,psi_staircase_training,emotion,,111.87049322874212,111.87049322874212,37.80481696196925,628.7521975999998,1011,33,female,True,6287,6294,False,False,inspiration,peak
81,144.0,25,M,up,0.6151464000004125,0.8767598987236982,,psi_staircase_training,emotion,,112.85991299634392,112.85991299634392,37.30410493073754,630.6356169999998,1011,33,female,True,6305,6311,False,False,expiration,inspiration
82,0.29,25,up,up,0.955195200000162,1.4734878284716868,,psi_staircase,cRDM,,0.25,0.25693124029946324,0.10500000000000002,652.6014916999992,1011,33,female,True,6525,6535,False,False,inspiration,expiration
83,0.25,25,up,down,0.7145808000004763,1.0435481986248962,,psi_staircase,cRDM,,0.21910266653183127,0.2260132002683493,0.10468632033873933,654.8680805999992,1011,33,female,True,6548,6555,False,False,inspiration,peak
84,0.36,25,down,down,0.6757045000003927,1.4673415891843258,,psi_staircase,cRDM,,0.3202997408361979,0.3276103223604739,0.1107465658214764,657.3179765999994,1011,33,female,True,6572,6579,False,False,trough,inspiration
85,0.33,25,down,down,0.482204200000524,1.2977779122817334,,psi_staircase,cRDM,,0.2990372097977385,0.30641398280716875,0.1117492876491608,659.5514862000001,1011,33,female,True,6595,6600,False,False,expiration,inspiration
86,0.31,25,up,down,0.5961940999995932,0.32156280332401577,,psi_staircase,cRDM,,0.2780189805609542,0.28539811096413914,0.1117849993448388,660.6345156999996,1011,33,female,True,6605,6611,False,False,inspiration,expiration
87,0.38,25,down,down,0.5479291000001467,0.8175322722900418,,psi_staircase,cRDM,,0.3480112713744075,0.3555759797870763,0.11459628421651034,662.3177803999997,1011,33,female,True,6622,6627,False,False,expiration,inspiration
88,0.37,25,up,down,0.4002574999994977,0.3873915064895288,,psi_staircase,cRDM,,0.33275112902232923,0.3403144375400541,0.11457507748254148,663.5177515999994,1011,33,female,True,6634,6638,False,False,expiration,expiration
89,0.43,25,down,down,0.5669265000005907,0.7700897503366401,,psi_staircase,cRDM,,0.386307916878549,0.394269256285154,0.12060476935971512,664.9676965999997,1011,33,female,True,6649,6655,False,False,inspiration,inspiration
90,0.41,25,down,down,0.4871315999998842,1.612212882070568,,psi_staircase,cRDM,,0.3755998989578021,0.3836234278680186,0.12154686595384367,667.4176134999998,1011,33,female,True,6673,6678,False,False,expiration,inspiration
91,0.41,25,up,down,0.5129206999999951,1.2843692598026466,,psi_staircase,cRDM,,0.3645310416234744,0.3726028441867513,0.12227815405703232,669.4507565999992,1011,33,female,True,6694,6699,False,False,expiration,expiration
92,0.45,25,down,down,0.4888541000000259,0.7725628559505753,,psi_staircase,cRDM,,0.4042212598284525,0.4125490383107019,0.12615588305370093,671.0008007999994,1011,33,female,True,6709,6714,False,False,inspiration,expiration
93,0.45,25,down,down,0.4952587999996467,1.1779502781854303,,psi_staircase,cRDM,,0.3966710000540083,0.4050087578401405,0.12630705757116462,672.9174071999996,1011,33,female,True,6728,6733,False,False,expiration,inspiration
94,0.44,25,down,down,0.3172834000006333,0.6394719359911658,,psi_staircase,cRDM,,0.3898834755795968,0.3981348059069885,0.12499778494813188,674.3173501000001,1011,33,female,True,6742,6745,False,False,expiration,expiration
95,0.4,25,up,down,0.3671988000005513,0.48362873809182,,psi_staircase,cRDM,,0.3830871372977213,0.3912433857498167,0.123557408265925,675.4839794,1011,33,female,True,6754,6758,False,False,expiration,inspiration
96,0.45,25,up,down,0.4687161000001652,1.121941110606698,,psi_staircase,cRDM,,0.4103729079489393,0.41753110257559145,0.10843808659421084,677.2839410999994,1011,33,female,True,6772,6777,False,False,expiration,expiration
97,0.47,25,down,down,0.6227712999998403,0.7725496160051506,,psi_staircase,cRDM,,0.4307256817131865,0.4392067705399674,0.1284783513970733,678.7838913999993,1011,33,female,True,6787,6793,False,False,inspiration,peak
98,0.47,25,down,down,0.6182635999994089,1.9293999694713404,,psi_staircase,cRDM,,0.4261035911626512,0.4345519114271844,0.1279819468738768,681.6004426999998,1011,33,female,True,6815,6821,False,False,inspiration,expiration
99,0.47,25,up,up,0.677335000000312,0.9279680620039223,,psi_staircase,cRDM,,0.4218686887172721,0.4302074756392334,0.12632264774801355,683.4003684999998,1011,33,female,True,6833,6840,False,False,expiration,inspiration
100,0.44,25,up,up,0.6561147000002165,0.9007720531097184,,psi_staircase,cRDM,,0.4180150470854282,0.4261837956904268,0.12374677063083007,685.2335988999994,1011,33,female,True,6851,6858,False,False,expiration,expiration
101,0.44,25,up,down,0.8044505999996545,1.1894802148603254,,psi_staircase,cRDM,,0.4121703745526179,0.4204802669422768,0.12588493014471655,687.3502350999997,1011,33,female,True,6873,6881,False,False,expiration,expiration
102,0.48,25,up,up,0.5652694000000338,0.7330005927656964,,psi_staircase,cRDM,,0.4308176198982195,0.4389674634795412,0.12346038213464355,689.1503890999992,1011,33,female,True,6891,6897,False,False,inspiration,inspiration
103,0.48,25,down,down,0.5683486999996603,1.9537587617031464,,psi_staircase,cRDM,,0.4282231479043657,0.4361203103748999,0.11963256554101845,691.9333618000002,1011,33,female,True,6918,6924,False,False,inspiration,inspiration
104,0.48,25,down,down,0.6144790999996985,1.5509915579669051,,psi_staircase,cRDM,,0.4259498279485113,0.4335587267163543,0.11526571524080224,694.3166154,1011,33,female,True,6942,6948,False,False,inspiration,inspiration
105,0.48,25,down,up,0.5272118999992017,0.6152833178580009,,psi_staircase,cRDM,,0.42400822189316,0.43130130148112333,0.1104814324206112,695.8165633999997,1011,33,female,True,6957,6962,False,False,expiration,expiration
106,0.49,25,up,down,0.4857603000000381,0.9482352353683068,,psi_staircase,cRDM,,0.4335298194407376,0.4428185910739841,0.14071377983625946,697.5499432999995,1011,33,female,True,6975,6980,False,False,inspiration,expiration
107,0.47,25,up,up,0.5572731000002022,1.31874875527102,,psi_staircase,cRDM,,0.4453457172113349,0.4552833838762956,0.1505437634158608,699.6164343999999,1011,33,female,True,6995,7001,False,False,inspiration,inspiration
108,0.47,25,down,down,0.4933361999992485,0.4679764256517752,,psi_staircase,cRDM,,0.4420918009073611,0.4521039693485294,0.15167237621296695,700.9163675,1011,33,female,True,7008,7013,False,False,expiration,expiration
109,0.47,25,down,down,0.6423964000005071,1.8453701432028817,,psi_staircase,cRDM,,0.4388487061612204,0.4489035813335709,0.15231933210836215,703.5162858999993,1011,33,female,True,7034,7040,False,False,expiration,expiration
110,0.48,25,up,up,0.5644405000002735,0.3979634089696087,,psi_staircase,cRDM,,0.4356032060144582,0.4456758632682842,0.1525887093733611,704.8162470999997,1011,33,female,True,7047,7053,False,False,trough,inspiration
111,0.48,25,up,down,0.5538599000001341,0.6028003150800283,,psi_staircase,cRDM,,0.432578867653886,0.4426210726970096,0.15212739480546147,706.2328526000001,1011,33,female,True,7062,7068,False,False,expiration,expiration
112,0.5700000000000001,25,down,down,0.6746321000000535,1.6692634171258005,,psi_staircase,cRDM,,0.4443590274004709,0.4545747142341101,0.1547554364281923,708.7160856,1011,33,female,True,7086,7093,False,False,expiration,expiration
113,0.46,25,up,up,0.6443767999999181,1.3471706674097943,,psi_staircase,cRDM,,0.4431057237281609,0.4532113632899373,0.1530883518882869,710.9993415999996,1011,33,female,True,7109,7115,False,False,inspiration,inspiration
114,0.56,25,down,down,0.3671002999999473,1.0871354932139043,,psi_staircase,cRDM,,0.4399652158544925,0.45013905220743705,0.15412145170351432,712.9826012999993,1011,33,female,True,7129,7133,False,False,expiration,expiration
115,0.46,25,up,up,0.4744957000002614,1.920179753606799,,psi_staircase,cRDM,,0.4385345723215428,0.4486045164542277,0.1525476088332691,715.5991876999997,1011,33,female,True,7155,7160,False,False,expiration,expiration
116,0.47,25,down,down,0.2838749000002281,1.8158869732001577,,psi_staircase,cRDM,,0.4353032809412637,0.4454251505794491,0.15333421813290254,718.1490226999996,1011,33,female,True,7181,7184,False,False,expiration,expiration
117,0.54,25,up,up,0.5146359999998822,0.4626260024822989,,psi_staircase,cRDM,,0.4322254447284946,0.4423614949380649,0.15354903682784,719.2990663999999,1011,33,female,True,7192,7197,False,False,expiration,inspiration
118,0.47,25,down,down,0.3337922000000617,1.0069236742551548,,psi_staircase,cRDM,,0.4304309432150746,0.4404750196873846,0.1521557447191983,721.0989820999994,1011,33,female,True,7210,7213,False,False,expiration,expiration
119,0.47,25,up,up,0.31716190000042843,1.428993856023935,,psi_staircase,cRDM,,0.42730948200972496,0.4373568115252704,0.15220502443321124,723.1989170999997,1011,33,female,True,7231,7234,False,False,peak,expiration
120,0.48,25,up,down,0.31717849999949976,0.5939344088088327,,psi_staircase,cRDM,,0.4241883650726693,0.4342289977052802,0.15210357466697447,724.4655181999997,1011,33,female,True,7244,7247,False,False,expiration,trough
121,0.58,25,down,down,0.5872732999996515,1.7180751611029392,,psi_staircase,cRDM,,0.43617326689741204,0.4463516885072561,0.1541909128610633,726.8654493999992,1011,33,female,True,7268,7274,False,False,expiration,inspiration
122,0.5700000000000001,25,down,down,0.7543857000000571,1.5999565683729562,,psi_staircase,cRDM,,0.4350262158704689,0.44510487971560986,0.15267970204723014,729.3153373999994,1011,33,female,True,7292,7300,False,False,expiration,inspiration
123,0.5700000000000001,25,down,down,0.6113733000001957,1.4344857717395871,,psi_staircase,cRDM,,0.4337866071646228,0.4437678134672624,0.1512033368484314,731.7652940999997,1011,33,female,True,7317,7323,False,False,expiration,trough
124,0.46,25,up,up,0.6521515999993426,0.5641222986020717,,psi_staircase,cRDM,,0.4325704635315332,0.4424549761128752,0.14973854262725345,733.1985285999998,1011,33,female,True,7331,7338,False,False,inspiration,expiration
125,0.46,25,up,down,0.5145320000001448,1.9493332920666848,,psi_staircase,cRDM,,0.4294679251668787,0.4393919004758641,0.15033635574922374,736.0651526000001,1011,33,female,True,7360,7365,False,False,expiration,expiration
126,0.58,25,down,up,0.6210100999996939,0.8952306062291724,,psi_staircase,cRDM,,0.4399653745898673,0.4497908501563218,0.14884420246656507,737.7316738999997,1011,33,female,True,7377,7383,False,False,inspiration,inspiration
127,0.62,25,down,down,0.5493207999998049,0.9819454094150286,,psi_staircase,cRDM,,0.4481040899327011,0.4587854961295378,0.16181052772830526,739.5983103999997,1011,33,female,True,7395,7400,False,False,expiration,expiration
128,0.61,25,down,down,0.8838498999994044,1.966720310893135,,psi_staircase,cRDM,,0.4474283406574278,0.4580141142003477,0.16036180740879274,742.3648524999999,1011,33,female,True,7423,7432,False,False,expiration,inspiration
129,0.61,25,up,up,0.5812774000005447,1.8717462188176248,,psi_staircase,cRDM,,0.4466993322708776,0.4571883320813104,0.15889580111379553,745.3814122999993,1011,33,female,True,7453,7459,False,False,trough,inspiration
130,0.61,25,up,up,0.5486865999992006,1.0591905777840012,,psi_staircase,cRDM,,0.4459873733259429,0.4563796665909657,0.15743081262265488,747.2980066,1011,33,female,True,7472,7477,False,False,expiration,expiration
131,0.61,25,up,up,0.7335017000004882,1.9351613122261453,,psi_staircase,cRDM,,0.4452930346166174,0.4555888953213886,0.1559699746789463,750.0481896000001,1011,33,female,True,7500,7507,False,False,expiration,expiration
132,100.0,25,M,down,0.9747916000005716,0.4878276572010525,,psi_staircase,emotion,,100.0,100.0,25.00050000000001,758.7809146999997,1011,33,female,True,7587,7597,False,False,trough,peak
133,145.0,25,M,up,0.5188382999995156,0.3657470858555548,,psi_staircase,emotion,,145.25719053245996,145.25719053245996,25.000500000000283,760.4808691999997,1011,33,female,True,7604,7609,False,False,expiration,expiration
134,121.0,25,F,up,0.5427903999998307,0.6526265765428776,,psi_staircase,emotion,,120.36392901436103,120.36392901436103,25.71326925488699,761.9974647999996,1011,33,female,True,7619,7624,False,False,inspiration,inspiration
135,97.0,25,F,down,0.6003165000001899,1.1106653347762856,,psi_staircase,emotion,,102.38876106084959,102.38876106084959,26.14633372628729,763.9974034999997,1011,33,female,True,7639,7645,False,False,inspiration,inspiration
136,113.0,25,M,down,0.7221603000007235,1.000319804867665,,psi_staircase,emotion,,114.01123255420406,114.01123255420406,23.003056417783352,765.9475892,1011,33,female,True,7659,7666,False,False,expiration,inspiration
137,127.0,25,F,up,0.5954532999994626,0.4671506638173838,,psi_staircase,emotion,,123.15505271238727,123.15505271238727,23.86267166612523,767.4972711,1011,33,female,True,7674,7680,False,False,expiration,expiration
138,117.0,25,M,down,0.31709700000010344,0.8542881306345971,,psi_staircase,emotion,,116.72664759921038,116.72664759921038,20.612160618334435,769.3138730999998,1011,33,female,True,7692,7695,False,False,inspiration,peak
139,128.0,25,F,up,0.5418534999998883,1.2285037277503779,,psi_staircase,emotion,,122.2309869143983,122.2309869143983,20.83216394857295,771.3137944999999,1011,33,female,True,7712,7717,False,False,inspiration,inspiration
140,113.0,25,F,down,0.4263103000002957,0.8849740785934741,,psi_staircase,emotion,,118.62736425730574,118.62736425730574,17.52430219955878,773.0804026999996,1011,33,female,True,7730,7734,False,False,expiration,inspiration
141,124.0,25,M,up,0.3835604000005333,0.9541475072405496,,psi_staircase,emotion,,120.91210012930685,120.91210012930685,14.786658830345466,774.8136786999994,1011,33,female,True,7747,7751,False,False,expiration,expiration
142,119.0,25,F,down,0.5141045000000304,0.7308489082089398,,psi_staircase,emotion,,118.71347309422407,118.71347309422407,11.783902417745555,776.3136064999999,1011,33,female,True,7762,7767,False,False,inspiration,inspiration
143,124.0,25,F,up,0.6901555000004009,0.6528613728405144,,psi_staircase,emotion,,120.9205929819224,120.9205929819224,11.771359803201811,777.8135542,1011,33,female,True,7777,7784,False,False,expiration,inspiration
144,118.0,25,F,down,0.7938426999999137,1.5807795440484966,,psi_staircase,emotion,,119.6003032335427,119.6003032335427,9.104620476868293,780.4468153999997,1011,33,female,True,7804,7812,False,False,expiration,expiration
145,122.0,25,M,down,0.5029351999992286,1.1436468980346228,,psi_staircase,emotion,,120.60067425105018,120.60067425105018,7.120605335927787,782.7300369999994,1011,33,female,True,7826,7831,False,False,expiration,trough
146,129.0,25,M,down,0.6244446999999127,1.125654275028288,,psi_staircase,emotion,,122.68391181803275,122.68391181803275,11.910250558793162,784.7132791999992,1011,33,female,True,7846,7852,False,False,peak,expiration
147,140.0,25,F,up,0.5801283999999214,1.1037302261289166,,psi_staircase,emotion,,126.88504799218454,126.88504799218454,22.153580076257988,786.7965561000002,1011,33,female,True,7867,7873,False,False,inspiration,inspiration
148,139.0,25,F,up,0.620505900000353,0.4872359178803585,,psi_staircase,emotion,,125.12547105423641,125.12547105423641,19.513276790108442,788.2131620999999,1011,33,female,True,7881,7887,False,False,expiration,expiration
149,137.0,25,M,up,0.6199308000004748,1.594083999511822,,psi_staircase,emotion,,123.93592998322731,123.93592998322731,17.250057915104808,790.7797479999998,1011,33,female,True,7907,7913,False,False,expiration,expiration
150,110.0,25,M,up,0.5120286999999735,0.8704291460978404,,psi_staircase,emotion,,123.10285561381805,123.10285561381805,15.309840113084755,792.6296661999995,1011,33,female,True,7925,7930,False,False,inspiration,inspiration
151,100.0,25,M,up,0.7017335999998977,0.863542745440907,,psi_staircase,emotion,,120.35833167088093,120.35833167088093,23.453318415519416,794.3629523,1011,33,female,True,7943,7950,False,False,expiration,inspiration
152,91.0,25,M,down,0.9164113999995608,0.7737263492701819,,psi_staircase,emotion,,116.49918035652334,116.49918035652334,30.867145500687013,796.1962536000002,1011,33,female,True,7961,7970,False,False,expiration,expiration
153,92.0,25,F,down,0.6112770999998247,1.821217427474182,,psi_staircase,emotion,,117.61391731628949,117.61391731628949,29.57803817079939,799.2794335999997,1011,33,female,True,7992,7998,False,False,expiration,expiration
154,92.0,25,F,down,0.5847604999999021,1.8512182819682563,,psi_staircase,emotion,,118.54247404078386,118.54247404078386,28.339457818547796,802.0960036999995,1011,33,female,True,8020,8026,False,False,expiration,expiration
155,145.0,25,F,up,0.8364541999999346,1.198738920426283,,psi_staircase,emotion,,119.28874419522795,119.28874419522795,27.175396869402746,804.2292345999996,1011,33,female,True,8041,8049,False,False,inspiration,expiration
156,94.0,25,M,up,0.6397817000006398,1.6538574254615381,,psi_staircase,emotion,,118.56868455680359,118.56868455680359,25.97997526945828,807.0791673999993,1011,33,female,True,8070,8076,False,False,inspiration,expiration
157,86.0,25,M,down,0.5923179000001255,0.8672185763893918,,psi_staircase,emotion,,115.4261799023478,115.4261799023478,31.557848405207423,808.9624051999998,1011,33,female,True,8089,8095,False,False,inspiration,inspiration
158,87.0,25,F,down,0.5303327999999965,0.3629539596119407,,psi_staircase,emotion,,116.19225084387648,116.19225084387648,30.606019973711792,810.2623622000001,1011,33,female,True,8102,8107,False,False,inspiration,expiration
159,146.0,25,F,down,0.4511417000003348,1.3938863122009688,,psi_staircase,emotion,,116.86143920032309,116.86143920032309,29.685243424836386,812.5456176999996,1011,33,female,True,8125,8130,False,False,inspiration,inspiration
160,152.0,25,M,up,0.38350590000027296,1.4141809362998552,,psi_staircase,emotion,,120.11216027780037,120.11216027780037,34.431358938112226,814.7621972999997,1011,33,female,True,8147,8151,False,False,expiration,inspiration
161,151.0,25,M,up,0.5472890000000916,1.4215055713609706,,psi_staircase,emotion,,119.33876755879808,119.33876755879808,33.659059104652016,816.9454292,1011,33,female,True,8169,8174,False,False,expiration,expiration
162,151.0,25,F,up,0.5683357999996588,1.5623297814185275,,psi_staircase,emotion,,118.64078318419254,118.64078318419254,32.89921648509698,819.3953549999997,1011,33,female,True,8193,8199,False,False,expiration,expiration
163,86.0,25,M,down,0.6204191000006176,1.6009279887375425,,psi_staircase,emotion,,118.03137547005865,118.03137547005865,32.16400314666474,821.8952761,1011,33,female,True,8218,8224,False,False,peak,expiration
164,150.0,25,F,down,0.3667532999998002,0.6769510620452035,,psi_staircase,emotion,,118.63466728603096,118.63466728603096,31.401058143444878,823.5452878999995,1011,33,female,True,8235,8239,False,False,inspiration,inspiration
165,155.0,25,M,down,0.6321986000002653,1.6699418084329545,,psi_staircase,emotion,,121.4415596817525,121.4415596817525,35.19593593305417,825.9784918999994,1011,33,female,True,8259,8265,False,False,expiration,inspiration
166,158.0,25,F,up,0.8979664999997112,1.004718526905101,,psi_staircase,emotion,,124.38302524381064,124.38302524381064,38.1163775115598,828.0117138999993,1011,33,female,True,8279,8288,False,False,expiration,expiration
167,158.0,25,M,up,0.6907867999998416,1.3962357045628022,,psi_staircase,emotion,,123.6671526764495,123.6671526764495,37.60812885586356,830.6449514999996,1011,33,female,True,8306,8313,False,False,expiration,expiration
168,88.0,25,F,down,0.4428170000001046,1.252251964885237,,psi_staircase,emotion,,123.01451371266306,123.01451371266306,37.10420163105256,832.9448748999994,1011,33,female,True,8329,8333,False,False,expiration,expiration
169,159.0,25,M,down,0.745918999999958,1.8455918389775536,,psi_staircase,emotion,,123.61943777286493,123.61943777286493,36.59686271432902,835.5947800999992,1011,33,female,True,8355,8362,False,False,expiration,expiration
170,161.0,25,M,up,0.6829752000003282,0.3872783338382983,,psi_staircase,emotion,,126.35633722082471,126.35633722082471,39.07141071204737,837.0947253999992,1011,33,female,True,8370,8377,False,False,inspiration,expiration
171,161.0,25,F,down,0.3668219000001045,0.8710524646848317,,psi_staircase,emotion,,125.70213267630136,125.70213267630136,38.64138885847936,838.9946466000001,1011,33,female,True,8389,8393,False,False,expiration,trough
172,162.0,25,F,up,0.350065600000562,1.0226937572315995,,psi_staircase,emotion,,128.31698929489806,128.31698929489806,40.494038379948506,840.7945746999994,1011,33,female,True,8407,8411,False,False,expiration,expiration
173,162.0,25,F,down,0.5398680999996941,1.0816771670831755,,psi_staircase,emotion,,127.64085155524263,127.64085155524263,40.13833855194584,842.6278254999997,1011,33,female,True,8425,8430,False,False,inspiration,peak
174,162.0,25,M,up,1.0479873000003863,1.877134682649676,,psi_staircase,emotion,,130.1157350165667,130.1157350165667,41.535615981750105,845.3777399999999,1011,33,female,True,8453,8463,False,False,inspiration,expiration
175,162.0,25,M,up,0.6284527000007074,0.4783051367915466,,psi_staircase,emotion,,129.41313290248578,129.41313290248578,41.23559473980463,847.2442689999997,1011,33,female,True,8472,8478,False,False,trough,inspiration
176,95.0,25,F,down,0.6380958999998256,0.951471916894612,,psi_staircase,emotion,,128.7530738676523,128.7530738676523,40.93426432743525,849.1776004999992,1011,33,female,True,8491,8497,False,False,expiration,expiration
177,164.0,25,F,down,0.5238349000001108,0.7262677857684308,,psi_staircase,emotion,,129.3801764292123,129.3801764292123,40.61570879062239,850.9108611000001,1011,33,female,True,8508,8513,False,False,inspiration,expiration
178,164.0,25,F,up,1.311587199999849,0.9751921986276576,,psi_staircase,emotion,,131.66488618972915,131.66488618972915,41.86709776568858,852.7441589999999,1011,33,female,True,8527,8540,False,False,trough,peak
179,98.0,25,M,down,0.5419421000005968,0.3422078546663377,,psi_staircase,emotion,,131.01916236144473,131.01916236144473,41.59377480484204,854.7607502999998,1011,33,female,True,8547,8552,False,False,expiration,expiration
180,166.0,25,M,up,0.613394299999527,0.6471625746085381,,psi_staircase,emotion,,131.63091497083866,131.63091497083866,41.316713260606655,856.3273358999995,1011,33,female,True,8562,8568,False,False,inspiration,expiration
181,97.0,25,M,down,0.4894722999997612,0.8039305125849074,,psi_staircase,emotion,,131.05335945496054,131.05335945496054,41.02541776436577,858.1272739999995,1011,33,female,True,8580,8585,False,False,expiration,inspiration
182,0.4446167627696291,25,down,down,0.8346680000004199,1.0252780839682776,,experiment,cRDM,0.0,,,,864.0770483999995,1011,33,female,True,8640,8648,False,False,expiration,expiration
183,0.4446167627696291,25,up,up,0.5777348999999958,1.300927408842829,,experiment,cRDM,0.0,,,,866.4769769999994,1011,33,female,True,8664,8670,False,False,expiration,expiration
184,0.4446167627696291,25,down,down,0.7171823000007862,0.3735231550012979,,experiment,cRDM,0.0,,,,867.6935807999997,1011,33,female,True,8676,8683,False,False,expiration,inspiration
185,0.4446167627696291,25,up,up,0.9019170000001396,1.9101725400169969,,experiment,cRDM,0.0,,,,870.5768185999997,1011,33,female,True,8705,8714,False,False,inspiration,expiration
186,0.4446167627696291,25,down,down,0.5304313999995429,1.9039343314651545,,experiment,cRDM,0.0,,,,873.6432940999994,1011,33,female,True,8736,8741,False,False,inspiration,inspiration
187,0.4446167627696291,25,down,down,0.6384856999993644,1.5986243754858631,,experiment,cRDM,0.0,,,,876.0432286999994,1011,33,female,True,8760,8766,False,False,inspiration,inspiration
188,0.4446167627696291,25,up,up,0.7382434999999532,0.5885245139495485,,experiment,cRDM,0.0,,,,877.5264480999996,1011,33,female,True,8775,8782,False,False,expiration,inspiration
189,0.4446167627696291,25,down,down,0.5172900000006848,0.3898481163716968,,experiment,cRDM,0.0,,,,878.9264014999999,1011,33,female,True,8789,8794,False,False,inspiration,inspiration
190,0.4446167627696291,25,up,up,0.6072585000001709,1.2817584982686403,,experiment,cRDM,0.0,,,,880.9764492999992,1011,33,female,True,8809,8815,False,False,expiration,inspiration
191,0.4446167627696291,25,up,down,0.3838457000001654,0.4942974100181735,,experiment,cRDM,0.0,,,,882.3263592999992,1011,33,female,True,8823,8827,False,False,expiration,expiration
192,0.4446167627696291,25,down,down,0.6063389000000825,1.316202028465458,,experiment,cRDM,0.0,,,,884.3263515999997,1011,33,female,True,8843,8849,False,False,inspiration,inspiration
193,0.4446167627696291,25,up,up,0.5367912000001525,1.6421071675692482,,experiment,cRDM,0.0,,,,886.8429267000001,1011,33,female,True,8868,8873,False,False,inspiration,inspiration
194,0.4446167627696291,25,up,down,0.3837786000003689,1.687477905227743,,experiment,cRDM,0.0,,,,889.3261742999994,1011,33,female,True,8893,8897,False,False,trough,inspiration
195,0.4446167627696291,25,up,down,0.9983976000003169,1.6078101158911235,,experiment,cRDM,0.0,,,,891.6093731999998,1011,33,female,True,8915,8925,False,False,expiration,inspiration
196,0.4446167627696291,25,down,down,0.7183757000002515,0.6430014325077409,,experiment,cRDM,0.0,,,,893.5093163000001,1011,33,female,True,8934,8941,False,False,expiration,expiration
197,0.4446167627696291,25,down,down,0.6468557000007422,0.631411897519337,,experiment,cRDM,0.0,,,,895.1258737999997,1011,33,female,True,8951,8957,False,False,inspiration,inspiration
198,0.4446167627696291,25,up,up,0.5849037000007229,0.6851579543259223,,experiment,cRDM,0.0,,,,896.7258449999998,1011,33,female,True,8967,8973,False,False,trough,inspiration
199,0.4446167627696291,25,up,down,0.5762435000006008,1.1308818920311037,,experiment,cRDM,0.0,,,,898.6924527000001,1011,33,female,True,8986,8992,False,False,inspiration,expiration
200,0.4446167627696291,25,down,up,0.8459897999991881,0.8710010119587053,,experiment,cRDM,0.0,,,,900.4257050999995,1011,33,female,True,9003,9011,False,False,expiration,inspiration
201,0.4446167627696291,25,down,down,0.6967557000007218,1.4915889540469054,,experiment,cRDM,0.0,,,,903.0089611999992,1011,33,female,True,9029,9036,False,False,expiration,expiration
202,0.4446167627696291,25,up,down,0.7021546000005401,1.6428220729267595,,experiment,cRDM,0.0,,,,905.6255232999993,1011,33,female,True,9056,9063,False,False,expiration,expiration
203,0.4446167627696291,25,down,down,0.5289275000004636,1.6278392216586577,,experiment,cRDM,0.0,,,,908.2087673999997,1011,33,female,True,9081,9086,False,False,inspiration,expiration
204,0.4446167627696291,25,up,up,0.7273566000003484,0.4279575129943585,,experiment,cRDM,0.0,,,,909.4253723999999,1011,33,female,True,9093,9100,False,False,expiration,expiration
205,0.4446167627696291,25,down,down,0.4976954000003389,1.2647988960134715,,experiment,cRDM,0.0,,,,911.6920021999997,1011,33,female,True,9116,9121,False,False,expiration,expiration
206,0.4446167627696291,25,down,down,0.6075500999995711,0.7759216452881171,,experiment,cRDM,0.0,,,,913.2252336,1011,33,female,True,9131,9137,False,False,inspiration,inspiration
207,0.4446167627696291,25,up,down,0.4167728000002171,1.7377652466973923,,experiment,cRDM,0.0,,,,915.8251383999997,1011,33,female,True,9157,9161,False,False,inspiration,inspiration
208,0.4446167627696291,25,up,up,0.30050630000005185,0.7750438973995055,,experiment,cRDM,0.0,,,,917.2751006,1011,33,female,True,9172,9175,False,False,expiration,expiration
209,0.4446167627696291,25,down,down,0.40027570000074775,1.3716130494540235,,experiment,cRDM,0.0,,,,919.3250363999997,1011,33,female,True,9192,9196,False,False,inspiration,expiration
210,0.4446167627696291,25,up,down,0.3839995999996973,1.4788643597378772,,experiment,cRDM,0.0,,,,921.4749543999997,1011,33,female,True,9214,9218,False,False,inspiration,inspiration
211,0.4446167627696291,25,down,down,0.8173098999995999,0.3731530961005071,,experiment,cRDM,0.0,,,,922.5413688,1011,33,female,True,9225,9233,False,False,expiration,expiration
212,0.4446167627696291,25,up,up,0.6323327000000063,1.8058781543109983,,experiment,cRDM,0.0,,,,925.4414220999997,1011,33,female,True,9254,9260,False,False,expiration,expiration
213,0.4446167627696291,25,down,up,0.3004763999997522,0.546207294555221,,experiment,cRDM,0.0,,,,926.8914147999994,1011,33,female,True,9268,9271,False,False,inspiration,inspiration
214,0.4446167627696291,25,up,down,0.4004164999996647,1.975290195788975,,experiment,cRDM,0.0,,,,929.5412054999997,1011,33,female,True,9295,9299,False,False,inspiration,inspiration
215,0.4446167627696291,25,down,down,0.6790892999997595,0.3575850564533254,,experiment,cRDM,0.0,,,,930.5746070999994,1011,33,female,True,9305,9312,False,False,expiration,expiration
216,0.4446167627696291,25,up,up,0.7148414000002958,1.6905651899009857,,experiment,cRDM,0.0,,,,933.2078573,1011,33,female,True,9331,9338,False,False,expiration,expiration
217,0.4446167627696291,25,down,down,0.4745987999995122,0.6613188685553906,,experiment,cRDM,0.0,,,,934.8411110999997,1011,33,female,True,9348,9353,False,False,inspiration,inspiration
218,0.4446167627696291,25,up,up,0.3505299999997078,0.6390384782254332,,experiment,cRDM,0.0,,,,936.2077529999997,1011,33,female,True,9361,9365,False,False,expiration,expiration
219,0.4446167627696291,25,down,down,0.3504551999994874,1.468648752603389,,experiment,cRDM,0.0,,,,938.3576937999997,1011,33,female,True,9383,9387,False,False,inspiration,expiration
220,0.4446167627696291,25,up,up,0.31732950000059645,0.6955779806729242,,experiment,cRDM,0.0,,,,939.7242748999997,1011,33,female,True,9396,9399,False,False,expiration,expiration
221,0.4446167627696291,25,down,down,0.6350517000000764,1.7806723797058182,,experiment,cRDM,0.0,,,,942.1908544999997,1011,33,female,True,9421,9427,False,False,expiration,expiration
222,0.4446167627696291,25,down,down,0.6882981999997355,1.4275192179178329,,experiment,cRDM,0.0,,,,944.5074349999996,1011,33,female,True,9444,9451,False,False,expiration,expiration
223,0.4446167627696291,25,up,up,0.5700144000002183,0.3294717819071884,,experiment,cRDM,0.0,,,,945.7907176,1011,33,female,True,9457,9463,False,False,expiration,inspiration
224,0.4446167627696291,25,down,down,0.3838548999992781,1.604582459848865,,experiment,cRDM,0.0,,,,948.2239653999997,1011,33,female,True,9481,9485,False,False,expiration,inspiration
225,0.4446167627696291,25,up,up,0.36719300000004296,0.5108053729281136,,experiment,cRDM,0.0,,,,949.4072569999997,1011,33,female,True,9493,9497,False,False,expiration,expiration
226,0.4446167627696291,25,up,down,0.4003602000002502,1.9498567417102788,,experiment,cRDM,0.0,,,,952.0403198999992,1011,33,female,True,9520,9524,False,False,expiration,expiration
227,0.4446167627696291,25,down,down,0.4993880000001809,0.824684273171272,,experiment,cRDM,0.0,,,,953.540349,1011,33,female,True,9535,9540,False,False,inspiration,inspiration
228,0.4446167627696291,25,down,up,0.9136221999997359,0.8457677990916976,,experiment,cRDM,0.0,,,,955.1570721999997,1011,33,female,True,9551,9560,False,False,expiration,inspiration
229,0.4446167627696291,25,up,up,0.7427926000000298,1.43437333282244,,experiment,cRDM,0.0,,,,957.7569764999997,1011,33,female,True,9577,9584,False,False,expiration,expiration
230,0.4446167627696291,25,down,down,0.5988477000000785,1.4348617264514387,,experiment,cRDM,0.0,,,,960.2068499999997,1011,33,female,True,9601,9607,False,False,expiration,expiration
231,0.4446167627696291,25,up,up,0.5319562000004225,1.0328653769145206,,experiment,cRDM,0.0,,,,962.1067701999999,1011,33,female,True,9620,9625,False,False,inspiration,expiration
232,0.4446167627696291,25,up,up,0.7176656999999977,1.4770538466246577,,experiment,cRDM,0.0,,,,964.3900333,1011,33,female,True,9643,9650,True,True,inspiration,expiration
233,0.4446167627696291,25,up,down,1.0040998999993462,1.834928100910796,,experiment,cRDM,0.0,,,,967.2066020999999,1011,33,female,True,9671,9681,True,True,expiration,expiration
234,0.4446167627696291,25,up,up,0.6568070000002989,1.8978350176304624,,experiment,cRDM,0.0,,,,970.3898371999994,1011,33,female,True,9703,9710,False,False,expiration,expiration
235,0.4446167627696291,25,up,up,0.7215913,0.5491607253467452,,experiment,cRDM,0.0,,,,971.8731085999997,1011,33,female,True,9718,9725,False,False,expiration,inspiration
236,0.4446167627696291,25,down,down,0.5166768999997657,0.45213543136696005,,experiment,cRDM,0.0,,,,973.3230309,1011,33,female,True,9732,9737,False,False,expiration,expiration
237,0.4446167627696291,25,down,up,0.3505278000002363,0.5944878357001868,,experiment,cRDM,0.0,,,,974.7063416,1011,33,female,True,9746,9750,False,False,inspiration,inspiration
238,0.4446167627696291,25,down,down,0.6265909000003376,1.015834847896158,,experiment,cRDM,0.0,,,,976.4062778999997,1011,33,female,True,9763,9769,False,False,expiration,inspiration
239,0.4446167627696291,25,up,down,0.6005008000001908,1.044473573512755,,experiment,cRDM,0.0,,,,978.3561837999997,1011,33,female,True,9783,9789,False,False,expiration,expiration
240,0.4446167627696291,25,down,down,0.5102119000002858,1.5316194674218904,,experiment,cRDM,0.0,,,,980.7394696,1011,33,female,True,9807,9812,False,False,expiration,expiration
241,0.4446167627696291,25,down,down,0.4806822000000466,0.7855881063249961,,experiment,cRDM,0.0,,,,982.3060206,1011,33,female,True,9822,9827,False,False,trough,inspiration
242,0.4446167627696291,25,down,down,0.4276614999998856,0.5582170620338804,,experiment,cRDM,0.0,,,,983.6059828999997,1011,33,female,True,9835,9839,False,False,expiration,expiration
243,0.4446167627696291,25,up,up,0.8544010000005073,0.9450146185896392,,experiment,cRDM,0.0,,,,985.2393028999996,1011,33,female,True,9852,9861,False,False,inspiration,expiration
244,0.4446167627696291,25,down,down,0.5641504999994139,1.168092619027738,,experiment,cRDM,0.0,,,,987.5225648999997,1011,33,female,True,9875,9881,False,False,inspiration,inspiration
245,0.4446167627696291,25,up,up,0.7809942000003502,1.8592584436701247,,experiment,cRDM,0.0,,,,990.2057522999994,1011,33,female,True,9901,9909,False,False,inspiration,inspiration
246,0.4446167627696291,25,up,down,0.5076748999999836,1.392315352060398,,experiment,cRDM,0.0,,,,992.6390273999997,1011,33,female,True,9926,9931,False,False,trough,inspiration
247,0.4446167627696291,25,down,down,0.5435207000000446,0.8716294679559615,,experiment,cRDM,0.0,,,,994.2722711999998,1011,33,female,True,9942,9947,False,False,expiration,expiration
248,0.4446167627696291,25,up,up,0.7977756000000227,1.0728559660101138,,experiment,cRDM,0.0,,,,996.1389007999996,1011,33,female,True,9961,9969,False,False,inspiration,expiration
249,0.4446167627696291,25,down,down,0.8705183000001853,0.4774082972015322,,experiment,cRDM,0.0,,,,997.6721357999998,1011,33,female,True,9976,9985,False,False,expiration,inspiration
250,0.4446167627696291,25,up,up,0.6232846999992034,1.2548825420983558,,experiment,cRDM,0.0,,,,1000.0554298999997,1011,33,female,True,10000,10006,False,False,expiration,expiration
251,0.4446167627696291,25,down,down,0.5903791999999157,1.6081405058911251,,experiment,cRDM,0.0,,,,1002.5553267999994,1011,33,female,True,10025,10031,False,False,expiration,expiration
252,0.4446167627696291,25,up,up,0.6274961999997686,1.6904205880985357,,experiment,cRDM,0.0,,,,1005.1052074999997,1011,33,female,True,10050,10056,False,False,inspiration,expiration
253,0.4446167627696291,25,down,down,0.36728060000041296,1.1286495067311,,experiment,cRDM,0.0,,,,1007.1217005999997,1011,33,female,True,10071,10075,False,False,inspiration,inspiration
254,0.4446167627696291,25,down,down,0.7992977000003522,1.0428793475877547,,experiment,cRDM,0.0,,,,1008.8384294999997,1011,33,female,True,10088,10096,False,False,inspiration,expiration
255,0.4446167627696291,25,down,up,0.33389010000064445,0.5070144382787092,,experiment,cRDM,0.0,,,,1010.4049956999997,1011,33,female,True,10103,10106,False,False,expiration,expiration
256,0.4446167627696291,25,down,down,0.3337989999999991,1.8541068121547664,,experiment,cRDM,0.0,,,,1012.9382957999997,1011,33,female,True,10129,10132,False,False,inspiration,inspiration
257,0.4446167627696291,25,down,down,0.4462457999998151,1.8436268293356803,,experiment,cRDM,0.0,,,,1015.4714915999994,1011,33,female,True,10154,10158,False,False,inspiration,inspiration
258,0.4446167627696291,25,up,up,0.8057112999995297,1.3556646459544726,,experiment,cRDM,0.0,,,,1017.5379586999996,1011,33,female,True,10175,10183,False,False,inspiration,inspiration
259,0.4446167627696291,25,up,up,0.6347343999996156,0.9355671472532074,,experiment,cRDM,0.0,,,,1019.5379703,1011,33,female,True,10195,10201,False,False,expiration,inspiration
260,0.4446167627696291,25,up,down,0.7170629000002009,1.4098442144799594,,experiment,cRDM,0.0,,,,1021.8546226999997,1011,33,female,True,10218,10225,False,False,inspiration,expiration
261,0.4446167627696291,25,up,up,1.1085438000000067,1.8406740867222544,,experiment,cRDM,0.0,,,,1024.6711662999996,1011,33,female,True,10246,10257,False,False,inspiration,expiration
262,147.0,25,M,down,1.198142100000041,1.5467153883919558,,experiment,emotion,0.0,,,,1032.4875459999994,1011,33,female,True,10324,10336,False,False,expiration,expiration
263,115.0,25,M,down,0.6739491000007547,1.6007363943514383,,experiment,emotion,0.0,,,,1035.5707557999997,1011,33,female,True,10355,10362,False,False,expiration,expiration
264,136.0,25,F,up,0.690041900000324,1.21433078983202,,experiment,emotion,0.0,,,,1037.7706806999997,1011,33,female,True,10377,10384,False,False,expiration,expiration
265,147.0,25,F,up,0.6605528000000049,1.3165087917870084,,experiment,emotion,0.0,,,,1040.0372373,1011,33,female,True,10400,10407,False,False,inspiration,expiration
266,136.0,25,M,up,1.057820700000775,0.4394460540640264,,experiment,emotion,0.0,,,,1041.4038868999996,1011,33,female,True,10413,10424,False,False,expiration,inspiration
267,126.0,25,F,down,0.9215379000006578,0.6625436946423886,,experiment,emotion,0.0,,,,1043.4371628999997,1011,33,female,True,10434,10443,False,False,inspiration,expiration
268,115.0,25,M,down,1.0336446000001158,1.7053693691396472,,experiment,emotion,0.0,,,,1046.3370621999993,1011,33,female,True,10463,10473,False,False,inspiration,expiration
269,126.0,25,M,down,0.42045340000004217,1.34185993201269,,experiment,emotion,0.0,,,,1048.9702724999997,1011,33,female,True,10489,10493,False,False,inspiration,inspiration
270,147.0,25,F,down,0.6892023999998855,1.8978246998854744,,experiment,emotion,0.0,,,,1051.5535074999998,1011,33,female,True,10515,10522,False,False,inspiration,inspiration
271,126.0,25,F,down,0.7076288999996905,1.1506273150585202,,experiment,emotion,0.0,,,,1053.6700891,1011,33,female,True,10536,10543,False,False,expiration,inspiration
272,136.0,25,F,up,0.6423817999993844,1.3455052939160796,,experiment,emotion,0.0,,,,1056.0033288999994,1011,33,female,True,10559,10565,False,False,expiration,inspiration
273,147.0,25,F,up,0.8757980999998836,1.5526328340936282,,experiment,emotion,0.0,,,,1058.4699115999993,1011,33,female,True,10584,10593,False,False,expiration,inspiration
274,136.0,25,F,up,0.5449207000001479,0.3894734721233094,,experiment,emotion,0.0,,,,1060.0198387,1011,33,female,True,10600,10605,False,False,inspiration,peak
275,115.0,25,F,up,0.4925657000003412,0.7957865530754415,,experiment,emotion,0.0,,,,1061.6531343999998,1011,33,female,True,10616,10621,False,False,expiration,expiration
276,126.0,25,M,up,1.0250084999997853,1.5008438587360102,,experiment,emotion,0.0,,,,1063.9196966999998,1011,33,female,True,10639,10649,False,False,expiration,expiration
277,115.0,25,M,down,0.8374051999999209,1.5288744309999442,,experiment,emotion,0.0,,,,1066.7363055999997,1011,33,female,True,10667,10675,False,False,expiration,expiration
278,147.0,25,M,up,0.6964754000000539,0.533956112645071,,experiment,emotion,0.0,,,,1068.3862323999992,1011,33,female,True,10683,10690,False,False,expiration,inspiration
279,115.0,25,M,up,1.3956161000005525,1.6191065006636816,,experiment,emotion,0.0,,,,1070.9861290999997,1011,33,female,True,10709,10723,False,False,expiration,expiration
280,136.0,25,F,up,0.7848192000001291,0.4678539818844819,,experiment,emotion,0.0,,,,1073.1360544,1011,33,female,True,10731,10739,False,False,expiration,inspiration
281,136.0,25,M,up,0.7997782999991614,0.3372449370512799,,experiment,emotion,0.0,,,,1074.5359964000002,1011,33,female,True,10745,10753,False,False,inspiration,expiration
282,126.0,25,M,up,0.6177233999997043,0.3477173153832394,,experiment,emotion,0.0,,,,1075.9859670999997,1011,33,female,True,10759,10765,False,False,expiration,inspiration
283,126.0,25,F,down,0.6248566999993272,1.460742407177941,,experiment,emotion,0.0,,,,1078.3358686,1011,33,female,True,10783,10789,False,False,expiration,inspiration
284,115.0,25,M,up,0.5776124999993044,1.633565104767993,,experiment,emotion,0.0,,,,1080.8690960999993,1011,33,female,True,10808,10814,False,False,expiration,inspiration
285,147.0,25,F,up,0.5798195999996096,0.4884928136076285,,experiment,emotion,0.0,,,,1082.2188922999994,1011,33,female,True,10822,10828,False,False,expiration,expiration
286,136.0,25,F,down,0.5907645999996021,1.8913938515903732,,experiment,emotion,0.0,,,,1084.9689454000002,1011,33,female,True,10849,10855,False,False,expiration,expiration
287,115.0,25,M,down,0.4855808000002071,1.9654770662178,,experiment,emotion,0.0,,,,1087.8021515,1011,33,female,True,10877,10882,False,False,expiration,expiration
288,147.0,25,M,down,0.5653092999991713,1.7758058924248183,,experiment,emotion,0.0,,,,1090.3354297999997,1011,33,female,True,10903,10909,False,False,expiration,expiration
289,147.0,25,F,up,0.6726980000003095,1.1766510375525356,,experiment,emotion,0.0,,,,1092.3520082999994,1011,33,female,True,10923,10930,False,False,inspiration,expiration
290,126.0,25,M,down,0.3501158999997642,1.4718183020992093,,experiment,emotion,0.0,,,,1094.7685965,1011,33,female,True,10947,10951,False,False,inspiration,inspiration
291,115.0,25,F,up,0.5008836999995765,0.4370924894055035,,experiment,emotion,0.0,,,,1095.9018808,1011,33,female,True,10958,10963,False,False,expiration,expiration
292,126.0,25,F,down,0.3334731000004467,0.5281295160896443,,experiment,emotion,0.0,,,,1097.2018219,1011,33,female,True,10971,10974,False,False,inspiration,inspiration
293,136.0,25,F,down,0.5536170000004859,1.2779365084399823,,experiment,emotion,0.0,,,,1099.1850980000002,1011,33,female,True,10991,10997,False,False,expiration,expiration
294,115.0,25,M,down,0.7457715000000462,0.6305485065017431,,experiment,emotion,0.0,,,,1100.6349390999994,1011,33,female,True,11006,11013,False,False,expiration,inspiration
295,147.0,25,M,up,0.7704746999997951,1.307562243601,,experiment,emotion,0.0,,,,1102.9682861,1011,33,female,True,11029,11037,False,False,expiration,inspiration
296,136.0,25,M,down,0.7902258000003712,1.580522742965056,,experiment,emotion,0.0,,,,1105.6015156999993,1011,33,female,True,11055,11063,False,False,expiration,trough
297,147.0,25,F,down,0.4167846999998801,0.8293130326583984,,experiment,emotion,0.0,,,,1107.4847857999994,1011,33,female,True,11074,11078,False,False,expiration,expiration
298,115.0,25,F,up,0.5583108999999239,1.5897732878392552,,experiment,emotion,0.0,,,,1109.7513755,1011,33,female,True,11097,11103,False,False,inspiration,peak
299,136.0,25,M,down,0.6254236999993736,1.8717005494529264,,experiment,emotion,0.0,,,,1112.451277,1011,33,female,True,11124,11130,False,False,inspiration,expiration
300,126.0,25,F,down,0.9255305000006048,1.896236784446604,,experiment,emotion,0.0,,,,1115.2511722999998,1011,33,female,True,11152,11161,False,False,peak,expiration
301,126.0,25,M,down,1.1346637999995437,0.6325338362970137,,experiment,emotion,0.0,,,,1117.1010976999996,1011,33,female,True,11170,11181,False,False,inspiration,expiration
302,136.0,25,M,up,0.7517701999995552,0.8374138026144482,,experiment,emotion,0.0,,,,1119.3510241999993,1011,33,female,True,11193,11201,False,False,trough,inspiration
303,147.0,25,M,down,1.2444369000004372,1.0441604910527358,,experiment,emotion,0.0,,,,1121.4342726999994,1011,33,female,True,11214,11226,False,False,expiration,inspiration
304,126.0,25,F,down,0.8721497000005911,0.3208287073368024,,experiment,emotion,0.0,,,,1123.26757,1011,33,female,True,11232,11241,False,False,expiration,expiration
305,115.0,25,F,,,1.6395576863867516,,experiment,emotion,0.0,,,,1126.0674339999996,1011,33,female,True,11260,0,False,False,expiration,0
306,115.0,25,M,down,1.1870607999999263,0.8891005735801407,,experiment,emotion,0.0,,,,1129.6506600999999,1011,33,female,True,11296,11308,False,False,expiration,inspiration
307,126.0,25,F,down,0.5825052000000142,1.5635453063759694,,experiment,emotion,0.0,,,,1132.6672013999996,1011,33,female,True,11326,11332,False,False,inspiration,inspiration
308,147.0,25,F,up,0.5522769999997763,0.5528935760654876,,experiment,emotion,0.0,,,,1134.0504690999996,1011,33,female,True,11340,11346,False,False,expiration,expiration
309,136.0,25,M,down,0.4001840999999331,0.8964826867618787,,experiment,emotion,0.0,,,,1135.7837552,1011,33,female,True,11357,11361,False,False,inspiration,expiration
310,115.0,25,M,up,0.8207411000003049,0.3571626350411285,,experiment,emotion,0.0,,,,1136.8169936999993,1011,33,female,True,11368,11376,False,False,expiration,inspiration
311,147.0,25,F,up,0.5101349000005939,1.5246106525921357,,experiment,emotion,0.0,,,,1139.4336199000002,1011,33,female,True,11394,11399,False,False,expiration,expiration
312,136.0,25,M,up,0.9375431999997091,1.3016900367530269,,experiment,emotion,0.0,,,,1141.5171479,1011,33,female,True,11415,11424,False,False,expiration,expiration
313,136.0,25,F,down,1.1191576000001078,1.3955636846449946,,experiment,emotion,0.0,,,,1144.1165603999998,1011,33,female,True,11441,11452,False,False,expiration,inspiration
314,115.0,25,F,down,0.3167849000001297,1.6322067710319832,,experiment,emotion,0.0,,,,1147.1333698,1011,33,female,True,11471,11474,False,False,expiration,expiration
315,126.0,25,F,down,0.6144252999993114,1.0932538657934583,,experiment,emotion,0.0,,,,1148.9332875,1011,33,female,True,11489,11495,False,False,inspiration,expiration
316,147.0,25,M,down,0.3668506999993042,1.7107545102409067,,experiment,emotion,0.0,,,,1151.5665098999998,1011,33,female,True,11515,11519,False,False,inspiration,peak
317,126.0,25,M,down,0.4003124999999272,1.6577418544395757,,experiment,emotion,0.0,,,,1153.9163689999996,1011,33,female,True,11539,11543,False,False,inspiration,inspiration
318,126.0,25,F,down,0.5943084999998973,0.4428389413979476,,experiment,emotion,0.0,,,,1155.0663945999995,1011,33,female,True,11550,11556,False,False,expiration,expiration
319,126.0,25,F,down,0.5186110000004192,0.6841306537716116,,experiment,emotion,0.0,,,,1156.6161697999996,1011,33,female,True,11566,11571,False,False,inspiration,peak
320,147.0,25,M,up,0.28356219999932364,1.0136404413202456,,experiment,emotion,0.0,,,,1158.4329222999995,1011,33,female,True,11584,11587,False,False,expiration,trough
321,136.0,25,M,down,0.38350460000037856,1.0087457389921648,,experiment,emotion,0.0,,,,1160.1495136999993,1011,33,female,True,11601,11605,False,False,expiration,expiration
322,115.0,25,M,up,0.35017900000002555,1.590681189082495,,experiment,emotion,0.0,,,,1162.4494342999994,1011,33,female,True,11624,11628,False,False,expiration,expiration
323,115.0,25,M,up,0.6323339999999007,0.7677758776658313,,experiment,emotion,0.0,,,,1163.8993807999996,1011,33,female,True,11638,11644,False,False,inspiration,inspiration
324,136.0,25,M,up,0.4950736999999208,1.1666052730077634,,experiment,emotion,0.0,,,,1165.9826371999998,1011,33,female,True,11659,11664,False,False,expiration,inspiration
325,147.0,25,F,up,0.3834280999999464,1.010431702505919,,experiment,emotion,0.0,,,,1167.7492414999995,1011,33,female,True,11677,11681,False,False,expiration,expiration
326,147.0,25,F,up,0.30016710000018065,0.6998968303887867,,experiment,emotion,0.0,,,,1169.1491982999996,1011,33,female,True,11691,11694,False,False,inspiration,inspiration
327,115.0,25,M,up,0.4635835999997653,1.0620738863563643,,experiment,emotion,0.0,,,,1170.8991267,1011,33,female,True,11708,11713,False,False,expiration,inspiration
328,147.0,25,F,down,0.333516900000177,1.9062097968885456,,experiment,emotion,0.0,,,,1173.5490412000001,1011,33,female,True,11735,11738,False,False,expiration,trough
329,126.0,25,F,down,0.4227733000006992,1.5405531408271742,,experiment,emotion,0.0,,,,1175.7989271999995,1011,33,female,True,11757,11761,False,False,expiration,expiration
330,136.0,25,F,up,0.3668474999994942,0.9657161680423488,,experiment,emotion,0.0,,,,1177.4822268999994,1011,33,female,True,11774,11778,False,False,peak,expiration
331,126.0,25,M,up,0.44063029999961145,0.6635563158705168,,experiment,emotion,0.0,,,,1178.8321145999996,1011,33,female,True,11788,11792,False,False,expiration,inspiration
332,115.0,25,F,up,0.8089392000001681,0.748103397374939,,experiment,emotion,0.0,,,,1180.2987818,1011,33,female,True,11802,11810,False,False,expiration,expiration
333,136.0,25,F,up,0.8173508999998376,0.6351263476629845,,experiment,emotion,0.0,,,,1182.0153664000002,1011,33,female,True,11820,11828,False,False,inspiration,expiration
334,126.0,25,F,down,0.4001918000003569,0.9691576206536924,,experiment,emotion,0.0,,,,1184.081967,1011,33,female,True,11840,11844,False,False,inspiration,inspiration
335,136.0,25,M,down,0.516877499999282,1.2604144620304487,,experiment,emotion,0.0,,,,1186.0318351999995,1011,33,female,True,11860,11865,False,False,expiration,inspiration
336,115.0,25,M,down,0.3835014000005685,0.6522680355672671,,experiment,emotion,0.0,,,,1187.4651792999996,1011,33,female,True,11874,11878,False,False,expiration,expiration
337,147.0,25,F,down,0.6849107999996704,1.1129400444550903,,experiment,emotion,0.0,,,,1189.2817950999995,1011,33,female,True,11892,11899,False,False,inspiration,expiration
338,136.0,25,M,up,0.30020499999955064,1.1994423161862688,,experiment,emotion,0.0,,,,1191.4317201999993,1011,33,female,True,11914,11917,False,False,inspiration,inspiration
339,147.0,25,F,up,0.5678561000004265,1.4955901309434751,,experiment,emotion,0.0,,,,1193.6148985999996,1011,33,female,True,11936,11942,False,False,expiration,inspiration
340,115.0,25,M,up,0.6578512000005503,1.9938519049222567,,experiment,emotion,0.0,,,,1196.4648595999995,1011,33,female,True,11964,11971,False,False,expiration,inspiration
341,126.0,25,M,up,0.5873127000004388,1.171368350288594,,experiment,emotion,0.0,,,,1198.5814443,1011,33,female,True,11985,11991,False,False,expiration,expiration
342,0.4446167627696291,25,up,up,0.9694126000003962,1.639344061484599,,experiment,cRDM,1.0,,,,1536.4523856999995,1011,33,female,True,15364,15374,False,False,expiration,inspiration
343,0.4446167627696291,25,up,up,0.6121391000006042,1.6544761527734155,,experiment,cRDM,1.0,,,,1539.3355942999995,1011,33,female,True,15393,15399,False,False,expiration,inspiration
344,0.4446167627696291,25,down,down,0.4882175999991887,1.5226345162235309,,experiment,cRDM,1.0,,,,1541.7355129999994,1011,33,female,True,15417,15422,False,False,expiration,expiration
345,0.4446167627696291,25,down,up,0.5622823000003336,0.5906611533934716,,experiment,cRDM,1.0,,,,1543.0854499999994,1011,33,female,True,15430,15436,False,False,inspiration,inspiration
346,0.4446167627696291,25,up,down,0.3005177000004551,0.3799367493446319,,experiment,cRDM,1.0,,,,1544.2854042999998,1011,33,female,True,15442,15445,False,False,expiration,expiration
347,0.4446167627696291,25,down,up,0.4168360000003304,1.6951954606579964,,experiment,cRDM,1.0,,,,1546.6686623999994,1011,33,female,True,15466,15470,False,False,inspiration,expiration
348,0.4446167627696291,25,up,down,0.5518915000002379,1.4598401231886016,,experiment,cRDM,1.0,,,,1548.8018464999993,1011,33,female,True,15488,15494,False,False,expiration,inspiration
349,0.4446167627696291,25,up,up,0.7421982999994725,0.6493176406649492,,experiment,cRDM,1.0,,,,1550.2685327999998,1011,33,female,True,15502,15509,False,False,expiration,expiration
350,0.4446167627696291,25,down,down,0.5508325000000696,0.9728456023318608,,experiment,cRDM,1.0,,,,1552.2518567999994,1011,33,female,True,15522,15528,False,False,inspiration,expiration
351,0.4446167627696291,25,down,down,0.5973319999993691,1.2025100664911452,,experiment,cRDM,1.0,,,,1554.2683965999993,1011,33,female,True,15542,15548,False,False,expiration,inspiration
352,0.4446167627696291,25,down,down,0.6547452999993766,0.7103802108953853,,experiment,cRDM,1.0,,,,1555.8349976999998,1011,33,female,True,15558,15565,False,False,expiration,expiration
353,0.4446167627696291,25,down,down,0.6164948999994522,1.1118082169131138,,experiment,cRDM,1.0,,,,1557.8682360999999,1011,33,female,True,15578,15584,False,False,inspiration,expiration
354,0.4446167627696291,25,down,down,0.4702646000005189,0.6146613185505603,,experiment,cRDM,1.0,,,,1559.3515318,1011,33,female,True,15593,15598,False,False,expiration,expiration
355,0.4446167627696291,25,down,down,0.5239279999996143,0.6594331703474288,,experiment,cRDM,1.0,,,,1560.7348127999994,1011,33,female,True,15607,15612,False,False,inspiration,expiration
356,0.4446167627696291,25,up,up,0.6310077000007368,0.856284841603647,,experiment,cRDM,1.0,,,,1562.3847651999995,1011,33,female,True,15624,15630,False,False,expiration,inspiration
357,0.4446167627696291,25,up,down,0.5320855999998457,1.1064308960545808,,experiment,cRDM,1.0,,,,1564.3846614999993,1011,33,female,True,15643,15648,False,False,expiration,expiration
358,0.4446167627696291,25,up,up,0.7934457999999722,0.6251407981755344,,experiment,cRDM,1.0,,,,1565.8013201999993,1011,33,female,True,15658,15666,False,False,inspiration,expiration
359,0.4446167627696291,25,up,up,0.6522082999999839,1.4380865282949942,,experiment,cRDM,1.0,,,,1568.2845220000002,1011,33,female,True,15682,15689,False,False,expiration,inspiration
360,0.4446167627696291,25,down,up,0.5849120000002586,1.0694985287757317,,experiment,cRDM,1.0,,,,1570.2678102999996,1011,33,female,True,15702,15708,False,False,expiration,expiration
361,0.4446167627696291,25,up,up,0.5420174999999289,0.9562627892150564,,experiment,cRDM,1.0,,,,1572.0677185999994,1011,33,female,True,15720,15725,False,False,inspiration,expiration
362,0.4446167627696291,25,up,up,0.5994244999992588,1.6667793278011345,,experiment,cRDM,1.0,,,,1574.5343144,1011,33,female,True,15745,15751,False,False,inspiration,inspiration
363,0.4446167627696291,25,down,down,0.6461710000003222,0.7794082036968922,,experiment,cRDM,1.0,,,,1576.1675729,1011,33,female,True,15761,15767,False,False,expiration,expiration
364,0.4446167627696291,25,up,up,0.6501281999999264,1.4620248725962357,,experiment,cRDM,1.0,,,,1578.5508197999998,1011,33,female,True,15785,15792,False,False,expiration,expiration
365,0.4446167627696291,25,down,down,0.7136545000003025,1.0775869326432124,,experiment,cRDM,1.0,,,,1580.5340873999994,1011,33,female,True,15805,15812,False,False,inspiration,peak
366,0.4446167627696291,25,down,up,1.7964234999999462,1.4007865735792473,,experiment,cRDM,1.0,,,,1582.9173336999993,1011,33,female,True,15829,15847,False,False,expiration,expiration
367,0.4446167627696291,25,up,up,0.7081700999997338,0.9360625613027496,,experiment,cRDM,1.0,,,,1585.9006019999995,1011,33,female,True,15859,15866,False,False,expiration,inspiration
368,0.4446167627696291,25,up,up,0.7119399000002886,0.3101268482151948,,experiment,cRDM,1.0,,,,1587.1837875999997,1011,33,female,True,15872,15879,False,False,peak,expiration
369,0.4446167627696291,25,down,down,0.5869942999997875,1.8374530832571985,,experiment,cRDM,1.0,,,,1589.9837914,1011,33,female,True,15900,15906,False,False,peak,expiration
370,0.4446167627696291,25,up,up,0.6460722000001624,0.4963672447668237,,experiment,cRDM,1.0,,,,1591.3336844999994,1011,33,female,True,15913,15919,False,False,inspiration,peak
371,0.4446167627696291,25,down,down,0.5411615000002712,1.7940088288051863,,experiment,cRDM,1.0,,,,1594.0335833,1011,33,female,True,15940,15945,False,False,inspiration,inspiration
372,0.4446167627696291,25,down,up,0.44866949999959616,1.5177995343956068,,experiment,cRDM,1.0,,,,1596.3501751999993,1011,33,female,True,15963,15967,False,False,expiration,inspiration
373,0.4446167627696291,25,down,up,0.9849586999998792,0.3152800644730247,,experiment,cRDM,1.0,,,,1597.3667808,1011,33,female,True,15973,15983,False,False,inspiration,expiration
374,0.4446167627696291,25,up,down,0.5363379000000349,0.4266143670225545,,experiment,cRDM,1.0,,,,1599.0334035999995,1011,33,female,True,15990,15995,False,False,expiration,inspiration
375,0.4446167627696291,25,up,up,0.5887101000007533,1.7711295165130936,,experiment,cRDM,1.0,,,,1601.6000242,1011,33,female,True,16016,16022,False,False,expiration,inspiration
376,0.4446167627696291,25,up,down,0.3838075000003301,0.6399202374525826,,experiment,cRDM,1.0,,,,1603.0999342999994,1011,33,female,True,16031,16035,False,False,expiration,expiration
377,0.4446167627696291,25,down,down,0.3505579000002399,0.8882137278219584,,experiment,cRDM,1.0,,,,1604.6831332999998,1011,33,female,True,16047,16051,False,False,inspiration,inspiration
378,0.4446167627696291,25,down,down,0.5806329000006372,1.727409841373435,,experiment,cRDM,1.0,,,,1607.0831399999995,1011,33,female,True,16071,16077,False,False,trough,inspiration
379,0.4446167627696291,25,up,down,0.9807831000007354,1.4537835314756584,,experiment,cRDM,1.0,,,,1609.3829959999994,1011,33,female,True,16094,16104,False,False,expiration,inspiration
380,0.4446167627696291,25,down,down,0.3838272000002689,0.9153447634828548,,experiment,cRDM,1.0,,,,1611.5329335999993,1011,33,female,True,16115,16119,False,False,expiration,expiration
381,0.4446167627696291,25,up,down,0.33378820000052656,1.7057003471781425,,experiment,cRDM,1.0,,,,1613.9162317,1011,33,female,True,16139,16142,False,False,expiration,expiration
382,0.4446167627696291,25,up,up,0.638605600000119,1.5210444556220724,,experiment,cRDM,1.0,,,,1616.1161351,1011,33,female,True,16161,16167,False,False,inspiration,expiration
383,0.4446167627696291,25,up,up,0.6164468000006309,1.2683570051359605,,experiment,cRDM,1.0,,,,1618.2992965999995,1011,33,female,True,16183,16189,False,False,expiration,inspiration
384,0.4446167627696291,25,down,up,0.3838514999997642,0.6897450328335936,,experiment,cRDM,1.0,,,,1619.8493147,1011,33,female,True,16198,16202,False,False,expiration,expiration
385,0.4446167627696291,25,down,down,0.3338858999995864,1.1762125899687468,,experiment,cRDM,1.0,,,,1621.6992237999993,1011,33,female,True,16217,16220,False,False,inspiration,inspiration
386,0.4446167627696291,25,up,up,0.9888184999999794,0.3377496616156396,,experiment,cRDM,1.0,,,,1622.7159075,1011,33,female,True,16227,16237,False,False,expiration,expiration
387,0.4446167627696291,25,down,down,0.6306217000001197,1.8784337572013392,,experiment,cRDM,1.0,,,,1625.8490894999993,1011,33,female,True,16258,16264,False,False,expiration,expiration
388,0.4446167627696291,25,down,down,0.6444811000001209,1.9360690701407064,,experiment,cRDM,1.0,,,,1628.6823045999997,1011,33,female,True,16287,16293,False,False,expiration,expiration
389,0.4446167627696291,25,up,down,0.6308391000002302,1.9511202766985207,,experiment,cRDM,1.0,,,,1631.5489020999994,1011,33,female,True,16315,16321,False,False,expiration,expiration
390,0.4446167627696291,25,up,down,0.5379315999998653,1.2039348686952356,,experiment,cRDM,1.0,,,,1633.6488074999993,1011,33,female,True,16336,16341,False,False,inspiration,peak
391,0.4446167627696291,25,down,down,0.4740340999996988,1.3044298706345112,,experiment,cRDM,1.0,,,,1635.7487228999996,1011,33,female,True,16357,16362,False,False,expiration,inspiration
392,0.4446167627696291,25,up,down,0.9985226999997394,1.3903485252451897,,experiment,cRDM,1.0,,,,1637.8653108,1011,33,female,True,16378,16388,False,False,expiration,inspiration
393,0.4446167627696291,25,down,down,0.5307167000000845,1.1189512130653765,,experiment,cRDM,1.0,,,,1640.2652214000002,1011,33,female,True,16402,16407,False,False,expiration,expiration
394,0.4446167627696291,25,down,down,0.38385850000031496,0.9200277383745904,,experiment,cRDM,1.0,,,,1641.9818061999995,1011,33,female,True,16419,16423,False,False,inspiration,inspiration
395,0.4446167627696291,25,down,down,0.5064051999997901,1.9474992179445851,,experiment,cRDM,1.0,,,,1644.5984203999994,1011,33,female,True,16446,16451,False,False,inspiration,inspiration
396,0.4446167627696291,25,up,up,0.9487693999999464,1.5018606527790883,,experiment,cRDM,1.0,,,,1646.8649741999998,1011,33,female,True,16468,16477,False,False,inspiration,peak
397,0.4446167627696291,25,up,up,0.5465998999998192,0.9139215233466385,,experiment,cRDM,1.0,,,,1648.9981443999993,1011,33,female,True,16490,16495,False,False,expiration,inspiration
398,0.4446167627696291,25,down,up,0.424262199999248,1.5877588309043047,,experiment,cRDM,1.0,,,,1651.3814798999995,1011,33,female,True,16513,16517,False,False,expiration,trough
399,0.4446167627696291,25,down,up,0.8829332000004797,0.7425340330687957,,experiment,cRDM,1.0,,,,1652.8148063,1011,33,female,True,16528,16537,False,False,expiration,expiration
400,0.4446167627696291,25,up,up,0.6334415000001172,1.9166483831092196,,experiment,cRDM,1.0,,,,1655.8813052999994,1011,33,female,True,16558,16564,False,False,expiration,expiration
401,0.4446167627696291,25,up,up,0.7179640999993353,1.7168713418813524,,experiment,cRDM,1.0,,,,1658.4977979999994,1011,33,female,True,16585,16592,False,False,expiration,expiration
402,0.4446167627696291,25,up,up,0.5752655999995113,1.1876276358414233,,experiment,cRDM,1.0,,,,1660.6644742,1011,33,female,True,16606,16612,False,False,inspiration,expiration
403,0.4446167627696291,25,up,up,0.7013126000001648,1.4129714434226477,,experiment,cRDM,1.0,,,,1662.9144305,1011,33,female,True,16629,16636,False,False,inspiration,inspiration
404,0.4446167627696291,25,up,up,0.6167409999998199,0.3506841449690956,,experiment,cRDM,1.0,,,,1664.2310128999998,1011,33,female,True,16642,16648,False,False,expiration,expiration
405,0.4446167627696291,25,down,up,0.4002669000001333,0.6617221859204017,,experiment,cRDM,1.0,,,,1665.7642864,1011,33,female,True,16657,16661,False,False,expiration,expiration
406,0.4446167627696291,25,down,up,0.7644031999998333,0.958973623263116,,experiment,cRDM,1.0,,,,1667.3974334999994,1011,33,female,True,16674,16682,False,False,peak,expiration
407,0.4446167627696291,25,up,up,0.416837900000246,0.44940902364464463,,experiment,cRDM,1.0,,,,1668.8808232,1011,33,female,True,16688,16692,False,False,expiration,expiration
408,0.4446167627696291,25,down,up,0.7440086000005977,1.8266051958753096,,experiment,cRDM,1.0,,,,1671.3807382999994,1011,33,female,True,16713,16720,False,False,inspiration,expiration
409,0.4446167627696291,25,down,down,0.6927087999993091,1.6380958849346787,,experiment,cRDM,1.0,,,,1674.0140345999996,1011,33,female,True,16740,16747,False,False,inspiration,expiration
410,0.4446167627696291,25,down,down,1.0878374000003532,1.3932871720113948,,experiment,cRDM,1.0,,,,1676.3639156,1011,33,female,True,16763,16774,False,False,inspiration,inspiration
411,0.4446167627696291,25,up,up,0.6136881000002177,1.6832241743543432,,experiment,cRDM,1.0,,,,1679.3970283,1011,33,female,True,16794,16800,False,False,expiration,expiration
412,0.4446167627696291,25,down,up,0.6613905000003797,0.6169339510244998,,experiment,cRDM,1.0,,,,1680.8803748,1011,33,female,True,16808,16815,False,False,expiration,inspiration
413,0.4446167627696291,25,down,down,0.4344398000002912,0.9896092944456903,,experiment,cRDM,1.0,,,,1682.7803067999994,1011,33,female,True,16828,16832,False,False,expiration,expiration
414,0.4446167627696291,25,down,down,0.55180830000063,1.1031553641445278,,experiment,cRDM,1.0,,,,1684.5969667999998,1011,33,female,True,16846,16852,False,False,inspiration,expiration
415,0.4446167627696291,25,up,down,0.7269226999997045,1.6330530455334082,,experiment,cRDM,1.0,,,,1687.0468274999994,1011,33,female,True,16870,16877,False,False,expiration,inspiration
416,0.4446167627696291,25,up,up,0.8536403999996764,1.391654832182892,,experiment,cRDM,1.0,,,,1689.4301053,1011,33,female,True,16894,16903,False,False,expiration,inspiration
417,0.4446167627696291,25,down,down,0.6137764000004609,1.8834838367872804,,experiment,cRDM,1.0,,,,1692.4299721999994,1011,33,female,True,16924,16930,False,False,expiration,expiration
418,0.4446167627696291,25,up,down,0.6854948999998669,0.6998191083840855,,experiment,cRDM,1.0,,,,1694.0132714,1011,33,female,True,16940,16947,False,False,inspiration,expiration
419,0.4446167627696291,25,down,down,0.6899342999995497,1.06735615808367,,experiment,cRDM,1.0,,,,1696.0298414999993,1011,33,female,True,16960,16967,False,False,expiration,inspiration
420,0.4446167627696291,25,up,down,0.9842051999994509,1.3929977707187575,,experiment,cRDM,1.0,,,,1698.3795621,1011,33,female,True,16984,16994,False,False,inspiration,inspiration
421,0.4446167627696291,25,up,up,0.6841421999997692,1.4194009434594446,,experiment,cRDM,1.0,,,,1701.0296522999995,1011,33,female,True,17010,17017,False,False,expiration,expiration
422,147.0,25,M,up,0.6696147000002384,1.3819682765969596,,experiment,emotion,1.0,,,,1705.9461377999994,1011,33,female,True,17059,17066,True,True,expiration,trough
423,115.0,25,M,down,0.7193693999997777,1.4081843135921608,,experiment,emotion,1.0,,,,1708.3294167999993,1011,33,female,True,17083,17090,False,False,expiration,expiration
424,136.0,25,F,up,0.5380888999998206,0.9936556569788496,,experiment,emotion,1.0,,,,1710.3126500999995,1011,33,female,True,17103,17108,False,False,inspiration,expiration
425,147.0,25,F,down,0.7661409000002095,1.685689816871522,,experiment,emotion,1.0,,,,1712.8125539999999,1011,33,female,True,17128,17136,False,False,inspiration,expiration
426,136.0,25,M,down,0.9216040999999676,0.4705429777125326,,experiment,emotion,1.0,,,,1714.3291451999994,1011,33,female,True,17143,17152,False,False,expiration,expiration
427,126.0,25,F,up,0.6430659999996351,1.6053426934148949,,experiment,emotion,1.0,,,,1717.1457353999995,1011,33,female,True,17171,17177,False,False,expiration,expiration
428,115.0,25,M,down,0.7291175000000294,1.9995698014853072,,experiment,emotion,1.0,,,,1720.0456310999996,1011,33,female,True,17200,17207,False,False,expiration,expiration
429,126.0,25,M,up,1.1231834000000165,0.8008971402180105,,experiment,emotion,1.0,,,,1721.8455619999993,1011,33,female,True,17218,17229,False,False,inspiration,expiration
430,147.0,25,F,down,0.8226186000001692,0.4759954835417193,,experiment,emotion,1.0,,,,1723.7121646999994,1011,33,female,True,17237,17245,False,False,expiration,inspiration
431,126.0,25,F,up,0.6871490000003178,1.5675605174192002,,experiment,emotion,1.0,,,,1726.3786063999994,1011,33,female,True,17264,17271,False,False,expiration,inspiration
432,136.0,25,F,up,0.7254806000000826,0.3468557792350138,,experiment,emotion,1.0,,,,1727.6953181999993,1011,33,female,True,17277,17284,False,False,inspiration,expiration
433,147.0,25,F,up,0.6554844000002049,1.4569936187325234,,experiment,emotion,1.0,,,,1730.1452522,1011,33,female,True,17301,17308,False,False,inspiration,expiration
434,136.0,25,F,up,1.0655704000000696,1.6336928891039153,,experiment,emotion,1.0,,,,1732.6951544999995,1011,33,female,True,17327,17338,False,False,inspiration,expiration
435,115.0,25,F,down,0.6197288000003027,1.188661246930771,,experiment,emotion,1.0,,,,1735.2450916999994,1011,33,female,True,17352,17358,False,False,inspiration,inspiration
436,126.0,25,M,down,1.2445492999995622,1.7360389179511675,,experiment,emotion,1.0,,,,1737.8781990999994,1011,33,female,True,17379,17391,False,False,inspiration,expiration
437,115.0,25,M,,,1.7458749829454383,,experiment,emotion,1.0,,,,1741.1281848,1011,33,female,True,17411,0,False,False,inspiration,0
438,147.0,25,M,down,0.7570287999997163,0.6043487973214567,,experiment,emotion,1.0,,,,1744.4447239,1011,33,female,True,17444,17452,False,False,expiration,expiration
439,115.0,25,M,down,0.6254331999998612,1.441549606194552,,experiment,emotion,1.0,,,,1746.9113005,1011,33,female,True,17469,17475,False,False,expiration,expiration
440,136.0,25,F,down,0.9188736999994944,1.4625824409450126,,experiment,emotion,1.0,,,,1749.2778754,1011,33,female,True,17493,17502,False,False,inspiration,expiration
441,136.0,25,M,up,0.6629248999997799,0.4529474363906318,,experiment,emotion,1.0,,,,1750.9278405999994,1011,33,female,True,17509,17516,False,False,expiration,inspiration
442,126.0,25,M,up,0.6973360000001776,0.36831573462411415,,experiment,emotion,1.0,,,,1752.2444515999994,1011,33,female,True,17522,17529,False,False,peak,expiration
443,126.0,25,F,down,1.0204041999995752,1.885380640567396,,experiment,emotion,1.0,,,,1755.0943430999994,1011,33,female,True,17551,17561,False,False,expiration,expiration
444,115.0,25,M,down,0.7181948999996166,0.469793560787324,,experiment,emotion,1.0,,,,1756.8609165999994,1011,33,female,True,17568,17575,False,False,inspiration,peak
445,147.0,25,F,down,0.4167815000000701,0.6518577476331482,,experiment,emotion,1.0,,,,1758.5108948999994,1011,33,female,True,17585,17589,False,False,expiration,expiration
446,136.0,25,F,down,0.6746106999999029,0.6914485471187639,,experiment,emotion,1.0,,,,1759.8941415999998,1011,33,female,True,17599,17606,False,False,inspiration,expiration
447,115.0,25,M,up,0.3502064000003884,1.5760780897943694,,experiment,emotion,1.0,,,,1762.4273931999994,1011,33,female,True,17624,17628,False,False,inspiration,peak
448,147.0,25,M,up,0.31683799999973417,0.8231656911276202,,experiment,emotion,1.0,,,,1763.9440175,1011,33,female,True,17639,17642,False,False,expiration,expiration
449,147.0,25,F,up,0.4489168999998583,0.9581073562805305,,experiment,emotion,1.0,,,,1765.5938816999994,1011,33,female,True,17656,17660,False,False,expiration,expiration
450,126.0,25,M,up,0.3168401000002632,1.1119066138331632,,experiment,emotion,1.0,,,,1767.4105638,1011,33,female,True,17674,17677,False,False,inspiration,inspiration
451,115.0,25,F,up,0.4928975000002538,0.3471539660378499,,experiment,emotion,1.0,,,,1768.4438512999993,1011,33,female,True,17684,17689,False,False,expiration,expiration
452,126.0,25,F,down,0.4403843999998571,1.8850256669603815,,experiment,emotion,1.0,,,,1771.1104385999995,1011,33,female,True,17711,17715,False,False,expiration,expiration
453,136.0,25,F,down,0.3501409999998941,1.0778100654933092,,experiment,emotion,1.0,,,,1772.9103584999993,1011,33,female,True,17729,17733,False,False,inspiration,inspiration
454,115.0,25,M,down,0.38349379999999655,1.3992146416376774,,experiment,emotion,1.0,,,,1775.0102776999993,1011,33,female,True,17750,17754,False,False,expiration,expiration
455,147.0,25,M,down,0.28361150000000634,1.2863737084503613,,experiment,emotion,1.0,,,,1776.9934276999993,1011,33,female,True,17770,17773,False,False,expiration,expiration
456,136.0,25,M,down,0.30019960000026913,1.5386395139036653,,experiment,emotion,1.0,,,,1779.2101162000001,1011,33,female,True,17792,17795,False,False,expiration,expiration
457,147.0,25,F,down,0.4723964999993768,1.852159881997688,,experiment,emotion,1.0,,,,1781.7433648999993,1011,33,female,True,17817,17822,False,False,expiration,expiration
458,115.0,25,F,down,0.6421546999999919,1.536707827500111,,experiment,emotion,1.0,,,,1784.0266023999993,1011,33,female,True,17840,17846,False,False,inspiration,expiration
459,136.0,25,M,down,0.6819289000004574,1.3196671930641488,,experiment,emotion,1.0,,,,1786.2598584999994,1011,33,female,True,17862,17869,False,False,inspiration,inspiration
460,126.0,25,F,down,0.6786515000003419,1.2126183043350098,,experiment,emotion,1.0,,,,1788.4431048999993,1011,33,female,True,17884,17891,False,False,expiration,inspiration
461,126.0,25,M,down,0.5123913999996148,1.3266567839542378,,experiment,emotion,1.0,,,,1790.7263607999994,1011,33,female,True,17907,17912,False,False,expiration,inspiration
462,136.0,25,M,down,0.4587655000004816,0.4251049883032214,,experiment,emotion,1.0,,,,1791.9429754999999,1011,33,female,True,17919,17924,False,False,inspiration,expiration
463,147.0,25,M,down,0.5772045000003345,1.4699923915331985,,experiment,emotion,1.0,,,,1794.1595675999995,1011,33,female,True,17941,17947,False,False,inspiration,expiration
464,126.0,25,F,down,0.4562368000006245,0.5513187563786325,,experiment,emotion,1.0,,,,1795.5595172999995,1011,33,female,True,17955,17960,False,False,expiration,expiration
465,115.0,25,F,down,0.649047499999142,0.5011918022420423,,experiment,emotion,1.0,,,,1796.7927736,1011,33,female,True,17968,17974,False,False,inspiration,expiration
466,115.0,25,M,down,0.4279662999997527,0.482620552472041,,experiment,emotion,1.0,,,,1798.1928282999993,1011,33,female,True,17982,17986,False,False,expiration,expiration
467,126.0,25,F,down,0.5153933000001416,0.814668855803967,,experiment,emotion,1.0,,,,1799.7093722999996,1011,33,female,True,17997,18002,False,False,peak,expiration
468,147.0,25,F,down,0.6338044999993144,1.6379847091339033,,experiment,emotion,1.0,,,,1802.1259495999993,1011,33,female,True,18021,18027,False,False,inspiration,expiration
469,136.0,25,M,down,0.6009147999993729,1.9869231102320557,,experiment,emotion,1.0,,,,1805.0258361,1011,33,female,True,18050,18056,False,False,expiration,expiration
470,115.0,25,M,down,0.10017060000063792,1.4852334796496964,,experiment,emotion,1.0,,,,1807.3757305,1011,33,female,True,18073,18074,False,False,peak,expiration
471,147.0,25,F,down,0.6244778999998744,1.7155878299334726,,experiment,emotion,1.0,,,,1809.7922575999999,1011,33,female,True,18098,18104,False,False,inspiration,expiration
472,136.0,25,M,down,0.40017099999931816,0.939417867574968,,experiment,emotion,1.0,,,,1811.6255931,1011,33,female,True,18116,18120,False,False,trough,inspiration
473,136.0,25,F,down,0.31681860000026063,0.7032024393317322,,experiment,emotion,1.0,,,,1813.0089006,1011,33,female,True,18130,18133,False,False,expiration,expiration
474,115.0,25,F,down,0.4235965999996552,1.0931069311076271,,experiment,emotion,1.0,,,,1814.7921548999993,1011,33,female,True,18148,18152,False,False,inspiration,expiration
475,126.0,25,F,down,0.3667881000001216,1.3053603915650709,,experiment,emotion,1.0,,,,1816.8087356,1011,33,female,True,18168,18172,False,False,inspiration,inspiration
476,147.0,25,M,down,0.333517899999606,0.9740242147750184,,experiment,emotion,1.0,,,,1818.4753617,1011,33,female,True,18185,18188,False,False,expiration,expiration
477,126.0,25,M,down,0.3501608999995369,1.379900651979194,,experiment,emotion,1.0,,,,1820.5419329999993,1011,33,female,True,18205,18209,False,False,expiration,expiration
478,126.0,25,F,down,0.31686400000035064,0.8584206497803271,,experiment,emotion,1.0,,,,1822.0751915999997,1011,33,female,True,18221,18224,False,False,inspiration,expiration
479,126.0,25,F,down,0.521868099999665,1.2128243850903575,,experiment,emotion,1.0,,,,1823.974948,1011,33,female,True,18240,18245,False,False,inspiration,inspiration
480,147.0,25,M,up,0.4553514999997788,1.1424208289129787,,experiment,emotion,1.0,,,,1825.9084024999993,1011,33,female,True,18259,18264,False,False,expiration,inspiration
481,136.0,25,M,up,0.7923903000000792,0.7607336620515185,,experiment,emotion,1.0,,,,1827.4083661999994,1011,33,female,True,18274,18282,False,False,expiration,expiration
482,115.0,25,M,up,0.4821608000002016,0.6118794988435456,,experiment,emotion,1.0,,,,1829.0916486999995,1011,33,female,True,18291,18296,False,False,inspiration,inspiration
483,115.0,25,M,down,0.5042349000004833,1.9517204002154245,,experiment,emotion,1.0,,,,1831.7915231,1011,33,female,True,18318,18323,False,False,inspiration,expiration
484,136.0,25,M,up,0.5972985000007611,1.908626461255032,,experiment,emotion,1.0,,,,1834.4914179,1011,33,female,True,18345,18351,False,False,inspiration,expiration
485,147.0,25,F,down,0.6180598000000828,1.8792830464981265,,experiment,emotion,1.0,,,,1837.2246841,1011,33,female,True,18372,18378,False,False,inspiration,peak
486,147.0,25,F,down,0.8502447999999276,1.082033763071942,,experiment,emotion,1.0,,,,1839.1745272,1011,33,female,True,18392,18401,False,False,expiration,inspiration
487,115.0,25,M,down,0.8714087999996991,1.673687714012996,,experiment,emotion,1.0,,,,1841.9743536999995,1011,33,female,True,18420,18429,False,False,expiration,inspiration
488,147.0,25,F,up,0.6736704000004465,1.0730782360880446,,experiment,emotion,1.0,,,,1844.1910738999993,1011,33,female,True,18442,18449,False,False,expiration,inspiration
489,126.0,25,F,up,1.1181266000003234,1.3054954735340158,,experiment,emotion,1.0,,,,1846.4576282,1011,33,female,True,18464,18475,False,False,expiration,trough
490,136.0,25,F,down,0.5812026999992668,0.3377499077805547,,experiment,emotion,1.0,,,,1848.2075862999998,1011,33,female,True,18482,18488,False,False,inspiration,expiration
491,126.0,25,M,down,0.7245843000000605,0.8707926529205063,,experiment,emotion,1.0,,,,1849.9241729,1011,33,female,True,18499,18506,False,False,expiration,inspiration
492,115.0,25,F,down,0.9317833000004612,1.152143177338257,,experiment,emotion,1.0,,,,1852.0741075,1011,33,female,True,18521,18530,False,False,expiration,trough
493,136.0,25,F,up,0.5967719999998735,1.266442162547106,,experiment,emotion,1.0,,,,1854.5240195,1011,33,female,True,18545,18551,False,False,expiration,expiration
494,126.0,25,F,up,1.0008252000006903,0.6216411046630723,,experiment,emotion,1.0,,,,1856.023969,1011,33,female,True,18560,18570,False,False,inspiration,expiration
495,136.0,25,M,up,0.8939942999995765,1.4796701012956068,,experiment,emotion,1.0,,,,1858.7747609,1011,33,female,True,18588,18597,False,False,expiration,expiration
496,115.0,25,M,down,0.8703149000002668,0.660089949502712,,experiment,emotion,1.0,,,,1860.5904740999995,1011,33,female,True,18606,18615,False,False,inspiration,inspiration
497,147.0,25,F,up,0.8060145999997985,0.3318278615276765,,experiment,emotion,1.0,,,,1862.0737259,1011,33,female,True,18621,18629,False,False,inspiration,inspiration
498,136.0,25,M,down,0.5600100999999995,0.8071339188399498,,experiment,emotion,1.0,,,,1863.9567419999994,1011,33,female,True,18639,18645,False,False,expiration,expiration
499,147.0,25,F,up,0.5658494999997856,1.4766580945785002,,experiment,emotion,1.0,,,,1866.2569060999995,1011,33,female,True,18662,18668,False,False,inspiration,expiration
500,115.0,25,M,down,0.6546002000004592,1.7504425049340042,,experiment,emotion,1.0,,,,1868.8401405999994,1011,33,female,True,18688,18695,False,False,inspiration,inspiration
501,126.0,25,M,down,0.8920416999999361,1.6714828860342636,,experiment,emotion,1.0,,,,1871.4567185,1011,33,female,True,18714,18723,False,False,expiration,expiration
502,0.4446167627696291,25,up,up,0.8851052999998501,1.1162916605952848,,experiment,cRDM,2.0,,,,1891.3226668,1011,33,female,True,18913,18922,False,False,expiration,expiration
503,0.4446167627696291,25,up,up,0.6592546000001676,1.903190221712968,,experiment,cRDM,2.0,,,,1894.3725442999994,1011,33,female,True,18944,18951,False,False,expiration,expiration
504,0.4446167627696291,25,down,down,0.6716179000004558,0.7445441899080907,,experiment,cRDM,2.0,,,,1896.0391634,1011,33,female,True,18960,18967,False,False,expiration,inspiration
505,0.4446167627696291,25,down,down,0.5426647999993293,0.976791848521778,,experiment,cRDM,2.0,,,,1897.9390887000002,1011,33,female,True,18979,18984,False,False,expiration,expiration
506,0.4446167627696291,25,up,down,0.5500359999996363,0.5648444202516217,,experiment,cRDM,2.0,,,,1899.3057368,1011,33,female,True,18993,18999,False,False,inspiration,peak
507,0.4446167627696291,25,down,down,0.4924718000002031,0.7993398500955693,,experiment,cRDM,2.0,,,,1900.9223171999995,1011,33,female,True,19009,19014,False,False,expiration,expiration
508,0.4446167627696291,25,up,up,1.1719074000002363,0.497784217688984,,experiment,cRDM,2.0,,,,1902.1888493,1011,33,female,True,19022,19034,False,False,inspiration,expiration
509,0.4446167627696291,25,up,down,0.8080806999996639,0.9690813727496586,,experiment,cRDM,2.0,,,,1904.5887367999994,1011,33,female,True,19046,19054,False,False,inspiration,expiration
510,0.4446167627696291,25,down,down,0.7020159999992757,0.884556498213023,,experiment,cRDM,2.0,,,,1906.5387732000002,1011,33,female,True,19065,19072,False,False,expiration,inspiration
511,0.4446167627696291,25,down,down,0.6508552000004784,1.6647244626293254,,experiment,cRDM,2.0,,,,1909.171925,1011,33,female,True,19092,19099,False,False,expiration,inspiration
512,0.4446167627696291,25,down,down,0.4701923000002353,1.8523121582341755,,experiment,cRDM,2.0,,,,1911.9385758,1011,33,female,True,19119,19124,False,False,expiration,inspiration
513,0.4446167627696291,25,down,up,0.6785296999996717,0.537699214334942,,experiment,cRDM,2.0,,,,1913.2052249,1011,33,female,True,19132,19139,False,False,peak,expiration
514,0.4446167627696291,25,down,down,0.5692650000000867,0.5107744244402496,,experiment,cRDM,2.0,,,,1914.6384939,1011,33,female,True,19146,19152,False,False,expiration,inspiration
515,0.4446167627696291,25,down,up,0.6303303999993659,1.6233000032386045,,experiment,cRDM,2.0,,,,1917.088433,1011,33,female,True,19171,19177,False,False,expiration,trough
516,0.4446167627696291,25,up,down,0.585767699999451,0.43215153675090817,,experiment,cRDM,2.0,,,,1918.4050086,1011,33,female,True,19184,19190,False,False,inspiration,expiration
517,0.4446167627696291,25,up,down,0.8842326000003595,1.7250934354302958,,experiment,cRDM,2.0,,,,1920.9715411,1011,33,female,True,19210,19219,False,False,inspiration,expiration
518,0.4446167627696291,25,up,up,0.7332235000003493,0.35216089228191416,,experiment,cRDM,2.0,,,,1922.4715335,1011,33,female,True,19225,19232,False,False,expiration,trough
519,0.4446167627696291,25,up,down,0.8113487999999052,0.3117484348532457,,experiment,cRDM,2.0,,,,1923.771408,1011,33,female,True,19238,19246,False,False,inspiration,expiration
520,0.4446167627696291,25,down,up,0.8931419000000459,0.3277552584476202,,experiment,cRDM,2.0,,,,1925.1716794999993,1011,33,female,True,19252,19261,False,False,expiration,inspiration
521,0.4446167627696291,25,up,up,0.7314559999995254,1.4915396727395032,,experiment,cRDM,2.0,,,,1927.8213245,1011,33,female,True,19278,19285,False,False,expiration,expiration
522,0.4446167627696291,25,up,down,0.8742159000003085,1.0942608938710467,,experiment,cRDM,2.0,,,,1929.9045786,1011,33,female,True,19299,19308,False,False,peak,expiration
523,0.4446167627696291,25,down,down,0.6975247000000309,0.5758767397269915,,experiment,cRDM,2.0,,,,1931.6211864,1011,33,female,True,19316,19323,False,False,expiration,inspiration
524,0.4446167627696291,25,up,down,0.511936699999751,1.6189343545639838,,experiment,cRDM,2.0,,,,1934.1878123,1011,33,female,True,19342,19347,False,False,expiration,inspiration
525,0.4446167627696291,25,down,down,0.033908899999914865,1.5229571247819236,,experiment,cRDM,2.0,,,,1936.4709803999995,1011,33,female,True,19365,19365,False,False,expiration,expiration
526,0.4446167627696291,25,down,down,0.7805228999995961,1.7938844351802319,,experiment,cRDM,2.0,,,,1938.9542336999993,1011,33,female,True,19389,19397,False,False,expiration,expiration
527,0.4446167627696291,25,up,up,0.6672573000005286,1.9443018468143336,,experiment,cRDM,2.0,,,,1941.9375046,1011,33,female,True,19419,19426,False,False,expiration,expiration
528,0.4446167627696291,25,up,up,0.5843515000005937,1.8206400486150882,,experiment,cRDM,2.0,,,,1944.6874088999994,1011,33,female,True,19447,19453,False,False,expiration,expiration
529,0.4446167627696291,25,down,up,0.5761818999999377,0.938957700634372,,experiment,cRDM,2.0,,,,1946.4705642000001,1011,33,female,True,19465,19471,False,False,inspiration,expiration
530,0.4446167627696291,25,up,down,0.7058460999996896,1.3891696137860332,,experiment,cRDM,2.0,,,,1948.7038948,1011,33,female,True,19487,19494,False,False,trough,inspiration
531,0.4446167627696291,25,down,down,0.92541059999985,0.39921719053284455,,experiment,cRDM,2.0,,,,1950.0703708,1011,33,female,True,19501,19510,False,False,expiration,expiration
532,0.4446167627696291,25,down,up,0.8123696999991807,1.8628770241199315,,experiment,cRDM,2.0,,,,1953.1203947999993,1011,33,female,True,19531,19539,False,False,expiration,expiration
533,0.4446167627696291,25,down,,,0.6546451915603029,,experiment,cRDM,2.0,,,,1954.8536587,1011,33,female,True,19548,0,False,False,inspiration,0
534,0.4446167627696291,25,up,up,0.8678696000006312,0.5107827291446079,,experiment,cRDM,2.0,,,,1958.0368777999995,1011,33,female,True,19580,19589,False,False,inspiration,expiration
