,stimLvl,stimTime,rand,response,rt,precedingITI,trialNumber,trialType,stimuli,block,estIntens,estThres,estSlope,trialStart,subject,age,gender,headRest,onset,responsI,manBadOnset,manBadRespons,onset_phase,respons_phase
0,0.9,100,down,down,1.7134814000000915,0.9571399066466412,,introTrial,cRDM,,,,,439.3548624000005,1012,23,male,True,4393,4410,False,False,inspiration,expiration
1,150.0,100,F,up,2.118269799999325,1.034003435067347,,introTrial,emotion,,,,,442.38805779999984,1012,23,male,True,4423,4444,False,False,inspiration,expiration
2,200.0,25,M,up,0.8621517999999924,1.9621575731858572,,tutorial,emotion,,,,,492.63620189999983,1012,23,male,True,4925,4934,False,False,expiration,expiration
3,200.0,25,F,up,0.6822444999997971,1.723597186963661,,tutorial,emotion,,,,,495.48611790000086,1012,23,male,True,4954,4961,False,False,expiration,expiration
4,200.0,25,F,up,0.4277617999996437,0.8777033802125911,,tutorial,emotion,,,,,497.35259339999993,1012,23,male,True,4973,4977,False,False,inspiration,expiration
5,0.0,25,M,down,0.568075699999099,1.545480775131331,,tutorial,emotion,,,,,499.6192823000009,1012,23,male,True,4995,5001,False,False,inspiration,expiration
6,0.0,25,F,down,0.501516400001492,1.667617897308085,,tutorial,emotion,,,,,502.1358408999995,1012,23,male,True,5020,5025,False,False,expiration,expiration
7,200.0,25,M,up,0.4535482000010234,0.5710663898618653,,tutorial,emotion,,,,,503.4858401000009,1012,23,male,True,5034,5039,False,False,inspiration,inspiration
8,0.0,25,M,down,0.5122247999988758,1.3978357804149109,,tutorial,emotion,,,,,505.6190833000009,1012,23,male,True,5055,5060,False,False,inspiration,expiration
9,200.0,25,M,up,0.4167785999998159,0.9583698587459366,,tutorial,emotion,,,,,507.3690051000003,1012,23,male,True,5073,5077,False,False,inspiration,inspiration
10,0.0,25,F,down,0.5050394999998389,0.8235762860416922,,tutorial,emotion,,,,,508.90229749999986,1012,23,male,True,5088,5093,False,False,expiration,expiration
11,0.0,25,F,down,0.6788188000009541,0.6405781222943292,,tutorial,emotion,,,,,510.3355352999997,1012,23,male,True,5102,5109,False,False,inspiration,inspiration
12,0.9,25,up,up,0.6614332999997714,0.4321092290147924,,tutorial,cRDM,,,,,518.1019454000007,1012,23,male,True,5180,5187,False,False,inspiration,expiration
13,0.9,25,up,up,0.4168090000002849,1.2274592687239372,,tutorial,cRDM,,,,,520.2685515000003,1012,23,male,True,5202,5206,False,False,inspiration,peak
14,0.9,25,down,down,0.4352082999994309,1.7295757123240236,,tutorial,cRDM,,,,,522.6851479999996,1012,23,male,True,5226,5230,False,False,inspiration,expiration
15,0.9,25,down,down,0.300480099998822,1.5193125445835818,,tutorial,cRDM,,,,,524.9183564999994,1012,23,male,True,5248,5251,False,False,inspiration,expiration
16,0.9,25,up,up,0.4633338999992702,0.9164818249244662,,tutorial,cRDM,,,,,526.5349687999997,1012,23,male,True,5264,5269,False,False,trough,inspiration
17,0.9,25,down,down,0.4911326000001282,1.463981229405861,,tutorial,cRDM,,,,,528.7182278999999,1012,23,male,True,5286,5291,False,False,expiration,expiration
18,0.9,25,up,up,0.3504825999989407,1.4306607354396563,,tutorial,cRDM,,,,,530.9181601999999,1012,23,male,True,5308,5312,False,False,expiration,expiration
19,0.9,25,up,up,0.4660316999998031,0.5368982056847205,,tutorial,cRDM,,,,,532.1513096999997,1012,23,male,True,5321,5326,False,False,inspiration,inspiration
20,0.9,25,down,down,0.5240220000014233,1.0447718350789674,,tutorial,cRDM,,,,,533.9513828000008,1012,23,male,True,5339,5344,False,False,expiration,inspiration
21,0.9,25,down,down,0.3671274000007543,1.0866158183758243,,tutorial,cRDM,,,,,535.8346529,1012,23,male,True,5357,5361,False,False,expiration,expiration
22,100.0,25,M,up,0.6218742999990354,1.1412472651964598,,psi_staircase_training,emotion,,100.0,100.0,25.00050000000001,549.1174815999993,1012,23,male,True,5490,5496,False,False,expiration,inspiration
23,55.0,25,M,up,0.4472881999990932,1.339145041833312,,psi_staircase_training,emotion,,54.742809467541896,54.742809467541896,25.00050000000011,551.4340485000001,1012,23,male,True,5513,5517,False,False,expiration,expiration
24,32.0,25,F,down,0.4490987000008317,1.7188433462991002,,psi_staircase_training,emotion,,31.96124636773396,31.96124636773396,24.34819504815393,553.9673100999998,1012,23,male,True,5539,5543,False,False,expiration,expiration
25,45.0,25,F,down,0.437126900000294,1.1910624113903336,,psi_staircase_training,emotion,,44.99556334762485,44.99556334762485,25.558429500417468,555.9672345999999,1012,23,male,True,5559,5563,False,False,inspiration,expiration
26,61.0,25,M,down,0.4001525000003312,0.3630152673264151,,psi_staircase_training,emotion,,56.13206424444672,56.13206424444672,26.18829273161237,557.1338511999993,1012,23,male,True,5570,5574,False,False,expiration,expiration
27,78.0,25,F,down,0.316559299999426,0.7513897754285015,,psi_staircase_training,emotion,,69.11769977000444,69.11769977000444,30.62543060292486,558.6507255999994,1012,23,male,True,5586,5589,False,False,inspiration,expiration
28,91.0,25,M,down,0.3335773999988305,1.090297485601984,,psi_staircase_training,emotion,,82.5380829687941,82.5380829687941,33.58127212713992,560.5337035000001,1012,23,male,True,5604,5607,False,False,trough,inspiration
29,109.0,25,F,down,0.36684280000008573,0.4620461491193462,,psi_staircase_training,emotion,,95.08638182775269,95.08638182775269,35.49151417204479,561.7670000000007,1012,23,male,True,5617,5621,False,False,expiration,expiration
30,125.0,25,F,up,0.8037287000006472,0.7996269665148683,,psi_staircase_training,emotion,,109.01459055284391,109.01459055284391,38.003056463998384,563.3335926999998,1012,23,male,True,5632,5640,False,False,expiration,inspiration
31,113.0,25,M,up,0.9499178999994909,1.5591363295023046,,psi_staircase_training,emotion,,100.92995199391086,100.92995199391086,37.38948589772304,566.0504456999997,1012,23,male,True,5660,5669,False,False,inspiration,expiration
32,90.0,25,F,up,0.6119154000007256,0.8261600202069397,,psi_staircase_training,emotion,,95.08229182496656,95.08229182496656,36.68443429652132,568.1834561000005,1012,23,male,True,5681,5687,False,False,expiration,inspiration
33,82.0,25,F,up,0.3168213999997533,1.3160230161283222,,psi_staircase_training,emotion,,88.29487237556809,88.29487237556809,37.20598652391846,570.4666877999998,1012,23,male,True,5704,5707,False,False,expiration,expiration
34,69.0,25,F,down,0.6607424999983778,0.7912680393843553,,psi_staircase_training,emotion,,82.39231143804122,82.39231143804122,37.614174340426565,572.0166276000008,1012,23,male,True,5719,5726,False,False,inspiration,inspiration
35,105.0,25,M,up,1.7154726999997365,0.5127526886764039,,psi_staircase_training,emotion,,85.87000240777162,85.87000240777162,37.09330934249753,573.5498632999997,1012,23,male,True,5735,5752,False,False,expiration,expiration
36,63.0,25,M,down,0.6625825999999506,1.966109107971416,,psi_staircase_training,emotion,,83.11286825405001,83.11286825405001,36.425448533920225,577.5997510999996,1012,23,male,True,5775,5782,False,False,expiration,expiration
37,109.0,25,F,down,1.0103158000001713,1.4540111356128842,,psi_staircase_training,emotion,,85.54524149657432,85.54524149657432,35.721985006756704,580.0830040999998,1012,23,male,True,5800,5810,False,False,expiration,expiration
38,115.0,25,F,up,0.6734376999993401,0.3334962679732557,,psi_staircase_training,emotion,,91.27395522239902,91.27395522239902,37.91111069747235,581.7829331000003,1012,23,male,True,5817,5824,False,False,inspiration,inspiration
39,114.0,25,M,up,0.7728779999997641,1.8077281144084791,,psi_staircase_training,emotion,,89.20216822951956,89.20216822951956,37.26621350612498,584.5994996000001,1012,23,male,True,5845,5853,False,False,inspiration,expiration
40,64.0,25,M,down,0.5806482000007236,1.820836263310088,,psi_staircase_training,emotion,,87.39655338863156,87.39655338863156,36.64692010830566,587.5827292999992,1012,23,male,True,5875,5881,False,False,peak,expiration
41,65.0,25,M,,,1.3757190019632413,,psi_staircase_training,emotion,,89.16924276115391,89.16924276115391,35.96400829485588,589.9159829999999,1012,23,male,True,5898,0,False,False,inspiration,0
42,65.0,25,F,down,1.1395159999992757,1.3757190019632413,,psi_staircase_training,emotion,,89.16924276115391,89.16924276115391,35.96400829485588,593.9658614999997,1012,23,male,True,5939,5950,False,False,expiration,inspiration
43,119.0,25,M,up,0.7386538999999175,1.6850897184938711,,psi_staircase_training,emotion,,90.74200319250284,90.74200319250284,35.295379352070434,597.1657062000004,1012,23,male,True,5971,5978,False,False,expiration,inspiration
44,64.0,25,F,down,0.8210927000000083,0.8719096103605124,,psi_staircase_training,emotion,,89.40573308883988,89.40573308883988,34.5392782595119,599.1322788000008,1012,23,male,True,5990,5998,False,False,expiration,inspiration
45,119.0,25,F,up,0.5415008999989368,1.2275242602525338,,psi_staircase_training,emotion,,90.71933083737308,90.71933083737308,33.806118779827585,601.4988755999992,1012,23,male,True,6014,6019,False,False,expiration,expiration
46,64.0,25,F,down,0.5582873000003019,1.8747445111654528,,psi_staircase_training,emotion,,89.57604475521532,89.57604475521532,33.01036526830577,604.2320886000008,1012,23,male,True,6041,6047,False,False,expiration,expiration
47,119.0,25,M,up,0.46775060000072705,1.1169071830195083,,psi_staircase_training,emotion,,90.71136600530345,90.71136600530345,32.22851455793476,606.2486257999999,1012,23,male,True,6062,6067,False,False,inspiration,expiration
48,64.0,25,M,down,0.6284087000003638,1.5288740853472222,,psi_staircase_training,emotion,,89.73555873611309,89.73555873611309,31.410053905933648,608.5819471999994,1012,23,male,True,6085,6091,False,False,inspiration,expiration
49,119.0,25,F,up,0.8234740000007149,1.1869384562862628,,psi_staircase_training,emotion,,90.7192263678237,90.7192263678237,30.59805840740902,610.7318569000007,1012,23,male,True,6106,6114,False,False,inspiration,expiration
50,65.0,25,F,down,0.6292643999986467,1.3163714030632268,,psi_staircase_training,emotion,,89.88914752789243,89.88914752789243,29.77763193693909,613.2151199000008,1012,23,male,True,6131,6137,False,False,inspiration,expiration
51,119.0,25,M,up,1.4126463000011429,0.6852218837708212,,psi_staircase_training,emotion,,90.7765438148364,90.7765438148364,28.950755205572005,614.8817239000008,1012,23,male,True,6148,6162,False,False,expiration,inspiration
52,66.0,25,M,up,0.9200419999997392,0.7965941192949096,,psi_staircase_training,emotion,,90.0726009424352,90.0726009424352,28.148792886430183,617.4483150999995,1012,23,male,True,6174,6183,False,False,expiration,inspiration
53,0.29,25,up,up,0.7093578999993042,1.012196252534669,,psi_staircase_training,cRDM,,0.25,0.25693124029946324,0.10500000000000002,624.8980161999998,1012,23,male,True,6248,6255,False,False,expiration,expiration
54,0.25,25,up,up,1.3196962999991229,1.5389704159640978,,psi_staircase_training,cRDM,,0.21910266653183127,0.2260132002683493,0.10468632033873933,627.4146021999994,1012,23,male,True,6273,6286,False,False,expiration,expiration
55,0.21,25,down,down,0.5751592999986315,0.4317172227330927,,psi_staircase_training,cRDM,,0.1900540959403307,0.19684979615540016,0.10294672984249993,629.4311776000004,1012,23,male,True,6293,6299,False,False,trough,inspiration
56,0.18,25,down,up,0.6592971000009129,1.7523237493991926,,psi_staircase_training,cRDM,,0.1635257589279754,0.1701521334256793,0.100381647756865,632.0310765999992,1012,23,male,True,6319,6326,False,False,trough,inspiration
57,0.28,25,up,up,0.4002725999998802,1.5249864861124982,,psi_staircase_training,cRDM,,0.2462894156509761,0.25367687443104303,0.11191116429293203,634.4810289999996,1012,23,male,True,6344,6348,False,False,expiration,inspiration
58,0.26,25,down,down,0.940452599999844,1.0436570924605924,,psi_staircase_training,cRDM,,0.2240209245171441,0.23127202108978026,0.10984543995477343,636.2309226999996,1012,23,male,True,6361,6370,False,False,expiration,expiration
59,0.23,25,up,down,0.8909311999996135,0.302952906261442,,psi_staircase_training,cRDM,,0.2047781477371872,0.21182460465655809,0.10674539397966608,637.7474334999997,1012,23,male,True,6377,6386,False,False,trough,peak
60,0.3,25,up,up,0.7459600999991379,1.1442462982606103,,psi_staircase_training,cRDM,,0.2697103339394856,0.2773111054220624,0.11514259659016085,640.047396500001,1012,23,male,True,6400,6407,False,False,expiration,inspiration
61,0.29,25,down,down,0.6669796000005589,1.6921612968215332,,psi_staircase_training,cRDM,,0.2518160190604297,0.259235199658211,0.11239171188847126,642.7473940000009,1012,23,male,True,6427,6434,False,False,trough,inspiration
62,0.28,25,down,up,0.6580798999984836,0.8006030553422514,,psi_staircase_training,cRDM,,0.23685005500865636,0.2440023994648623,0.10834946350940708,644.4973020000008,1012,23,male,True,6444,6451,False,False,expiration,expiration
63,0.34,25,down,down,0.7205737999993289,0.9353442999210306,,psi_staircase_training,cRDM,,0.2957213019363724,0.3043358762787756,0.1305004972951791,646.3637862000005,1012,23,male,True,6463,6470,False,False,inspiration,expiration
64,0.32,25,down,up,0.6672429999998712,1.479832286689961,,psi_staircase_training,cRDM,,0.27985947749095724,0.28843992791006784,0.12998356067331518,648.8471354000002,1012,23,male,True,6488,6495,False,False,inspiration,expiration
65,0.39,25,down,down,0.7569793000002392,0.3524613524163269,,psi_staircase_training,cRDM,,0.3355526745990405,0.3445572156705564,0.13640802679751032,650.1303644999998,1012,23,male,True,6501,6509,False,False,expiration,expiration
66,0.37,25,down,down,0.5290019999993092,0.7240540740389638,,psi_staircase_training,cRDM,,0.3222011888138502,0.3312714276588904,0.13740326948453574,651.8803572999997,1012,23,male,True,6518,6523,False,False,inspiration,expiration
67,0.37,25,up,up,0.5291276999996626,0.9394973965141268,,psi_staircase_training,cRDM,,0.3093128496703457,0.3184041284343879,0.1377219990913243,653.6302112000002,1012,23,male,True,6536,6541,False,False,expiration,inspiration
68,0.36,25,up,up,0.5048439999991388,1.9463860012377432,,psi_staircase_training,cRDM,,0.29796817850618623,0.3069956818221973,0.13675587733620484,656.3635156999999,1012,23,male,True,6563,6568,False,False,inspiration,inspiration
69,0.31,25,up,up,0.5242071000011492,1.5443756192244953,,psi_staircase_training,cRDM,,0.2875348034675375,0.2964720986106196,0.13538933141537315,658.6801280000009,1012,23,male,True,6586,6591,False,False,inspiration,inspiration
70,0.31,25,up,up,0.3671857999997883,1.132367856022672,,psi_staircase_training,cRDM,,0.2747996903653173,0.28394512577103376,0.13854240743530286,660.5967019000009,1012,23,male,True,6605,6609,False,False,expiration,expiration
71,0.31,25,down,up,0.28395439999985683,0.8645971132242614,,psi_staircase_training,cRDM,,0.2630804497166492,0.272331754572034,0.140146202966102,662.1632163999992,1012,23,male,True,6621,6624,False,False,expiration,expiration
72,0.37,25,up,up,1.0503984000006312,0.9209138719732604,,psi_staircase_training,cRDM,,0.3026776826191861,0.3118406933958933,0.138808653283707,663.7799674000007,1012,23,male,True,6637,6648,False,False,trough,expiration
73,0.31,25,up,up,0.5533012999985658,1.631442291179274,,psi_staircase_training,cRDM,,0.29472116916489954,0.303724986320777,0.1363970603414721,666.7300798999995,1012,23,male,True,6667,6673,False,False,expiration,expiration
74,0.31,25,down,down,0.4656102999997529,0.7673993986607102,,psi_staircase_training,cRDM,,0.283761006881721,0.2930591819952361,0.14085623131471633,668.3297193999998,1012,23,male,True,6683,6688,False,False,inspiration,expiration
75,0.31,25,up,up,0.3338151999996626,1.5109485772829203,,psi_staircase_training,cRDM,,0.2734011878451722,0.2829003980786552,0.14390167292179326,670.579679200001,1012,23,male,True,6705,6708,False,False,inspiration,inspiration
76,0.3,25,down,down,0.541418300001169,0.8835474714118691,,psi_staircase_training,cRDM,,0.26379371740196184,0.27341753183272705,0.14578927747009393,672.1629690000001,1012,23,male,True,6721,6726,False,False,expiration,expiration
77,0.3,25,down,up,0.35053929999958194,0.6737051883669445,,psi_staircase_training,cRDM,,0.25455305302844544,0.264284185917938,0.14741502375496124,673.6461767999998,1012,23,male,True,6736,6740,False,False,inspiration,expiration
78,0.34,25,up,up,0.4278572000002896,1.9399592261272736,,psi_staircase_training,cRDM,,0.2856055299906391,0.29513486732646355,0.14435806248688998,676.2794848999993,1012,23,male,True,6762,6766,False,False,inspiration,expiration
79,0.3,25,up,up,0.5312895000006392,1.6151250156520254,,psi_staircase_training,cRDM,,0.2784261105148561,0.2878946899888833,0.14343765355384516,678.5960526999997,1012,23,male,True,6785,6790,False,False,inspiration,expiration
80,0.29,25,down,down,0.4536798000008275,1.5678722342371418,,psi_staircase_training,cRDM,,0.2697966050575657,0.27945658116763755,0.14633708365818576,680.9626625999998,1012,23,male,True,6809,6814,False,False,inspiration,expiration
81,0.29,25,up,up,0.3838470999999117,1.1319374315297277,,psi_staircase_training,cRDM,,0.2613833452951549,0.2712142668983619,0.14892670340929715,682.8292358999997,1012,23,male,True,6827,6831,False,False,inspiration,inspiration
82,0.29,25,down,down,0.3005273999988276,1.3273423428396902,,psi_staircase_training,cRDM,,0.2534660326297,0.2634159598161907,0.15072949565208876,684.8624800999996,1012,23,male,True,6848,6851,False,False,expiration,trough
83,100.0,25,M,down,1.0967123999998876,0.7173152693295222,,psi_staircase,emotion,,100.0,100.0,25.00050000000001,698.5286327999993,1012,23,male,True,6984,6995,False,False,inspiration,expiration
84,145.0,25,M,up,0.5604583000003913,1.7376570940911824,,psi_staircase,emotion,,145.25719053245996,145.25719053245996,25.000500000000283,701.7118842999997,1012,23,male,True,7016,7022,False,False,expiration,expiration
85,121.0,25,F,up,0.5980036000000837,0.7211735106987784,,psi_staircase,emotion,,120.36392901436103,120.36392901436103,25.71326925488699,703.3453844000005,1012,23,male,True,7033,7039,False,False,inspiration,expiration
86,97.0,25,F,up,0.9132547000008344,0.4009544248525772,,psi_staircase,emotion,,102.38876106084959,102.38876106084959,26.14633372628729,704.6951056000007,1012,23,male,True,7046,7055,False,False,expiration,inspiration
87,73.0,25,M,down,0.5401134999992792,1.5682750987648446,,psi_staircase,emotion,,82.84358992132628,82.84358992132628,31.43229144782805,707.5283126999992,1012,23,male,True,7074,7079,False,False,expiration,expiration
88,84.0,25,F,down,0.6332327000000078,1.7994472622121649,,psi_staircase,emotion,,94.9613577591715,94.9613577591715,29.694064005486627,710.2451369,1012,23,male,True,7102,7108,False,False,expiration,expiration
89,112.0,25,M,up,0.6385635000006005,0.9563737798987106,,psi_staircase,emotion,,101.83848744414509,101.83848744414509,27.875884705401482,712.1948170000005,1012,23,male,True,7121,7127,False,False,inspiration,expiration
90,84.0,25,F,down,0.7157033000003139,1.1715465519150343,,psi_staircase,emotion,,96.52149301196151,96.52149301196151,26.16750556784959,714.344657300001,1012,23,male,True,7143,7150,False,False,inspiration,expiration
91,112.0,25,F,up,0.8693944999995438,1.3009874750519397,,psi_staircase,emotion,,100.4399405768832,100.4399405768832,24.06105184598652,716.6779854999995,1012,23,male,True,7166,7175,False,False,inspiration,expiration
92,86.0,25,M,down,0.6197778999994625,0.6489420828721063,,psi_staircase,emotion,,97.27117883264343,97.27117883264343,21.995508974138584,718.5445881999996,1012,23,male,True,7185,7191,False,False,expiration,inspiration
93,109.0,25,F,up,0.6171914999995352,0.4926158470933222,,psi_staircase,emotion,,99.8380683730314,99.8380683730314,19.86449481087272,720.0111800000003,1012,23,male,True,7199,7205,False,False,expiration,expiration
94,89.0,25,F,up,0.4168131000005815,0.9058664470543084,,psi_staircase,emotion,,97.57882283297954,97.57882283297954,17.856501798714334,721.8944569000005,1012,23,male,True,7218,7222,False,False,inspiration,inspiration
95,76.0,25,F,up,0.3334632000005513,1.1277954532994732,,psi_staircase,emotion,,92.69357162067158,92.69357162067158,22.871454661283487,723.8110561000003,1012,23,male,True,7237,7240,False,False,inspiration,inspiration
96,65.0,25,M,down,0.7397435999992013,1.5929760197647915,,psi_staircase,emotion,,86.49013911002518,86.49013911002518,30.19744103330921,726.1776067000002,1012,23,male,True,7261,7268,False,False,expiration,inspiration
97,67.0,25,M,down,0.6297928999993019,1.6071549338612705,,psi_staircase,emotion,,88.61836653694317,88.61836653694317,28.603037454710613,728.8775398999996,1012,23,male,True,7288,7294,False,False,inspiration,inspiration
98,68.0,25,F,down,0.4002063999996608,0.8207789141994779,,psi_staircase,emotion,,90.29552898081707,90.29552898081707,27.12624545042299,730.6774656999997,1012,23,male,True,7306,7310,False,False,expiration,expiration
99,112.0,25,F,down,0.26684690000001865,1.6829548065967357,,psi_staircase,emotion,,91.59773030365864,91.59773030365864,25.777412111871296,733.1273625999993,1012,23,male,True,7330,7333,False,False,expiration,expiration
100,122.0,25,M,down,0.4167907000010018,0.7925891644764407,,psi_staircase,emotion,,96.41281968103677,96.41281968103677,31.016278876957603,734.6773149000011,1012,23,male,True,7346,7350,False,False,inspiration,inspiration
101,128.0,25,M,up,0.5093631999989157,0.7863559791541408,,psi_staircase,emotion,,101.59537178528727,101.59537178528727,35.292176195766984,736.2439750000003,1012,23,male,True,7362,7367,False,False,expiration,expiration
102,128.0,25,M,up,0.3835056000007171,0.940487082937434,,psi_staircase,emotion,,100.05021353857764,100.05021353857764,34.422770163611034,738.0271863000007,1012,23,male,True,7379,7383,False,False,inspiration,expiration
103,127.0,25,M,up,0.38362489999963145,0.6401311655390074,,psi_staircase,emotion,,98.74839121487602,98.74839121487602,33.587012543395794,739.4271280000003,1012,23,male,True,7393,7397,False,False,expiration,expiration
104,69.0,25,F,down,0.5879315000001952,1.117995480713292,,psi_staircase,emotion,,97.6097031499957,97.6097031499957,32.77968957542029,741.3103954000007,1012,23,male,True,7412,7418,False,False,expiration,expiration
105,127.0,25,F,up,0.634077000000616,1.6459949959094489,,psi_staircase,emotion,,98.6844159922484,98.6844159922484,31.924411697564544,743.8603114000008,1012,23,male,True,7438,7444,False,False,expiration,expiration
106,70.0,25,F,down,0.6605342000002565,0.6728203405972866,,psi_staircase,emotion,,97.72029677253143,97.72029677253143,31.092530379050874,745.5438459999997,1012,23,male,True,7455,7462,False,False,trough,inspiration
107,127.0,25,M,up,0.333500599999752,1.6382945345061397,,psi_staircase,emotion,,98.66203223866974,98.66203223866974,30.22035012563528,748.1768297000008,1012,23,male,True,7481,7484,False,False,trough,inspiration
108,70.0,25,M,up,0.7499491999988095,0.8573152623642428,,psi_staircase,emotion,,97.8455746716668,97.8455746716668,29.38818815442949,749.7934307999994,1012,23,male,True,7497,7504,False,False,expiration,expiration
109,64.0,25,F,up,0.5703389000009338,1.8568357475550767,,psi_staircase,emotion,,94.12645751481176,94.12645751481176,33.37855482461802,752.7600049000004,1012,23,male,True,7527,7533,False,False,expiration,expiration
110,59.0,25,F,up,0.3167293999995309,0.4289294753095769,,psi_staircase,emotion,,90.33599614584064,90.33599614584064,36.586260327665975,754.1266108000009,1012,23,male,True,7540,7543,False,False,inspiration,inspiration
111,57.0,25,M,down,0.4898059000006469,0.96341824736281,,psi_staircase,emotion,,86.54102720457985,86.54102720457985,39.03339027487237,755.8765391999997,1012,23,male,True,7558,7563,False,False,expiration,expiration
112,57.0,25,M,down,0.2668555999989621,1.3150456348448312,,psi_staircase,emotion,,87.63048041982141,87.63048041982141,38.522815109626606,758.0264448999997,1012,23,male,True,7579,7582,False,False,expiration,expiration
113,57.0,25,F,down,0.3669006000000081,1.6525133639564271,,psi_staircase,emotion,,88.61321454147753,88.61321454147753,38.018514806813634,760.4429554999997,1012,23,male,True,7604,7608,False,False,expiration,expiration
114,121.0,25,M,up,0.7400684999993246,1.6485696532031109,,psi_staircase,emotion,,89.5016430540558,89.5016430540558,37.521379803074744,762.8763174999996,1012,23,male,True,7628,7635,False,False,inspiration,expiration
115,56.0,25,F,down,1.0024941000010583,1.5267254570832465,,psi_staircase,emotion,,88.66924492648937,88.66924492648937,37.0294657480118,765.4928886999996,1012,23,male,True,7654,7664,False,False,inspiration,expiration
116,122.0,25,M,up,0.668689699999959,1.192418129287556,,psi_staircase,emotion,,89.44986449939854,89.44986449939854,36.50932589760724,768.0426484999997,1012,23,male,True,7680,7687,False,False,inspiration,expiration
117,56.0,25,F,down,0.4001805000007153,1.7229565229090145,,psi_staircase,emotion,,88.71805544405939,88.71805544405939,35.99482450673182,770.7593301000006,1012,23,male,True,7707,7711,False,False,inspiration,inspiration
118,122.0,25,M,up,0.5095254999996541,0.4372291880302029,,psi_staircase,emotion,,89.42410712405137,89.42410712405137,35.45562635376577,771.9428072000002,1012,23,male,True,7719,7724,False,False,expiration,expiration
119,55.0,25,F,down,0.7428619999991497,1.9336013141133317,,psi_staircase,emotion,,88.76029644627475,88.76029644627475,34.922856561876905,774.7425267999997,1012,23,male,True,7747,7754,False,False,expiration,expiration
120,122.0,25,M,up,0.8769103999984509,1.1609044327295135,,psi_staircase,emotion,,89.377464760641,89.377464760641,34.377645278598656,776.9924335999996,1012,23,male,True,7769,7778,False,False,inspiration,expiration
121,56.0,25,M,down,0.6613240999995469,0.3504279328330013,,psi_staircase,emotion,,88.77560032928601,88.77560032928601,33.835165603117716,778.5590590000003,1012,23,male,True,7785,7792,False,False,expiration,trough
122,122.0,25,F,up,0.5490878000000521,1.4432713385387514,,psi_staircase,emotion,,89.35219501685822,89.35219501685822,33.28164639034084,780.9922876000011,1012,23,male,True,7809,7814,False,False,expiration,expiration
123,56.0,25,F,down,0.6754830000008951,1.280314372424039,,psi_staircase,emotion,,88.80631978414878,88.80631978414878,32.73759519307885,783.1588949000006,1012,23,male,True,7831,7838,False,False,inspiration,expiration
124,121.0,25,F,up,0.7532326000000467,1.1538364824704004,,psi_staircase,emotion,,89.32629425407295,89.32629425407295,32.18992137246562,785.3421437000006,1012,23,male,True,7853,7861,False,False,inspiration,expiration
125,56.0,25,M,up,0.8459944000005635,1.4944972352269112,,psi_staircase,emotion,,88.81212916974917,88.81212916974917,31.646777508091997,787.9253455999997,1012,23,male,True,7878,7886,False,False,inspiration,expiration
126,52.0,25,M,down,0.4607469999991736,1.4383872415684351,,psi_staircase,emotion,,86.29430403549705,86.29430403549705,34.51426524260995,790.5586240000003,1012,23,male,True,7905,7910,False,False,inspiration,expiration
127,120.0,25,F,up,1.026939900000798,1.5297873790660677,,psi_staircase,emotion,,86.80518688666076,86.80518688666076,34.01275033901233,792.9254484000003,1012,23,male,True,7929,7939,False,False,inspiration,expiration
128,52.0,25,F,down,1.1199460999996518,0.7628316754938154,,psi_staircase,emotion,,86.31177419196644,86.31177419196644,33.52378070326317,795.0584506000005,1012,23,male,True,7950,7961,False,False,trough,expiration
129,120.0,25,F,up,0.7739739000007829,0.4443502168396467,,psi_staircase,emotion,,86.77759892044472,86.77759892044472,33.026806183046105,796.9583683000011,1012,23,male,True,7969,7977,False,False,expiration,expiration
130,53.0,25,M,down,0.8361229999991338,1.5599925868170474,,psi_staircase,emotion,,86.32456823901232,86.32456823901232,32.54185870209306,799.6582671999995,1012,23,male,True,7996,8004,False,False,expiration,expiration
131,119.0,25,M,up,0.6368404999993801,1.2923104176766549,,psi_staircase,emotion,,86.76508326590681,86.76508326590681,32.049771389438554,802.1415153999997,1012,23,male,True,8021,8027,False,False,expiration,expiration
132,53.0,25,M,down,1.2573107999996864,1.5544679103323775,,psi_staircase,emotion,,86.33235152834027,86.33235152834027,31.56915266719657,804.6580798000005,1012,23,male,True,8046,8059,False,False,peak,expiration
133,0.29,25,up,up,0.5195407999999588,0.8158054005008701,,psi_staircase,cRDM,,0.25,0.25693124029946324,0.10500000000000002,812.5078020000011,1012,23,male,True,8124,8129,False,False,inspiration,expiration
134,0.25,25,up,up,0.700003399999332,1.6887737266470066,,psi_staircase,cRDM,,0.21910266653183127,0.2260132002683493,0.10468632033873933,814.9743726000006,1012,23,male,True,8149,8156,False,False,inspiration,expiration
135,0.21,25,down,down,0.4732433999997738,1.9823590193088505,,psi_staircase,cRDM,,0.1900540959403307,0.19684979615540016,0.10294672984249993,817.924107400001,1012,23,male,True,8179,8184,False,False,expiration,expiration
136,0.18,25,down,down,1.1221841999995377,1.1683828835244854,,psi_staircase,cRDM,,0.1635257589279754,0.1701521334256793,0.100381647756865,819.8241506999992,1012,23,male,True,8198,8209,False,False,inspiration,expiration
137,0.15,25,up,up,1.1535400000011578,0.6690780633207606,,psi_staircase,cRDM,,0.14018955742449365,0.14660133511875031,0.0971307628663642,821.8908077000007,1012,23,male,True,8218,8230,False,False,inspiration,expiration
138,0.13,25,down,up,0.9612895000009304,0.32245238421750805,,psi_staircase,cRDM,,0.11987606021454796,0.12605547676183335,0.09361076941961036,823.6240611999992,1012,23,male,True,8236,8246,False,False,expiration,inspiration
139,0.21,25,up,up,0.6016854000008607,1.2804550699689337,,psi_staircase,cRDM,,0.1822197442013377,0.18935685454542567,0.10811868493251764,826.1406701999996,1012,23,male,True,8261,8267,False,False,expiration,expiration
140,0.19,25,down,down,0.4931593999990582,1.2587186146234672,,psi_staircase,cRDM,,0.16346732969558295,0.17035613631435872,0.104357180493002,828.2572482999994,1012,23,male,True,8282,8287,False,False,inspiration,expiration
141,0.17,25,down,down,1.0398571000005177,1.6762987229905313,,psi_staircase,cRDM,,0.1479762083426976,0.15459564791025282,0.10027659186006296,830.6904781000003,1012,23,male,True,8306,8316,False,False,inspiration,expiration
142,0.17,25,up,up,0.6356381000005058,0.9783373233582142,,psi_staircase,cRDM,,0.13483492625767296,0.14124489268945647,0.09710332440636764,832.9737133999997,1012,23,male,True,8329,8335,False,False,inspiration,inspiration
143,0.16,25,down,down,0.3337714000008418,1.3833234908753138,,psi_staircase,cRDM,,0.12461215930265188,0.13074662368249645,0.09292979785068996,835.2570136999992,1012,23,male,True,8352,8355,False,False,expiration,inspiration
144,0.12,25,down,down,0.8117540000002919,0.5283256878847092,,psi_staircase,cRDM,,0.11596971700492753,0.1218844275389857,0.08960078993714901,836.4735852999993,1012,23,male,True,8364,8372,False,False,expiration,expiration
145,0.12,25,down,up,0.8378837999989628,1.7680420379021975,,psi_staircase,cRDM,,0.10423606849367276,0.11059137741523703,0.0962753285030272,839.3234700000003,1012,23,male,True,8393,8401,False,False,expiration,expiration
146,0.17,25,up,up,0.5899848999997629,1.3034084349077213,,psi_staircase,cRDM,,0.13483992276327594,0.14042853999979302,0.08466086652337394,841.7233709000003,1012,23,male,True,8417,8423,False,False,inspiration,expiration
147,0.16,25,up,down,1.4384470000004512,1.165637179792344,,psi_staircase,cRDM,,0.12896155801292006,0.13417720547406575,0.07901082053996962,843.7399188999997,1012,23,male,True,8437,8451,False,False,inspiration,expiration
148,0.19,25,down,down,0.8011440999998741,1.1416649741536005,,psi_staircase,cRDM,,0.15543979072953626,0.1621773862988174,0.10206651395844736,846.5732132000003,1012,23,male,True,8465,8473,False,False,inspiration,expiration
149,0.19,25,down,down,0.5182111999984045,1.2826359561740572,,psi_staircase,cRDM,,0.14743158816724056,0.1537673152660424,0.095978687310222,848.9231088999995,1012,23,male,True,8488,8493,False,False,expiration,inspiration
150,0.19,25,up,up,0.4722574999996141,0.7684758484088791,,psi_staircase,cRDM,,0.14167152468930813,0.1475925287687554,0.08969612962201072,850.4730637000004,1012,23,male,True,8504,8509,False,False,expiration,expiration
151,0.15,25,up,up,0.5809922000007646,1.5978321481533797,,psi_staircase,cRDM,,0.13769721309673674,0.1432080864885564,0.08348314026652255,852.806344900001,1012,23,male,True,8527,8533,False,False,expiration,expiration
152,0.14,25,up,down,0.6417816000011953,1.436871380183041,,psi_staircase,cRDM,,0.13003270777082948,0.13590196161045354,0.08891217538775129,855.0895702999997,1012,23,male,True,8550,8556,False,False,inspiration,expiration
153,0.19,25,up,up,0.5538587999999436,1.085765496273548,,psi_staircase,cRDM,,0.1497960217081651,0.1544142537417416,0.06996069138781406,857.0894913000003,1012,23,male,True,8570,8576,False,False,expiration,inspiration
154,0.18,25,down,up,0.8376645999996981,0.6384018389052877,,psi_staircase,cRDM,,0.14713195019787173,0.15132368598784515,0.06349978343432858,858.5396919999994,1012,23,male,True,8585,8593,False,False,expiration,expiration
155,0.2,25,down,up,0.5397310999996989,1.2884058465709949,,psi_staircase,cRDM,,0.16311537109425578,0.1701153160625164,0.10604079355382916,860.9226707000007,1012,23,male,True,8608,8613,False,False,inspiration,expiration
156,0.25,25,down,down,0.8747103999994579,0.4846257013445735,,psi_staircase,cRDM,,0.19435766146447492,0.20363115214906308,0.14048229174180482,862.2226426000008,1012,23,male,True,8621,8630,False,False,expiration,expiration
157,0.23,25,up,up,0.7654581000006146,1.3506663546510274,,psi_staircase,cRDM,,0.184020580198038,0.19312311652410166,0.13789253769064988,864.7058893999993,1012,23,male,True,8646,8654,False,False,expiration,expiration
158,0.22,25,up,up,0.8198939000012615,0.6956682482970489,,psi_staircase,cRDM,,0.1750642072982317,0.18397243138410527,0.1349489396708923,866.4224561000002,1012,23,male,True,8663,8671,False,False,inspiration,expiration
159,0.22,25,down,up,0.4002882999993744,1.3587867227998256,,psi_staircase,cRDM,,0.16742512198880935,0.17611727516418674,0.1316757238217963,868.8557855999996,1012,23,male,True,8688,8692,False,False,inspiration,inspiration
160,0.29,25,down,down,0.7532547999999224,0.5061201384261346,,psi_staircase,cRDM,,0.19703545994741226,0.20688498527994487,0.149208527656445,870.0390782999992,1012,23,male,True,8700,8708,False,False,expiration,expiration
161,0.27,25,up,up,0.36717399999906775,0.864201269799622,,psi_staircase,cRDM,,0.18903716365515816,0.1987552490685972,0.1472173700989873,871.9056152000003,1012,23,male,True,8718,8722,False,False,inspiration,inspiration
162,0.26,25,up,up,0.8997773000010056,0.6285666953140046,,psi_staircase,cRDM,,0.18189868970139506,0.19147651037496485,0.14509252706224954,873.2055730000003,1012,23,male,True,8731,8740,False,False,expiration,expiration
163,0.21,25,down,down,0.4181914000000688,0.8849482702996729,,psi_staircase,cRDM,,0.17564057705450492,0.18507186225744165,0.14287268995493388,875.2721695000009,1012,23,male,True,8752,8756,False,False,peak,expiration
164,0.21,25,up,up,0.2505139999993844,0.8179583225258191,,psi_staircase,cRDM,,0.16858558780896846,0.17800801575527078,0.14273851311119035,876.7721174999997,1012,23,male,True,8767,8770,False,False,expiration,trough
165,0.21,25,down,down,0.25049659999967844,1.7185507330060454,,psi_staircase,cRDM,,0.16231220591726775,0.17168874386025046,0.1420433344504624,879.1720142000003,1012,23,male,True,8791,8794,False,False,expiration,expiration
166,0.21,25,up,up,0.2505096999993839,1.624469902566101,,psi_staircase,cRDM,,0.1567495892546508,0.16605094807464965,0.14090446065987786,881.4719312999997,1012,23,male,True,8814,8817,False,False,expiration,expiration
167,0.21,25,down,down,0.3004301000000851,1.8778734015175045,,psi_staircase,cRDM,,0.1518279076299499,0.16103042417100707,0.13940711836030656,884.0385395999992,1012,23,male,True,8840,8843,False,False,expiration,expiration
168,0.21,25,up,up,0.5821395999992092,0.4456702900434538,,psi_staircase,cRDM,,0.14748438199384006,0.15656833989014396,0.13761109670166413,885.1552197999998,1012,23,male,True,8851,8857,False,False,expiration,expiration
169,0.21,25,down,down,0.5770157000006293,0.4455002491104788,,psi_staircase,cRDM,,0.14366533084914326,0.1526137298736132,0.1355575419369177,886.4383382999995,1012,23,male,True,8864,8870,False,False,inspiration,expiration
170,0.15,25,up,up,0.2837958999989496,1.7613834558698678,,psi_staircase,cRDM,,0.14032599279041266,0.1491237065612809,0.13327484058123032,889.0550479000003,1012,23,male,True,8890,8893,False,False,inspiration,inspiration
171,0.16,25,up,down,0.2338888999984192,1.4297141316553632,,psi_staircase,cRDM,,0.1344833900972787,0.14356323908560342,0.1375488516604918,891.1715675999994,1012,23,male,True,8911,8913,False,False,trough,inspiration
172,0.22,25,down,up,0.26716990000022633,1.1366440759784882,,psi_staircase,cRDM,,0.1507843864955931,0.1593882685047261,0.1303385212353584,892.9715148999994,1012,23,male,True,8929,8932,False,False,expiration,expiration
173,0.24,25,down,down,0.2838045999997121,0.8076508557560016,,psi_staircase,cRDM,,0.1654123756010278,0.1751235998032971,0.1471134309565396,894.4548210000003,1012,23,male,True,8944,8947,False,False,inspiration,inspiration
174,0.24,25,down,up,0.3671819000010146,1.660160592517397,,psi_staircase,cRDM,,0.16146951140484922,0.17107636573027954,0.14553235216044932,896.7880292000001,1012,23,male,True,8967,8971,False,False,expiration,inspiration
175,0.31,25,up,up,0.6077617000009923,1.9449943559004423,,psi_staircase,cRDM,,0.17979180190560556,0.18995679207117386,0.1539874425457916,899.4046007000006,1012,23,male,True,8993,8999,False,False,expiration,expiration
176,0.3,25,up,up,0.3671903000013117,0.6554977825613397,,psi_staircase,cRDM,,0.1764336187124649,0.1864825145509676,0.15222875235251784,900.9378533000007,1012,23,male,True,9009,9013,False,False,inspiration,inspiration
177,0.29,25,down,down,0.5275105000000622,0.4627174352001872,,psi_staircase,cRDM,,0.1732734597188668,0.1832102077639184,0.15052984742300882,902.0878497999993,1012,23,male,True,9020,9025,False,False,expiration,expiration
178,0.29,25,down,up,0.9406497999989368,0.6582636043474035,,psi_staircase,cRDM,,0.1702641751771285,0.18009395159489788,0.14890935521968698,903.5377086,1012,23,male,True,9035,9044,False,False,inspiration,expiration
179,0.32,25,down,up,0.5633957999998529,1.588928297357422,,psi_staircase,cRDM,,0.1893460519148288,0.19991083110255514,0.16004376803920228,906.3209966999992,1012,23,male,True,9062,9068,False,False,expiration,inspiration
180,0.34,25,up,down,0.2672029999994265,1.9338773032066152,,psi_staircase,cRDM,,0.21296934316466595,0.2242957343190088,0.17158127836054082,909.0875781000003,1012,23,male,True,9090,9093,False,False,trough,inspiration
181,0.36,25,up,up,0.3338710000007268,1.2588656961118527,,psi_staircase,cRDM,,0.2414200453224631,0.2533397651605234,0.1805694982315436,911.0208401000008,1012,23,male,True,9109,9112,False,False,inspiration,inspiration
182,0.35000000000000003,25,up,up,0.3671618000007584,1.58528409954666,,psi_staircase,cRDM,,0.2355321244117753,0.24739828425893284,0.17975812843309155,913.2707445000003,1012,23,male,True,9132,9136,False,False,expiration,expiration
183,98.0,25,F,down,0.9083276000001206,1.071039520239231,,experiment,emotion,0.0,,,,924.4870332,1012,23,male,True,9244,9253,False,False,expiration,expiration
184,74.0,25,M,down,0.5274886000006518,0.4930434724292256,,experiment,emotion,0.0,,,,926.1869453000007,1012,23,male,True,9261,9266,False,False,trough,inspiration
185,90.0,25,F,down,0.6191488999993453,1.1718295495975275,,experiment,emotion,0.0,,,,928.1702235000004,1012,23,male,True,9281,9287,False,False,expiration,expiration
186,98.0,25,M,up,0.5568843000000925,1.6066602844371398,,experiment,emotion,0.0,,,,930.6534502999992,1012,23,male,True,9306,9312,False,False,expiration,expiration
187,90.0,25,F,down,0.8179646999997203,1.1260304980453142,,experiment,emotion,0.0,,,,932.6033865,1012,23,male,True,9325,9333,False,False,trough,inspiration
188,82.0,25,F,down,0.41675820000091335,0.483677128150059,,experiment,emotion,0.0,,,,934.1866794999997,1012,23,male,True,9341,9345,False,False,expiration,expiration
189,74.0,25,M,down,0.5234373999992386,1.8973528138492133,,experiment,emotion,0.0,,,,936.7699046999996,1012,23,male,True,9367,9372,False,False,expiration,expiration
190,82.0,25,F,down,0.5045974999993632,1.3551744752983592,,experiment,emotion,0.0,,,,938.9197882,1012,23,male,True,9389,9394,False,False,inspiration,peak
191,98.0,25,M,down,0.6652657000013278,1.0122063187707224,,experiment,emotion,0.0,,,,940.7030870000008,1012,23,male,True,9406,9413,False,False,expiration,expiration
192,82.0,25,M,up,0.76339039999948,1.9023103506478105,,experiment,emotion,0.0,,,,943.5529842999997,1012,23,male,True,9435,9443,False,False,expiration,expiration
193,90.0,25,F,down,1.4248281000000134,0.8753728068841942,,experiment,emotion,0.0,,,,945.4695640000001,1012,23,male,True,9454,9468,False,False,inspiration,expiration
194,98.0,25,M,down,0.693529000000126,0.6906023302078133,,experiment,emotion,0.0,,,,947.8528286000011,1012,23,male,True,9478,9485,False,False,expiration,inspiration
195,90.0,25,M,down,0.4602575000008074,1.0240621356242496,,experiment,emotion,0.0,,,,949.8360810000003,1012,23,male,True,9498,9503,False,False,expiration,expiration
196,74.0,25,M,down,0.5473643000004813,0.9151761340568512,,experiment,emotion,0.0,,,,951.4860345000006,1012,23,male,True,9514,9519,False,False,inspiration,peak
197,82.0,25,F,down,0.3668440000001283,0.9107492578197548,,experiment,emotion,0.0,,,,953.2026152000008,1012,23,male,True,9531,9535,False,False,inspiration,inspiration
198,74.0,25,F,down,0.5181628000009368,0.42521736627516654,,experiment,emotion,0.0,,,,954.3191959000003,1012,23,male,True,9543,9548,False,False,inspiration,peak
199,98.0,25,M,down,0.3168327000003046,1.0600547532499214,,experiment,emotion,0.0,,,,956.1691886,1012,23,male,True,9561,9564,False,False,expiration,expiration
200,74.0,25,M,down,0.416792500000156,1.4171411488905514,,experiment,emotion,0.0,,,,958.2857687000003,1012,23,male,True,9582,9586,False,False,expiration,expiration
201,90.0,25,F,down,0.5102938999989419,0.9063644213604154,,experiment,emotion,0.0,,,,959.8690620999997,1012,23,male,True,9598,9603,False,False,trough,inspiration
202,90.0,25,F,up,0.7814911000004939,1.6594737265242148,,experiment,emotion,0.0,,,,962.3188832000003,1012,23,male,True,9623,9631,False,False,expiration,expiration
203,82.0,25,M,up,0.4571290000003501,0.5848261273200602,,experiment,emotion,0.0,,,,963.9522363999997,1012,23,male,True,9639,9644,False,False,inspiration,expiration
204,82.0,25,F,down,0.2501957999993465,1.3286777610877043,,experiment,emotion,0.0,,,,966.0021478999997,1012,23,male,True,9659,9662,False,False,trough,inspiration
205,74.0,25,M,down,0.3668605000002572,1.6081427910896011,,experiment,emotion,0.0,,,,968.2854166999997,1012,23,male,True,9682,9686,False,False,expiration,expiration
206,98.0,25,F,down,0.3835428000002139,1.71174872297533,,experiment,emotion,0.0,,,,970.6853201000004,1012,23,male,True,9706,9710,False,False,expiration,expiration
207,90.0,25,F,down,0.36686329999974987,0.7688781822418697,,experiment,emotion,0.0,,,,972.1352737999997,1012,23,male,True,9721,9725,False,False,inspiration,inspiration
208,74.0,25,M,down,0.30025179999938695,0.6353263506596017,,experiment,emotion,0.0,,,,973.4518914000008,1012,23,male,True,9734,9737,False,False,expiration,expiration
209,98.0,25,M,down,0.3334371999990253,1.8653644175078168,,experiment,emotion,0.0,,,,975.9851365000003,1012,23,male,True,9759,9762,False,False,expiration,expiration
210,98.0,25,F,down,0.531262999998944,0.6562224743851541,,experiment,emotion,0.0,,,,977.3350779000003,1012,23,male,True,9773,9778,False,False,expiration,inspiration
211,82.0,25,M,down,0.6564119000013307,1.9248023230410638,,experiment,emotion,0.0,,,,980.0849831000003,1012,23,male,True,9800,9807,False,False,expiration,trough
212,74.0,25,F,down,0.366790599999149,1.8453219370217533,,experiment,emotion,0.0,,,,982.8682744000008,1012,23,male,True,9828,9832,False,False,expiration,expiration
213,82.0,25,M,down,0.3168325999995432,1.5741949758943536,,experiment,emotion,0.0,,,,985.1348007999997,1012,23,male,True,9851,9854,False,False,expiration,expiration
214,90.0,25,F,down,0.31690619999972114,1.2710706155838256,,experiment,emotion,0.0,,,,987.1179856999997,1012,23,male,True,9871,9874,False,False,inspiration,expiration
215,74.0,25,M,down,0.4960127999984252,0.3503889495268586,,experiment,emotion,0.0,,,,988.1513538999997,1012,23,male,True,9881,9886,False,False,expiration,expiration
216,98.0,25,F,down,0.23345899999912945,1.7164226257513815,,experiment,emotion,0.0,,,,990.6512723999997,1012,23,male,True,9906,9908,False,False,expiration,expiration
217,90.0,25,M,down,0.28356280000116385,0.8927912928879219,,experiment,emotion,0.0,,,,992.2178200000008,1012,23,male,True,9922,9925,False,False,inspiration,inspiration
218,98.0,25,F,down,0.33347649999996065,1.2323104126754325,,experiment,emotion,0.0,,,,994.1511581000003,1012,23,male,True,9941,9944,False,False,expiration,expiration
219,74.0,25,M,down,0.8843530000012834,0.8511146142614896,,experiment,emotion,0.0,,,,995.7010543000006,1012,23,male,True,9956,9965,False,False,inspiration,expiration
220,90.0,25,F,up,0.6653948999992281,1.6459858431221983,,experiment,emotion,0.0,,,,998.5009748000003,1012,23,male,True,9984,9991,False,False,inspiration,expiration
221,82.0,25,M,up,1.2091360000013085,0.3867810793966829,,experiment,emotion,0.0,,,,999.8342598999997,1012,23,male,True,9998,10010,False,False,expiration,inspiration
222,82.0,25,F,up,0.8095589000004111,1.581142568581439,,experiment,emotion,0.0,,,,1002.9007974000006,1012,23,male,True,10028,10036,False,False,expiration,expiration
223,90.0,25,F,up,1.2076231999999436,0.6589853923938663,,experiment,emotion,0.0,,,,1004.650737500001,1012,23,male,True,10046,10058,False,False,inspiration,expiration
224,98.0,25,M,up,0.9563267000012274,0.5916776411667721,,experiment,emotion,0.0,,,,1006.7340178000003,1012,23,male,True,10067,10077,False,False,expiration,inspiration
225,82.0,25,F,up,0.745803400001023,0.6529451829821249,,experiment,emotion,0.0,,,,1008.6005974000008,1012,23,male,True,10085,10092,False,False,expiration,expiration
226,74.0,25,M,down,0.8871321000005992,0.44483475622466384,,experiment,emotion,0.0,,,,1010.0672244999997,1012,23,male,True,10100,10109,False,False,trough,peak
227,74.0,25,M,down,0.31686359999912384,1.3839653350427874,,experiment,emotion,0.0,,,,1012.6171026000003,1012,23,male,True,10126,10129,False,False,inspiration,inspiration
228,82.0,25,F,down,0.30019369999899936,1.5864517790238395,,experiment,emotion,0.0,,,,1014.8836994000003,1012,23,male,True,10148,10151,False,False,expiration,expiration
229,98.0,25,F,down,0.6127221000006102,1.2118646263440922,,experiment,emotion,0.0,,,,1016.7836337,1012,23,male,True,10167,10173,False,False,expiration,expiration
230,90.0,25,M,down,0.3501176999998279,1.482421398704996,,experiment,emotion,0.0,,,,1019.1668884,1012,23,male,True,10191,10195,False,False,inspiration,inspiration
231,74.0,25,F,down,0.4648568000011437,0.5788494527933843,,experiment,emotion,0.0,,,,1020.4335029000003,1012,23,male,True,10204,10209,False,False,expiration,expiration
232,98.0,25,M,down,0.2835120999989158,1.72486643033388,,experiment,emotion,0.0,,,,1022.8834116000007,1012,23,male,True,10228,10231,False,False,inspiration,expiration
233,90.0,25,M,down,0.2501861000000645,1.3693119610321731,,experiment,emotion,0.0,,,,1024.9333397,1012,23,male,True,10249,10252,False,False,inspiration,inspiration
234,90.0,25,M,down,0.1835148999998637,1.6075167193430908,,experiment,emotion,0.0,,,,1027.2165682999994,1012,23,male,True,10272,10274,False,False,inspiration,inspiration
235,74.0,25,M,down,0.5485283999987587,0.6937238109794611,,experiment,emotion,0.0,,,,1028.5998664000008,1012,23,male,True,10285,10290,False,False,expiration,expiration
236,82.0,25,M,down,0.3502119000004313,0.7782225430780803,,experiment,emotion,0.0,,,,1030.1997882000003,1012,23,male,True,10301,10305,False,False,expiration,inspiration
237,98.0,25,F,up,0.8645792999996047,0.3079163666942246,,experiment,emotion,0.0,,,,1031.1997820000006,1012,23,male,True,10311,10320,False,False,inspiration,expiration
238,82.0,25,F,down,0.8999781999991683,1.0400450514233623,,experiment,emotion,0.0,,,,1033.3663888,1012,23,male,True,10333,10342,False,False,inspiration,expiration
239,82.0,25,F,up,0.8027850999988004,0.7703215856638319,,experiment,emotion,0.0,,,,1035.2996133999998,1012,23,male,True,10352,10360,False,False,expiration,inspiration
240,82.0,25,M,up,0.8194956999996066,1.1991344692731896,,experiment,emotion,0.0,,,,1037.5828666999996,1012,23,male,True,10375,10383,False,False,expiration,expiration
241,98.0,25,F,up,0.7903161999984151,1.7309522064294645,,experiment,emotion,0.0,,,,1040.4161369000003,1012,23,male,True,10403,10411,False,False,expiration,expiration
242,90.0,25,F,down,1.0560306000006676,1.0020922209486136,,experiment,emotion,0.0,,,,1042.499369600001,1012,23,male,True,10424,10435,False,False,inspiration,expiration
243,74.0,25,F,down,0.41772409999975935,1.5814685492548513,,experiment,emotion,0.0,,,,1045.4326434000004,1012,23,male,True,10454,10458,False,False,inspiration,expiration
244,74.0,25,M,up,0.4168611999994027,0.6140842185540549,,experiment,emotion,0.0,,,,1046.7325381,1012,23,male,True,10467,10471,False,False,expiration,expiration
245,90.0,25,F,up,1.0936237000005349,1.888888108432793,,experiment,emotion,0.0,,,,1049.3157218999997,1012,23,male,True,10493,10504,False,False,expiration,expiration
246,98.0,25,M,up,0.7088113999998313,1.147152550546341,,experiment,emotion,0.0,,,,1051.8156023,1012,23,male,True,10518,10525,False,False,inspiration,expiration
247,98.0,25,M,down,0.7364073999997345,0.6111353944851001,,experiment,emotion,0.0,,,,1053.3989497999999,1012,23,male,True,10533,10540,False,False,expiration,inspiration
248,74.0,25,F,down,0.94455089999974,1.6044538559199246,,experiment,emotion,0.0,,,,1055.998850500001,1012,23,male,True,10559,10568,False,False,expiration,expiration
249,98.0,25,M,up,0.7336169999998674,1.8835845947689915,,experiment,emotion,0.0,,,,1059.0987455000004,1012,23,male,True,10590,10597,False,False,expiration,expiration
250,82.0,25,F,down,0.3334340000001248,1.9859381497495832,,experiment,emotion,0.0,,,,1062.0986629000008,1012,23,male,True,10620,10623,False,False,expiration,expiration
251,90.0,25,M,down,0.9860932999999932,0.4336882548826281,,experiment,emotion,0.0,,,,1063.2152560999994,1012,23,male,True,10632,10642,False,False,inspiration,expiration
252,82.0,25,F,up,0.8549024000003556,1.5800030889164651,,experiment,emotion,0.0,,,,1066.0485029,1012,23,male,True,10660,10669,False,False,inspiration,peak
253,74.0,25,M,down,0.5999341000006098,0.5716050172432537,,experiment,emotion,0.0,,,,1067.7484336000007,1012,23,male,True,10677,10683,False,False,expiration,expiration
254,90.0,25,F,down,0.6433904000004986,0.305222955149654,,experiment,emotion,0.0,,,,1068.9150314000008,1012,23,male,True,10688,10694,False,False,inspiration,inspiration
255,82.0,25,F,down,0.4850504999994882,1.6073509860879247,,experiment,emotion,0.0,,,,1071.4483157000002,1012,23,male,True,10714,10719,False,False,expiration,expiration
256,90.0,25,F,down,0.4764895000007528,1.3673519163702197,,experiment,emotion,0.0,,,,1073.5648752999996,1012,23,male,True,10735,10740,False,False,expiration,expiration
257,74.0,25,F,down,0.2501315000008617,1.4635913146652082,,experiment,emotion,0.0,,,,1075.7814585000006,1012,23,male,True,10757,10760,False,False,inspiration,peak
258,98.0,25,F,down,0.21684479999930767,1.2335863688879485,,experiment,emotion,0.0,,,,1077.6980663000004,1012,23,male,True,10776,10778,False,False,inspiration,inspiration
259,90.0,25,M,down,0.7613992000005965,1.3044784658968418,,experiment,emotion,0.0,,,,1079.6979689000011,1012,23,male,True,10796,10804,False,False,expiration,expiration
260,98.0,25,M,down,0.31684150000000955,1.798774185484474,,experiment,emotion,0.0,,,,1082.5145339,1012,23,male,True,10825,10828,False,False,expiration,expiration
261,74.0,25,M,down,0.2836016000001109,1.0621666510166259,,experiment,emotion,0.0,,,,1084.2478271000011,1012,23,male,True,10842,10845,False,False,inspiration,inspiration
262,82.0,25,M,down,0.2835231999997632,1.5231683901008874,,experiment,emotion,0.0,,,,1086.4644072,1012,23,male,True,10864,10867,False,False,expiration,expiration
263,0.2300644228992643,25,up,up,0.656059599999935,1.2293356813356648,,experiment,cRDM,0.0,,,,1162.778271,1012,23,male,True,11627,11634,False,False,expiration,expiration
264,0.2300644228992643,25,up,down,0.5951740999989852,1.5856399080363537,,experiment,cRDM,0.0,,,,1165.2781974000002,1012,23,male,True,11652,11658,False,False,inspiration,expiration
265,0.2300644228992643,25,down,down,0.5239533000003576,1.6777811843812205,,experiment,cRDM,0.0,,,,1167.8114237,1012,23,male,True,11677,11682,False,False,inspiration,inspiration
266,0.2300644228992643,25,down,down,0.6297076000009838,1.8424189327890104,,experiment,cRDM,0.0,,,,1170.4446841,1012,23,male,True,11704,11710,False,False,inspiration,expiration
267,0.2300644228992643,25,up,up,0.4167775999994774,0.6092777799610589,,experiment,cRDM,0.0,,,,1171.9446356,1012,23,male,True,11719,11723,False,False,expiration,expiration
268,0.2300644228992643,25,down,down,0.4836036000015156,1.2002977181628345,,experiment,cRDM,0.0,,,,1173.8277640999995,1012,23,male,True,11738,11743,False,False,expiration,expiration
269,0.2300644228992643,25,up,up,0.4669336999995721,1.6303126058110289,,experiment,cRDM,0.0,,,,1176.194440100001,1012,23,male,True,11761,11766,False,False,inspiration,expiration
270,0.2300644228992643,25,up,down,0.6192055999999866,0.6717269532811598,,experiment,cRDM,0.0,,,,1177.5943720000005,1012,23,male,True,11775,11781,False,False,expiration,expiration
271,0.2300644228992643,25,down,down,0.4331792000011774,1.7148647936082766,,experiment,cRDM,0.0,,,,1180.1942781000007,1012,23,male,True,11801,11805,False,True,expiration,inspiration
272,0.2300644228992643,25,down,down,0.6131727000010869,1.1447756242885865,,experiment,cRDM,0.0,,,,1182.0442599000007,1012,23,male,True,11820,11826,True,True,expiration,trough
273,0.2300644228992643,25,down,up,0.6094943999996758,0.5361272661062016,,experiment,cRDM,0.0,,,,1183.4608548000006,1012,23,male,True,11834,11840,True,True,inspiration,expiration
274,0.2300644228992643,25,down,up,0.6949455000012676,0.39885088778850986,,experiment,cRDM,0.0,,,,1184.7274275999996,1012,23,male,True,11847,11854,True,True,expiration,expiration
275,0.2300644228992643,25,down,down,0.26712119999865536,1.9357160343659503,,experiment,cRDM,0.0,,,,1187.6273902000005,1012,23,male,True,11876,11879,False,False,inspiration,inspiration
276,0.2300644228992643,25,down,down,0.267198700001245,1.8055213080804495,,experiment,cRDM,0.0,,,,1190.1272271000007,1012,23,male,True,11901,11904,False,False,expiration,expiration
277,0.2300644228992643,25,up,up,0.26720449999993434,1.313257182337335,,experiment,cRDM,0.0,,,,1192.1271253000004,1012,23,male,True,11921,11924,False,False,inspiration,expiration
278,0.2300644228992643,25,up,up,0.3838300999996136,1.0449265021227094,,experiment,cRDM,0.0,,,,1193.8438221999995,1012,23,male,True,11938,11942,False,False,expiration,expiration
279,0.2300644228992643,25,up,up,0.4604110000000219,1.5065038327321123,,experiment,cRDM,0.0,,,,1196.0269579999995,1012,23,male,True,11960,11965,False,False,expiration,expiration
280,0.2300644228992643,25,up,up,0.3505078999987745,1.7203597501267969,,experiment,cRDM,0.0,,,,1198.4769762000005,1012,23,male,True,11984,11988,False,False,inspiration,expiration
281,0.2300644228992643,25,down,down,0.5301503999999113,1.8106057068426418,,experiment,cRDM,0.0,,,,1200.9602170999995,1012,23,male,True,12009,12014,False,False,inspiration,expiration
282,0.2300644228992643,25,up,up,0.28384469999946305,0.5450536616323192,,experiment,cRDM,0.0,,,,1202.293491200001,1012,23,male,True,12022,12025,False,False,expiration,expiration
283,0.2300644228992643,25,up,up,0.5406798999993043,1.901745687133168,,experiment,cRDM,0.0,,,,1204.8767158,1012,23,male,True,12048,12053,False,False,expiration,expiration
284,0.2300644228992643,25,down,down,0.4597515000004933,0.9339263183921483,,experiment,cRDM,0.0,,,,1206.6266956999998,1012,23,male,True,12066,12071,False,False,expiration,expiration
285,0.2300644228992643,25,up,up,0.26708400000097754,1.6137798620508568,,experiment,cRDM,0.0,,,,1208.959914,1012,23,male,True,12089,12092,False,False,expiration,expiration
286,0.2300644228992643,25,down,down,0.26722569999947154,0.8382404616059222,,experiment,cRDM,0.0,,,,1210.476517600001,1012,23,male,True,12104,12107,False,False,inspiration,inspiration
287,0.2300644228992643,25,down,down,0.4642345000011119,0.5292521270104856,,experiment,cRDM,0.0,,,,1211.6931620000005,1012,23,male,True,12116,12121,False,False,expiration,expiration
288,0.2300644228992643,25,up,down,0.31715170000097714,0.761482632624348,,experiment,cRDM,0.0,,,,1213.1764216,1012,23,male,True,12131,12134,False,False,expiration,inspiration
289,0.2300644228992643,25,up,up,0.25050000000010186,0.7795776811578076,,experiment,cRDM,0.0,,,,1214.626369300001,1012,23,male,True,12146,12149,False,False,expiration,expiration
290,0.2300644228992643,25,down,up,0.28359220000129426,1.6521055037443484,,experiment,cRDM,0.0,,,,1216.9429761,1012,23,male,True,12169,12172,False,False,inspiration,inspiration
291,0.2300644228992643,25,up,down,0.3171662000004289,1.110977245668689,,experiment,cRDM,0.0,,,,1218.7595339999998,1012,23,male,True,12187,12190,False,False,expiration,expiration
292,0.2300644228992643,25,down,up,0.4003300999993371,0.974405470227642,,experiment,cRDM,0.0,,,,1220.4261918000002,1012,23,male,True,12204,12208,False,False,inspiration,inspiration
293,0.2300644228992643,25,down,up,0.5762247000002391,0.3191344502600647,,experiment,cRDM,0.0,,,,1221.4261464,1012,23,male,True,12214,12220,False,False,expiration,expiration
294,0.2300644228992643,25,down,up,0.3337831000008009,1.560435298107998,,experiment,cRDM,0.0,,,,1223.826053400001,1012,23,male,True,12238,12241,False,False,inspiration,expiration
295,0.2300644228992643,25,up,up,0.4614206999995076,1.0716813359975021,,experiment,cRDM,0.0,,,,1225.5759718,1012,23,male,True,12255,12260,False,False,expiration,expiration
296,0.2300644228992643,25,up,down,0.4504460999996809,0.7245932159743853,,experiment,cRDM,0.0,,,,1227.0259527999995,1012,23,male,True,12270,12275,False,False,inspiration,expiration
297,0.2300644228992643,25,up,up,0.5692656999999599,0.6835090157030861,,experiment,cRDM,0.0,,,,1228.4091749000008,1012,23,male,True,12283,12289,False,False,expiration,expiration
298,0.2300644228992643,25,down,down,0.4696186000001034,1.7826352964338084,,experiment,cRDM,0.0,,,,1231.0257585999998,1012,23,male,True,12310,12315,False,False,expiration,expiration
299,0.2300644228992643,25,down,down,0.5193103999990853,0.8870575999393022,,experiment,cRDM,0.0,,,,1232.6590282000004,1012,23,male,True,12326,12331,False,False,inspiration,inspiration
300,0.2300644228992643,25,up,up,0.4390446999987033,1.112151689573187,,experiment,cRDM,0.0,,,,1234.5423375,1012,23,male,True,12345,12349,False,False,expiration,expiration
301,0.2300644228992643,25,down,down,0.4265164000007644,1.7254972515449127,,experiment,cRDM,0.0,,,,1236.9588910999998,1012,23,male,True,12369,12373,False,False,expiration,expiration
302,0.2300644228992643,25,up,up,0.3837605999997322,1.9655028381790447,,experiment,cRDM,0.0,,,,1239.6255100999995,1012,23,male,True,12396,12400,False,False,expiration,expiration
303,0.2300644228992643,25,up,up,0.400298999998995,0.5972040519145551,,experiment,cRDM,0.0,,,,1240.9086237,1012,23,male,True,12409,12413,False,False,expiration,expiration
304,0.2300644228992643,25,up,up,0.2671184999999241,0.7434379665358046,,experiment,cRDM,0.0,,,,1242.3253861000005,1012,23,male,True,12423,12426,False,False,inspiration,inspiration
305,0.2300644228992643,25,down,up,0.2504309999985708,0.6309297640038729,,experiment,cRDM,0.0,,,,1243.6253499999993,1012,23,male,True,12436,12439,False,False,expiration,expiration
306,0.2300644228992643,25,down,down,0.4420943999994051,0.6128424122480907,,experiment,cRDM,0.0,,,,1244.9252836000005,1012,23,male,True,12449,12453,False,False,inspiration,inspiration
307,0.2300644228992643,25,up,up,0.3171442999991996,1.2175437929645936,,experiment,cRDM,0.0,,,,1246.8418522000004,1012,23,male,True,12468,12471,False,False,expiration,expiration
308,0.2300644228992643,25,down,down,0.35056309999890806,1.784317435459382,,experiment,cRDM,0.0,,,,1249.3083697999998,1012,23,male,True,12493,12497,False,False,expiration,expiration
309,0.2300644228992643,25,down,down,0.4168267000004562,1.7002592212441945,,experiment,cRDM,0.0,,,,1251.6750077999995,1012,23,male,True,12516,12520,False,False,peak,expiration
310,0.2300644228992643,25,up,up,0.4448057000008703,1.6387490584237925,,experiment,cRDM,0.0,,,,1253.9915694,1012,23,male,True,12539,12543,False,False,inspiration,expiration
311,0.2300644228992643,25,up,up,0.4315301999995427,1.3623933055019335,,experiment,cRDM,0.0,,,,1256.0748482999998,1012,23,male,True,12560,12564,False,False,inspiration,inspiration
312,0.2300644228992643,25,down,up,0.3171578999990743,0.7043208342050242,,experiment,cRDM,0.0,,,,1257.4748000000009,1012,23,male,True,12574,12577,False,False,expiration,expiration
313,0.2300644228992643,25,up,up,0.4903048999985913,1.30911019800281,,experiment,cRDM,0.0,,,,1259.4580603999993,1012,23,male,True,12594,12599,False,False,inspiration,expiration
314,0.2300644228992643,25,down,down,0.4569940999990649,0.9356392604276824,,experiment,cRDM,0.0,,,,1261.1413655000003,1012,23,male,True,12611,12616,False,False,expiration,expiration
315,0.2300644228992643,25,down,down,0.4373059999998077,1.2069057724816927,,experiment,cRDM,0.0,,,,1263.0580037999996,1012,23,male,True,12630,12634,False,False,expiration,expiration
316,0.2300644228992643,25,down,down,0.3838674000016909,1.1710329473871761,,experiment,cRDM,0.0,,,,1264.9411824000008,1012,23,male,True,12649,12653,False,False,inspiration,inspiration
317,0.2300644228992643,25,up,up,0.4168328999985533,0.7329578549171302,,experiment,cRDM,0.0,,,,1266.3578024000008,1012,23,male,True,12663,12667,False,False,expiration,expiration
318,0.2300644228992643,25,up,up,0.3505053000008047,0.4600747138459096,,experiment,cRDM,0.0,,,,1267.4910876999993,1012,23,male,True,12674,12678,False,False,expiration,expiration
319,0.2300644228992643,25,down,down,0.5253484000004391,1.6244735558509116,,experiment,cRDM,0.0,,,,1269.7910024000005,1012,23,male,True,12697,12702,False,False,expiration,expiration
320,0.2300644228992643,25,down,up,0.3671297999990202,1.7070987494840892,,experiment,cRDM,0.0,,,,1272.2909252,1012,23,male,True,12722,12726,False,False,peak,expiration
321,0.2300644228992643,25,up,up,0.3671589000005042,1.1218229208018238,,experiment,cRDM,0.0,,,,1274.0908272000004,1012,23,male,True,12740,12744,False,False,expiration,inspiration
322,0.2300644228992643,25,up,up,0.25054029999955674,0.7095891312542966,,experiment,cRDM,0.0,,,,1275.4741299000007,1012,23,male,True,12754,12757,False,False,expiration,expiration
323,0.2300644228992643,25,up,up,0.3838230999990628,1.5236424884530824,,experiment,cRDM,0.0,,,,1277.6740523,1012,23,male,True,12776,12780,False,False,inspiration,inspiration
324,0.2300644228992643,25,up,up,0.26714109999920765,1.4828675662608275,,experiment,cRDM,0.0,,,,1279.840640200001,1012,23,male,True,12798,12801,False,False,expiration,inspiration
325,0.2300644228992643,25,up,up,0.31716339999911725,0.4356927753911921,,experiment,cRDM,0.0,,,,1280.9572562000005,1012,23,male,True,12809,12812,False,False,peak,expiration
326,0.2300644228992643,25,down,up,0.2838135000001785,1.8342337622390728,,experiment,cRDM,0.0,,,,1283.4738461999996,1012,23,male,True,12834,12837,False,False,inspiration,expiration
327,0.2300644228992643,25,down,down,0.3504631000014342,0.3082772070183412,,experiment,cRDM,0.0,,,,1284.4571600999998,1012,23,male,True,12844,12848,False,False,expiration,expiration
328,0.2300644228992643,25,up,up,0.3171485000002576,1.7671765964918786,,experiment,cRDM,0.0,,,,1286.8903911999996,1012,23,male,True,12868,12871,False,False,expiration,expiration
329,0.2300644228992643,25,down,up,0.3005967999997665,1.2293318337171366,,experiment,cRDM,0.0,,,,1288.7902994999995,1012,23,male,True,12888,12891,False,False,inspiration,inspiration
330,0.2300644228992643,25,down,down,0.3005062000011094,1.3520325288115975,,experiment,cRDM,0.0,,,,1290.8068219000004,1012,23,male,True,12908,12911,False,False,expiration,expiration
331,0.2300644228992643,25,down,down,0.33381890000055137,1.7635215393235524,,experiment,cRDM,0.0,,,,1293.2568101999996,1012,23,male,True,12932,12935,False,False,expiration,expiration
332,0.2300644228992643,25,up,down,0.28392170000006445,1.061938565864091,,experiment,cRDM,0.0,,,,1295.0066474999996,1012,23,male,True,12950,12953,False,False,inspiration,inspiration
333,0.2300644228992643,25,down,up,0.3171948999988672,0.31188606252167045,,experiment,cRDM,0.0,,,,1296.0066909999996,1012,23,male,True,12960,12963,False,False,expiration,expiration
334,0.2300644228992643,25,down,down,0.2838780000001861,0.4631039890532779,,experiment,cRDM,0.0,,,,1297.140006300001,1012,23,male,True,12971,12974,False,False,expiration,trough
335,0.2300644228992643,25,down,down,0.3004729000003863,1.540976935978683,,experiment,cRDM,0.0,,,,1299.3566050000002,1012,23,male,True,12993,12996,False,False,expiration,expiration
336,0.2300644228992643,25,up,down,0.28382420000161795,1.3639797138013074,,experiment,cRDM,0.0,,,,1301.406516,1012,23,male,True,13014,13017,False,False,expiration,expiration
337,0.2300644228992643,25,up,up,0.33379969999987225,0.7699458370115964,,experiment,cRDM,0.0,,,,1302.8564806000004,1012,23,male,True,13028,13031,False,False,expiration,trough
338,0.2300644228992643,25,down,down,0.5533273000000918,0.9756735442266198,,experiment,cRDM,0.0,,,,1304.5230913000005,1012,23,male,True,13045,13051,False,False,expiration,expiration
339,0.2300644228992643,25,up,up,0.4002529999997933,1.2930085855971227,,experiment,cRDM,0.0,,,,1306.6396730999995,1012,23,male,True,13066,13070,False,False,inspiration,inspiration
340,0.2300644228992643,25,down,down,0.3171096999994916,0.7086210497259952,,experiment,cRDM,0.0,,,,1308.0229659000004,1012,23,male,True,13080,13083,False,False,expiration,expiration
341,0.2300644228992643,25,up,up,0.13382369999999355,1.5609974228829178,,experiment,cRDM,0.0,,,,1310.2561837999992,1012,23,male,True,13102,13103,False,False,expiration,expiration
342,0.2300644228992643,25,up,up,0.7202136000014434,0.36190370914474257,,experiment,cRDM,0.0,,,,1311.3061576000011,1012,23,male,True,13113,13120,False,False,expiration,inspiration
343,98.0,25,M,down,0.9365835000007792,1.0407501788692504,,experiment,emotion,1.0,,,,1319.0558651,1012,23,male,True,13190,13199,False,False,expiration,expiration
344,74.0,25,M,down,0.6879085999989911,0.487242749697425,,experiment,emotion,1.0,,,,1320.772470500001,1012,23,male,True,13207,13214,False,False,inspiration,expiration
345,90.0,25,F,down,1.2287022999989858,1.8153995075519764,,experiment,emotion,1.0,,,,1323.5556963000008,1012,23,male,True,13235,13247,False,False,inspiration,expiration
346,98.0,25,F,down,0.8537202999996225,1.2097164688983426,,experiment,emotion,1.0,,,,1326.2556221999996,1012,23,male,True,13262,13271,False,False,inspiration,peak
347,90.0,25,M,up,0.7865098000002035,0.9074948409640268,,experiment,emotion,1.0,,,,1328.288849900001,1012,23,male,True,13282,13290,False,False,expiration,expiration
348,82.0,25,F,down,0.8812589999997726,0.7418593792206429,,experiment,emotion,1.0,,,,1330.1221231999998,1012,23,male,True,13301,13310,False,False,inspiration,expiration
349,74.0,25,M,up,0.9026466999985132,0.7067027381331861,,experiment,emotion,1.0,,,,1331.9887310999993,1012,23,male,True,13319,13328,False,False,trough,inspiration
350,82.0,25,M,down,0.6864105999993626,1.165856888315948,,experiment,emotion,1.0,,,,1334.3219758000005,1012,23,male,True,13343,13350,False,False,expiration,trough
351,98.0,25,F,up,0.6004477000005863,0.4451890938759926,,experiment,emotion,1.0,,,,1335.7219295999996,1012,23,male,True,13357,13363,False,False,inspiration,expiration
352,82.0,25,F,down,0.3834046000010858,1.8429297545387233,,experiment,emotion,1.0,,,,1338.4218547000012,1012,23,male,True,13384,13388,False,False,inspiration,inspiration
353,90.0,25,F,up,1.0899382999996303,0.5157265920228853,,experiment,emotion,1.0,,,,1339.6384399000008,1012,23,male,True,13396,13407,False,False,expiration,expiration
354,98.0,25,F,up,1.2273666000000958,0.7962597155245266,,experiment,emotion,1.0,,,,1341.8050207000006,1012,23,male,True,13418,13430,False,False,inspiration,expiration
355,90.0,25,F,up,0.8548176000003878,1.9819187120488504,,experiment,emotion,1.0,,,,1345.2715667000002,1012,23,male,True,13452,13461,False,False,expiration,expiration
356,74.0,25,F,up,0.7022542000013345,0.9875566591327858,,experiment,emotion,1.0,,,,1347.3881455,1012,23,male,True,13473,13480,False,False,inspiration,peak
357,82.0,25,M,up,0.9180276000006417,1.9642344140784576,,experiment,emotion,1.0,,,,1350.3213798000004,1012,23,male,True,13503,13512,False,False,inspiration,expiration
358,74.0,25,M,down,0.4850719999994908,1.0728320867655143,,experiment,emotion,1.0,,,,1352.5712945999996,1012,23,male,True,13525,13530,False,False,inspiration,inspiration
359,98.0,25,M,down,0.3168441999987408,1.206422562566295,,experiment,emotion,1.0,,,,1354.5379005999996,1012,23,male,True,13545,13548,False,False,expiration,expiration
360,74.0,25,M,down,0.2501990999990085,1.315670729148897,,experiment,emotion,1.0,,,,1356.5378195999992,1012,23,male,True,13565,13568,False,False,expiration,expiration
361,90.0,25,F,down,0.25018030000137514,1.9684601294108524,,experiment,emotion,1.0,,,,1359.2043722000008,1012,23,male,True,13592,13595,False,False,peak,expiration
362,90.0,25,M,down,0.33358279999993107,0.4460425104418371,,experiment,emotion,1.0,,,,1360.3209567000004,1012,23,male,True,13603,13606,False,False,expiration,expiration
363,82.0,25,M,up,0.4302059000001464,1.0699380983037856,,experiment,emotion,1.0,,,,1362.1042764999993,1012,23,male,True,13621,13625,False,False,expiration,expiration
364,82.0,25,F,down,0.5655392000007851,1.7158682573776398,,experiment,emotion,1.0,,,,1364.5208685000007,1012,23,male,True,13645,13651,False,False,inspiration,expiration
365,74.0,25,M,up,0.2001780999999028,1.8576796760306191,,experiment,emotion,1.0,,,,1367.2207709000004,1012,23,male,True,13672,13674,False,False,inspiration,expiration
366,98.0,25,F,up,0.7167048000010254,0.6052894483327476,,experiment,emotion,1.0,,,,1368.5207137000007,1012,23,male,True,13685,13692,False,False,expiration,trough
367,90.0,25,F,down,0.830396400000609,1.8849012527110829,,experiment,emotion,1.0,,,,1371.4039853000004,1012,23,male,True,13714,13722,False,False,expiration,expiration
368,74.0,25,M,down,0.7106046999997488,1.2093880403148147,,experiment,emotion,1.0,,,,1373.7037867000008,1012,23,male,True,13737,13744,False,False,expiration,expiration
369,98.0,25,M,up,0.6379585999984556,0.9917163263454838,,experiment,emotion,1.0,,,,1375.6704617000007,1012,23,male,True,13756,13762,False,False,inspiration,inspiration
370,98.0,25,F,down,0.9304031000010582,1.4642488931399675,,experiment,emotion,1.0,,,,1378.0370295000002,1012,23,male,True,13780,13789,False,False,expiration,inspiration
371,82.0,25,M,down,0.6931333000011364,1.7256541796630698,,experiment,emotion,1.0,,,,1380.9702478000006,1012,23,male,True,13809,13816,False,False,inspiration,inspiration
372,74.0,25,F,up,1.0194876999994449,0.4044391336111178,,experiment,emotion,1.0,,,,1382.336894000001,1012,23,male,True,13823,13833,False,False,expiration,expiration
373,82.0,25,F,down,0.6713275999991309,1.89609872090434,,experiment,emotion,1.0,,,,1385.5200959000006,1012,23,male,True,13855,13862,False,False,expiration,expiration
374,90.0,25,F,up,0.7340117000003374,1.0666624057195009,,experiment,emotion,1.0,,,,1387.5533697,1012,23,male,True,13875,13882,False,False,inspiration,expiration
375,74.0,25,M,down,0.7167800999995961,0.974107789057094,,experiment,emotion,1.0,,,,1389.5366163999995,1012,23,male,True,13895,13902,False,False,trough,inspiration
376,98.0,25,M,up,0.9311880999994172,1.5277253422876886,,experiment,emotion,1.0,,,,1392.0531890999998,1012,23,male,True,13920,13929,False,False,expiration,inspiration
377,90.0,25,M,up,0.8989541000009922,1.0787149575360906,,experiment,emotion,1.0,,,,1394.3364327000006,1012,23,male,True,13943,13952,False,False,expiration,trough
378,98.0,25,F,up,0.6549780000004829,0.5783477831466148,,experiment,emotion,1.0,,,,1396.0863966999993,1012,23,male,True,13960,13967,False,False,inspiration,expiration
379,74.0,25,F,down,0.6820822000008775,1.1178112577976476,,experiment,emotion,1.0,,,,1398.1362916999994,1012,23,male,True,13981,13988,False,False,inspiration,inspiration
380,90.0,25,M,up,1.264225599999918,0.5151582314704672,,experiment,emotion,1.0,,,,1399.603196000001,1012,23,male,True,13996,14009,False,False,expiration,expiration
381,82.0,25,F,down,0.5938426000011532,1.3708811868809434,,experiment,emotion,1.0,,,,1402.5194944999994,1012,23,male,True,14025,14031,False,False,expiration,expiration
382,82.0,25,M,down,0.6333362999994279,0.8492780141285106,,experiment,emotion,1.0,,,,1404.2361032,1012,23,male,True,14042,14048,False,False,expiration,inspiration
383,90.0,25,M,down,0.5327366999990772,0.5250574113197444,,experiment,emotion,1.0,,,,1405.6526681000007,1012,23,male,True,14056,14061,False,False,inspiration,expiration
384,98.0,25,M,down,0.8194571999993059,1.0093513334578414,,experiment,emotion,1.0,,,,1407.4859301000006,1012,23,male,True,14074,14082,False,False,inspiration,inspiration
385,82.0,25,F,down,0.3003396999993129,1.92323363428682,,experiment,emotion,1.0,,,,1410.4858235000004,1012,23,male,True,14104,14107,False,False,expiration,expiration
386,74.0,25,F,down,0.38350849999915226,1.667621851343002,,experiment,emotion,1.0,,,,1412.8524286000004,1012,23,male,True,14128,14132,False,False,expiration,expiration
387,74.0,25,M,down,1.1187058000014076,1.3474842410582764,,experiment,emotion,1.0,,,,1414.8856764000002,1012,23,male,True,14148,14159,False,False,inspiration,expiration
388,82.0,25,F,up,1.296350799999345,1.3322900248941318,,experiment,emotion,1.0,,,,1417.6020954000005,1012,23,male,True,14176,14189,False,False,inspiration,peak
389,98.0,25,F,up,1.282281599998896,1.6690480565100891,,experiment,emotion,1.0,,,,1420.8521229000007,1012,23,male,True,14208,14221,False,False,inspiration,expiration
390,90.0,25,M,down,0.8273432999994839,0.8250265901751326,,experiment,emotion,1.0,,,,1423.2520412999993,1012,23,male,True,14232,14240,False,False,expiration,inspiration
391,74.0,25,M,down,0.972436399999424,1.3072495240420556,,experiment,emotion,1.0,,,,1425.6519471,1012,23,male,True,14256,14266,False,False,expiration,expiration
392,98.0,25,F,up,0.8302044000010937,1.069419269318777,,experiment,emotion,1.0,,,,1427.9851776999994,1012,23,male,True,14280,14288,False,False,inspiration,expiration
393,90.0,25,M,up,0.9222991000006004,1.1973226195305773,,experiment,emotion,1.0,,,,1430.2850872999998,1012,23,male,True,14302,14311,False,False,expiration,inspiration
394,90.0,25,F,up,0.9743510999996944,1.667618274677355,,experiment,emotion,1.0,,,,1433.1350066999994,1012,23,male,True,14331,14341,False,False,expiration,trough
395,74.0,25,F,down,0.9225176999989344,1.6915024864246742,,experiment,emotion,1.0,,,,1436.0848717000001,1012,23,male,True,14361,14370,False,False,expiration,expiration
396,82.0,25,F,down,0.6863290999990568,1.5544128246193891,,experiment,emotion,1.0,,,,1438.8681291000007,1012,23,male,True,14388,14395,False,False,expiration,expiration
397,98.0,25,M,up,0.837704899999153,1.1552487812484478,,experiment,emotion,1.0,,,,1440.984710400001,1012,23,male,True,14409,14417,False,False,inspiration,expiration
398,82.0,25,M,up,0.8380548000004637,0.6120790000395842,,experiment,emotion,1.0,,,,1442.7013329000008,1012,23,male,True,14427,14435,False,False,expiration,inspiration
399,82.0,25,F,down,0.3335076000003028,1.4169532536964966,,experiment,emotion,1.0,,,,1445.2345761000006,1012,23,male,True,14452,14455,False,False,expiration,expiration
400,82.0,25,F,down,0.41693560000021535,1.582633926157044,,experiment,emotion,1.0,,,,1447.5010327999996,1012,23,male,True,14475,14479,False,False,peak,expiration
401,98.0,25,M,down,0.2502653999999893,1.625990432069636,,experiment,emotion,1.0,,,,1449.8010259999999,1012,23,male,True,14498,14501,False,False,inspiration,inspiration
402,90.0,25,M,down,0.3835055999988981,0.9556032499517062,,experiment,emotion,1.0,,,,1451.4676859,1012,23,male,True,14514,14518,False,False,expiration,expiration
403,74.0,25,M,down,0.26684430000022985,1.355422015387303,,experiment,emotion,1.0,,,,1453.5176014,1012,23,male,True,14535,14538,False,False,peak,expiration
404,74.0,25,M,down,0.8542090000009921,0.9771363435007064,,experiment,emotion,1.0,,,,1455.184204,1012,23,male,True,14551,14560,False,False,inspiration,expiration
405,90.0,25,M,down,0.2669038999993063,1.7983003637329131,,experiment,emotion,1.0,,,,1458.1007013999995,1012,23,male,True,14581,14584,False,False,inspiration,expiration
406,98.0,25,F,up,1.0523972999999387,1.9503602463328824,,experiment,emotion,1.0,,,,1460.7339929000002,1012,23,male,True,14607,14618,False,False,inspiration,expiration
407,98.0,25,F,up,0.628138799998851,1.15772326975576,,experiment,emotion,1.0,,,,1463.2172514000006,1012,23,male,True,14632,14638,False,False,inspiration,inspiration
408,74.0,25,M,up,0.4549711999989086,0.9754305944367312,,experiment,emotion,1.0,,,,1465.1004433000005,1012,23,male,True,14651,14656,False,False,expiration,expiration
409,98.0,25,F,up,0.2835314000003564,1.9154060722514843,,experiment,emotion,1.0,,,,1467.7504122,1012,23,male,True,14677,14680,False,False,expiration,expiration
410,82.0,25,F,up,0.38349500000003894,1.5744859810439709,,experiment,emotion,1.0,,,,1470.0169811999995,1012,23,male,True,14700,14704,False,False,inspiration,peak
411,90.0,25,F,up,0.3502202999989095,1.0585406951732066,,experiment,emotion,1.0,,,,1471.7835752,1012,23,male,True,14717,14721,False,False,expiration,expiration
412,82.0,25,M,up,0.3501684999991994,1.2466142689008295,,experiment,emotion,1.0,,,,1473.7168592000005,1012,23,male,True,14737,14741,False,False,expiration,expiration
413,74.0,25,F,up,0.5069297999998525,0.7920103192040662,,experiment,emotion,1.0,,,,1475.183465000001,1012,23,male,True,14751,14756,False,False,expiration,inspiration
414,90.0,25,F,down,0.4642808999997214,0.698101156908197,,experiment,emotion,1.0,,,,1476.650079,1012,23,male,True,14766,14771,False,False,expiration,expiration
415,82.0,25,F,down,0.5300920999998198,0.5090321292657224,,experiment,emotion,1.0,,,,1477.8833468000007,1012,23,male,True,14778,14783,False,False,expiration,expiration
416,90.0,25,M,down,0.23351700000057465,0.5664892929511656,,experiment,emotion,1.0,,,,1479.2499720999995,1012,23,male,True,14792,14794,False,False,inspiration,inspiration
417,74.0,25,M,,,1.1237274400712245,,experiment,emotion,1.0,,,,1481.0499119999995,1012,23,male,True,14810,0,False,False,expiration,0
418,98.0,25,F,up,0.9349774999991496,1.7620337075712906,,experiment,emotion,1.0,,,,1485.5164188999993,1012,23,male,True,14855,14864,False,False,inspiration,inspiration
419,90.0,25,M,up,1.031456499998967,1.7123316619327544,,experiment,emotion,1.0,,,,1488.432984,1012,23,male,True,14884,14894,False,False,expiration,expiration
420,98.0,25,F,down,0.8208027000000584,0.6649578168693946,,experiment,emotion,1.0,,,,1490.3995984000005,1012,23,male,True,14904,14912,False,False,inspiration,expiration
421,74.0,25,M,up,0.6852475999985472,1.9151362091457491,,experiment,emotion,1.0,,,,1493.4161410999993,1012,23,male,True,14934,14941,False,False,inspiration,expiration
422,82.0,25,M,up,0.5599793000001227,0.5614516857290643,,experiment,emotion,1.0,,,,1494.9494081000007,1012,23,male,True,14949,14955,False,False,expiration,expiration
423,0.2300644228992643,25,up,up,0.6647186999998667,1.413811114258556,,experiment,cRDM,1.0,,,,1614.0617137,1012,23,male,True,16140,16147,True,False,peak,inspiration
424,0.2300644228992643,25,up,up,0.4167887000003248,0.6500254868707617,,experiment,cRDM,1.0,,,,1615.6283154000002,1012,23,male,True,16156,16160,False,False,expiration,expiration
425,0.2300644228992643,25,down,up,0.3505447000006825,0.32962594430186304,,experiment,cRDM,1.0,,,,1616.6282677999998,1012,23,male,True,16166,16170,False,False,expiration,expiration
426,0.2300644228992643,25,down,down,0.4995061999998143,0.9011558361636602,,experiment,cRDM,1.0,,,,1618.1948982000006,1012,23,male,True,16182,16187,False,False,inspiration,peak
427,0.2300644228992643,25,up,down,0.3338616999990336,1.0258550348487472,,experiment,cRDM,1.0,,,,1619.978137000001,1012,23,male,True,16199,16202,False,False,expiration,expiration
428,0.2300644228992643,25,down,down,0.7792925000012474,0.3619672998900844,,experiment,cRDM,1.0,,,,1621.0281057000002,1012,23,male,True,16210,16218,False,False,trough,inspiration
429,0.2300644228992643,25,up,up,0.4536840000000666,1.0792642593957291,,experiment,cRDM,1.0,,,,1623.144714000001,1012,23,male,True,16231,16236,False,False,inspiration,inspiration
430,0.2300644228992643,25,up,up,0.4288484000007884,1.1250016527099982,,experiment,cRDM,1.0,,,,1624.9945486000006,1012,23,male,True,16250,16254,False,False,inspiration,expiration
431,0.2300644228992643,25,down,down,0.3672477000000072,0.9078885327988606,,experiment,cRDM,1.0,,,,1626.5945211000005,1012,23,male,True,16266,16270,False,False,inspiration,inspiration
432,0.2300644228992643,25,down,down,2.159234000000652,1.9452643362125,,experiment,cRDM,1.0,,,,1629.2111667000001,1012,23,male,True,16292,16314,False,False,expiration,inspiration
433,0.2300644228992643,25,down,down,0.7927754999982426,1.895113058435468,,experiment,cRDM,1.0,,,,1633.5276511000004,1012,23,male,True,16335,16343,False,False,expiration,expiration
434,0.2300644228992643,25,down,down,0.8632128000008379,0.5113011864409014,,experiment,cRDM,1.0,,,,1635.0941978,1012,23,male,True,16351,16360,False,False,expiration,inspiration
435,0.2300644228992643,25,down,down,0.5785302999993291,0.6370653954587664,,experiment,cRDM,1.0,,,,1636.8608663000007,1012,23,male,True,16368,16374,False,False,expiration,expiration
436,0.2300644228992643,25,down,down,0.59865180000088,1.908940995618656,,experiment,cRDM,1.0,,,,1639.6107867,1012,23,male,True,16396,16402,False,False,expiration,expiration
437,0.2300644228992643,25,up,up,0.4477346000003308,0.8971176519650053,,experiment,cRDM,1.0,,,,1641.3607020000006,1012,23,male,True,16413,16417,False,False,expiration,inspiration
438,0.2300644228992643,25,up,up,0.3671813999990263,0.5952935548452951,,experiment,cRDM,1.0,,,,1642.6773029000005,1012,23,male,True,16426,16430,False,False,expiration,expiration
439,0.2300644228992643,25,up,up,0.498181900000418,1.4278060078371504,,experiment,cRDM,1.0,,,,1644.7772155999999,1012,23,male,True,16447,16452,False,False,expiration,inspiration
440,0.2300644228992643,25,up,up,0.4167463000012504,0.7477391406092199,,experiment,cRDM,1.0,,,,1646.2771791999994,1012,23,male,True,16462,16466,False,False,expiration,expiration
441,0.2300644228992643,25,down,up,0.33387920000132004,0.31838941531261483,,experiment,cRDM,1.0,,,,1647.2771287000005,1012,23,male,True,16472,16475,False,False,expiration,expiration
442,0.2300644228992643,25,up,down,0.3338485000003857,1.4330248572058255,,experiment,cRDM,1.0,,,,1649.3770563999994,1012,23,male,True,16493,16496,False,False,peak,expiration
443,0.2300644228992643,25,up,up,0.317139099999622,0.3785452818240286,,experiment,cRDM,1.0,,,,1650.4270621999995,1012,23,male,True,16504,16507,False,False,expiration,expiration
444,0.2300644228992643,25,down,down,0.559084200000143,1.396018284051822,,experiment,cRDM,1.0,,,,1652.5103146000008,1012,23,male,True,16525,16531,False,False,expiration,expiration
445,0.2300644228992643,25,up,up,0.46882029999869707,0.6972767178483708,,experiment,cRDM,1.0,,,,1654.0435769000005,1012,23,male,True,16540,16545,False,False,expiration,inspiration
446,0.2300644228992643,25,down,down,0.4168035999991844,0.9391957811553472,,experiment,cRDM,1.0,,,,1655.7101788999996,1012,23,male,True,16557,16561,False,False,expiration,expiration
447,0.2300644228992643,25,down,up,0.41682820000096393,1.5245492863106656,,experiment,cRDM,1.0,,,,1657.9267296000005,1012,23,male,True,16579,16583,False,False,expiration,expiration
448,0.2300644228992643,25,up,down,0.31714439999996097,0.31869853537396864,,experiment,cRDM,1.0,,,,1658.9267260999993,1012,23,male,True,16589,16592,False,False,expiration,expiration
449,0.2300644228992643,25,up,up,0.505059799999799,0.5261114545661583,,experiment,cRDM,1.0,,,,1660.1433432000006,1012,23,male,True,16601,16606,False,False,expiration,trough
450,0.2300644228992643,25,down,down,0.5404257000009238,0.5043678943898766,,experiment,cRDM,1.0,,,,1661.4099758000002,1012,23,male,True,16614,16619,False,False,inspiration,inspiration
451,0.2300644228992643,25,up,up,0.5745451000002504,0.5289015894374463,,experiment,cRDM,1.0,,,,1662.759916600001,1012,23,male,True,16627,16633,False,False,expiration,expiration
452,0.2300644228992643,25,down,down,0.3004786000001332,0.4495964245258671,,experiment,cRDM,1.0,,,,1664.0432136999998,1012,23,male,True,16640,16643,False,False,expiration,expiration
453,0.2300644228992643,25,down,down,0.4672102000004088,0.873179274372462,,experiment,cRDM,1.0,,,,1665.5931810999998,1012,23,male,True,16656,16661,False,False,expiration,expiration
454,0.2300644228992643,25,down,down,0.35050980000050913,0.6909466443756209,,experiment,cRDM,1.0,,,,1667.0097563000006,1012,23,male,True,16670,16674,False,False,inspiration,expiration
455,0.2300644228992643,25,up,up,0.4994217000003118,1.6580937202471957,,experiment,cRDM,1.0,,,,1669.3430049000006,1012,23,male,True,16693,16698,False,False,expiration,expiration
456,0.2300644228992643,25,up,up,0.5625344000000041,1.7256876283947016,,experiment,cRDM,1.0,,,,1671.8429148999994,1012,23,male,True,16718,16724,False,False,expiration,expiration
457,0.2300644228992643,25,up,up,0.5002143000001524,0.9955123821795612,,experiment,cRDM,1.0,,,,1673.6761622999993,1012,23,male,True,16737,16742,False,False,expiration,inspiration
458,0.2300644228992643,25,down,down,0.4168069999996078,0.8792084188197165,,experiment,cRDM,1.0,,,,1675.3261121000005,1012,23,male,True,16753,16757,False,False,expiration,trough
459,0.2300644228992643,25,down,down,0.3837989999992715,0.5388713765230484,,experiment,cRDM,1.0,,,,1676.5427470000006,1012,23,male,True,16765,16769,False,False,inspiration,inspiration
460,0.2300644228992643,25,up,up,0.4184060000006866,1.8107344210001524,,experiment,cRDM,1.0,,,,1679.0259842999994,1012,23,male,True,16790,16794,False,False,expiration,expiration
461,0.2300644228992643,25,down,down,0.5424762000002374,0.33688959428755344,,experiment,cRDM,1.0,,,,1680.0259579999995,1012,23,male,True,16800,16805,False,False,expiration,expiration
462,0.2300644228992643,25,up,up,0.3338454999993701,1.3202856184476215,,experiment,cRDM,1.0,,,,1682.159186,1012,23,male,True,16821,16824,False,False,expiration,expiration
463,0.2300644228992643,25,up,down,0.26714579999861604,0.5416232748643427,,experiment,cRDM,1.0,,,,1683.3758366999998,1012,23,male,True,16834,16837,False,False,expiration,expiration
464,0.2300644228992643,25,up,up,0.3671381000003748,1.5151850133346387,,experiment,cRDM,1.0,,,,1685.5590753000006,1012,23,male,True,16855,16859,False,False,expiration,expiration
465,0.2300644228992643,25,down,down,0.26716210000085994,1.5919007834877872,,experiment,cRDM,1.0,,,,1687.8256522,1012,23,male,True,16878,16881,False,False,inspiration,inspiration
466,0.2300644228992643,25,down,down,0.4835423000004084,1.9576020100287341,,experiment,cRDM,1.0,,,,1690.4588929000008,1012,23,male,True,16904,16909,False,False,inspiration,inspiration
467,0.2300644228992643,25,up,up,0.2670314999995753,1.5153815201277527,,experiment,cRDM,1.0,,,,1692.725475100001,1012,23,male,True,16927,16930,False,False,expiration,expiration
468,0.2300644228992643,25,down,down,0.33377740000105405,0.54523759022168,,experiment,cRDM,1.0,,,,1693.942099500001,1012,23,male,True,16939,16942,False,False,expiration,trough
469,0.2300644228992643,25,down,down,0.3338935000010679,1.7439007968818232,,experiment,cRDM,1.0,,,,1696.3586891000007,1012,23,male,True,16963,16966,False,False,expiration,expiration
470,0.2300644228992643,25,up,up,0.3337663000002067,1.674560830826912,,experiment,cRDM,1.0,,,,1698.7086382999994,1012,23,male,True,16987,16990,False,False,expiration,expiration
471,0.2300644228992643,25,up,up,0.3672749999986991,0.3721341187960614,,experiment,cRDM,1.0,,,,1699.7585424000004,1012,23,male,True,16997,17001,False,False,inspiration,inspiration
472,0.2300644228992643,25,down,up,0.3838754999997036,1.9511377348776944,,experiment,cRDM,1.0,,,,1702.3917754000006,1012,23,male,True,17024,17028,False,False,expiration,expiration
473,0.2300644228992643,25,up,down,0.31718829999954323,0.7114799016974852,,experiment,cRDM,1.0,,,,1703.7750492999994,1012,23,male,True,17037,17040,False,False,inspiration,inspiration
474,0.2300644228992643,25,down,down,0.6857103999991523,1.6453260562087788,,experiment,cRDM,1.0,,,,1706.0916853999993,1012,23,male,True,17061,17068,False,False,inspiration,inspiration
475,0.2300644228992643,25,down,down,1.0369232000011834,0.9597574513464636,,experiment,cRDM,1.0,,,,1707.9914983999995,1012,23,male,True,17080,17090,False,False,expiration,inspiration
476,0.2300644228992643,25,down,down,0.4168090000002849,0.7508395526199959,,experiment,cRDM,1.0,,,,1710.0415166999999,1012,23,male,True,17100,17104,False,False,inspiration,inspiration
477,0.2300644228992643,25,up,up,0.6486550999998144,1.4090131568251958,,experiment,cRDM,1.0,,,,1712.1247649000006,1012,23,male,True,17121,17127,False,False,inspiration,inspiration
478,0.2300644228992643,25,up,up,0.3338389999989886,0.5896411561885102,,experiment,cRDM,1.0,,,,1713.6247112999997,1012,23,male,True,17136,17139,False,False,inspiration,expiration
479,0.2300644228992643,25,down,up,0.4243568999991112,0.30887841927451554,,experiment,cRDM,1.0,,,,1714.6080472000006,1012,23,male,True,17146,17150,False,False,expiration,inspiration
480,0.2300644228992643,25,down,down,0.4804117999992741,1.0157263705606718,,experiment,cRDM,1.0,,,,1716.3080055,1012,23,male,True,17163,17168,False,False,inspiration,inspiration
481,0.2300644228992643,25,up,up,0.4168258999998216,0.3827878653168141,,experiment,cRDM,1.0,,,,1717.4245832000006,1012,23,male,True,17174,17178,False,False,expiration,expiration
482,0.2300644228992643,25,up,up,0.5312566000011429,0.8443108840183609,,experiment,cRDM,1.0,,,,1718.9411816000004,1012,23,male,True,17189,17194,False,False,trough,inspiration
483,0.2300644228992643,25,up,up,0.5349607999996806,0.8780957468829313,,experiment,cRDM,1.0,,,,1720.624453200001,1012,23,male,True,17206,17211,False,False,inspiration,expiration
484,0.2300644228992643,25,up,up,0.6333082000001014,0.7658613418182119,,experiment,cRDM,1.0,,,,1722.1910999000004,1012,23,male,True,17222,17228,False,False,inspiration,inspiration
485,0.2300644228992643,25,up,,,0.6172076358414815,,experiment,cRDM,1.0,,,,1723.7077232,1012,23,male,True,17237,0,False,False,inspiration,0
486,0.2300644228992643,25,down,down,0.4632120999995095,1.685465925553488,,experiment,cRDM,1.0,,,,1728.0741960000007,1012,23,male,True,17281,17286,False,False,expiration,expiration
487,0.2300644228992643,25,down,down,0.6705135000011069,1.8798683611423317,,experiment,cRDM,1.0,,,,1730.6739093000006,1012,23,male,True,17307,17314,False,False,inspiration,expiration
488,0.2300644228992643,25,up,up,0.4211410999996588,1.10292538087542,,experiment,cRDM,1.0,,,,1732.7073284000005,1012,23,male,True,17327,17331,False,False,trough,inspiration
489,0.2300644228992643,25,down,down,0.5834123999993608,0.4808833979314617,,experiment,cRDM,1.0,,,,1733.8739933999993,1012,23,male,True,17339,17345,False,False,expiration,expiration
490,0.2300644228992643,25,down,down,0.4214916000000812,0.6017400926273213,,experiment,cRDM,1.0,,,,1735.3239101000006,1012,23,male,True,17353,17357,False,False,expiration,expiration
491,0.2300644228992643,25,down,down,0.3672129000005953,1.5164802276681075,,experiment,cRDM,1.0,,,,1737.5071775000006,1012,23,male,True,17375,17379,False,False,expiration,expiration
492,0.2300644228992643,25,up,up,0.5189546000001428,0.3891738560931645,,experiment,cRDM,1.0,,,,1738.5904486000006,1012,23,male,True,17386,17391,False,False,expiration,inspiration
493,0.2300644228992643,25,down,up,0.6587944999992033,0.3906921597969759,,experiment,cRDM,1.0,,,,1739.7736968,1012,23,male,True,17398,17405,False,False,expiration,expiration
494,0.2300644228992643,25,down,up,0.6304387000000133,1.4224881879313314,,experiment,cRDM,1.0,,,,1742.1070040000006,1012,23,male,True,17421,17427,False,False,inspiration,peak
495,0.2300644228992643,25,down,down,0.38379539999914414,0.3799982805021605,,experiment,cRDM,1.0,,,,1743.3903352999994,1012,23,male,True,17434,17438,False,False,expiration,expiration
496,0.2300644228992643,25,up,up,0.8731580000003305,0.3767572930092677,,experiment,cRDM,1.0,,,,1744.4402476999994,1012,23,male,True,17444,17453,False,False,trough,peak
497,0.2300644228992643,25,up,up,0.6250517999997101,1.8995962335094143,,experiment,cRDM,1.0,,,,1747.4733834999995,1012,23,male,True,17475,17481,False,False,inspiration,peak
498,0.2300644228992643,25,down,down,0.30048469999928784,1.3805774039048784,,experiment,cRDM,1.0,,,,1749.7400327000007,1012,23,male,True,17497,17500,False,False,inspiration,inspiration
499,0.2300644228992643,25,up,up,0.4874096999992617,1.6254811832996228,,experiment,cRDM,1.0,,,,1752.0399908000006,1012,23,male,True,17520,17525,False,False,expiration,expiration
500,0.2300644228992643,25,down,down,0.3504763000000821,0.8079148265090212,,experiment,cRDM,1.0,,,,1753.6065764999994,1012,23,male,True,17536,17540,False,False,inspiration,inspiration
501,0.2300644228992643,25,up,up,0.4555246999989322,1.1666000413516049,,experiment,cRDM,1.0,,,,1755.4398413999998,1012,23,male,True,17554,17559,False,False,expiration,expiration
502,0.2300644228992643,25,up,down,0.3671195000006264,0.9504387080088116,,experiment,cRDM,1.0,,,,1757.1064890000007,1012,23,male,True,17571,17575,False,False,inspiration,expiration
503,98.0,25,M,down,1.591093400000318,0.3131242501048693,,experiment,emotion,2.0,,,,1761.2062962999996,1012,23,male,True,17612,17628,False,False,expiration,peak
504,74.0,25,M,down,0.8028828999995312,0.5586397901004685,,experiment,emotion,2.0,,,,1763.639527800001,1012,23,male,True,17636,17644,False,False,expiration,expiration
505,90.0,25,F,down,0.6354028000005201,1.6260617134914863,,experiment,emotion,2.0,,,,1766.3561024,1012,23,male,True,17663,17669,False,False,inspiration,expiration
506,98.0,25,F,up,0.6673816000002262,1.449503260655455,,experiment,emotion,2.0,,,,1768.7060300000005,1012,23,male,True,17687,17694,False,False,inspiration,expiration
507,90.0,25,M,up,0.6082032000012987,0.8365874143715408,,experiment,emotion,2.0,,,,1770.4892819000006,1012,23,male,True,17705,17711,False,False,expiration,inspiration
508,82.0,25,F,up,0.5451695000010659,0.7517269586175013,,experiment,emotion,2.0,,,,1772.1392346000002,1012,23,male,True,17721,17726,False,False,expiration,expiration
509,74.0,25,M,down,0.5876365000003716,1.4972984068378985,,experiment,emotion,2.0,,,,1774.4558060000006,1012,23,male,True,17744,17750,False,False,inspiration,expiration
510,82.0,25,M,down,0.6896228000005067,0.3908737480284593,,experiment,emotion,2.0,,,,1775.7057828999993,1012,23,male,True,17757,17764,False,False,trough,inspiration
511,98.0,25,F,down,0.6077014000002237,1.1492487138655538,,experiment,emotion,2.0,,,,1777.8056920999998,1012,23,male,True,17778,17784,False,False,peak,expiration
512,82.0,25,F,up,0.798136199999135,1.649098120808412,,experiment,emotion,2.0,,,,1780.3222720999993,1012,23,male,True,17803,17811,False,False,inspiration,expiration
513,90.0,25,F,down,0.7066003999989334,1.432237411066858,,experiment,emotion,2.0,,,,1782.8388346000004,1012,23,male,True,17828,17835,False,False,inspiration,expiration
514,98.0,25,F,up,0.944320399999924,0.8383873841883376,,experiment,emotion,2.0,,,,1784.672086900001,1012,23,male,True,17846,17855,False,False,inspiration,inspiration
515,90.0,25,F,down,0.7807733999998163,1.759646876963609,,experiment,emotion,2.0,,,,1787.638658500001,1012,23,male,True,17876,17884,False,False,expiration,inspiration
516,74.0,25,F,down,0.7591797000004591,1.6375928936467297,,experiment,emotion,2.0,,,,1790.3552615,1012,23,male,True,17903,17911,False,False,expiration,inspiration
517,82.0,25,M,down,0.6519399999997404,1.2675612126770521,,experiment,emotion,2.0,,,,1792.6384706000001,1012,23,male,True,17926,17933,False,False,inspiration,expiration
518,74.0,25,M,down,0.531726000001072,1.4000318855602327,,experiment,emotion,2.0,,,,1794.9717078000006,1012,23,male,True,17949,17954,False,False,inspiration,inspiration
519,98.0,25,M,down,0.8790703999984544,0.5665504890269092,,experiment,emotion,2.0,,,,1796.3383364999997,1012,23,male,True,17963,17972,False,False,expiration,expiration
520,74.0,25,M,up,0.4002443999997922,1.5757488846721246,,experiment,emotion,2.0,,,,1799.0715551999995,1012,23,male,True,17990,17994,False,False,expiration,expiration
521,90.0,25,F,down,0.3501990000004298,0.3686945837252563,,experiment,emotion,2.0,,,,1800.1382110000006,1012,23,male,True,18001,18005,False,False,expiration,expiration
522,90.0,25,M,up,0.8282804000009492,0.4124819443148453,,experiment,emotion,2.0,,,,1801.2381453999994,1012,23,male,True,18012,18020,False,False,inspiration,expiration
523,82.0,25,M,up,0.4514248999985284,1.1504596221879253,,experiment,emotion,2.0,,,,1803.4880253,1012,23,male,True,18035,18040,False,False,trough,inspiration
524,82.0,25,F,up,0.4356740000002901,0.4544477965191442,,experiment,emotion,2.0,,,,1804.6546929999995,1012,23,male,True,18046,18050,False,False,expiration,expiration
525,74.0,25,M,down,0.7124953999991703,1.8802651694920929,,experiment,emotion,2.0,,,,1807.2379508000006,1012,23,male,True,18072,18079,False,False,inspiration,expiration
526,98.0,25,F,up,1.1425376000006509,0.65588395077806,,experiment,emotion,2.0,,,,1808.8878933000005,1012,23,male,True,18089,18100,False,False,expiration,inspiration
527,90.0,25,F,down,0.6866704000003665,1.9338457518794685,,experiment,emotion,2.0,,,,1812.2377675,1012,23,male,True,18122,18129,False,False,inspiration,inspiration
528,74.0,25,M,down,0.3501739000002999,1.4282953262246034,,experiment,emotion,2.0,,,,1814.637663300001,1012,23,male,True,18146,18150,False,False,expiration,expiration
529,98.0,25,M,up,0.7815062999998191,1.791373924565682,,experiment,emotion,2.0,,,,1817.1209062000007,1012,23,male,True,18171,18179,False,False,expiration,expiration
530,98.0,25,F,up,0.6162073999985296,0.4238336847102442,,experiment,emotion,2.0,,,,1818.6041982,1012,23,male,True,18186,18192,False,False,expiration,inspiration
531,82.0,25,M,up,0.586644899998646,1.2129539150372055,,experiment,emotion,2.0,,,,1820.7207788999995,1012,23,male,True,18207,18213,False,False,expiration,expiration
532,74.0,25,F,down,0.2168378999995184,1.6389630457649778,,experiment,emotion,2.0,,,,1823.220693100001,1012,23,male,True,18232,18234,False,False,expiration,expiration
533,82.0,25,F,up,0.7568217999996705,0.6612176904530938,,experiment,emotion,2.0,,,,1824.5705890000002,1012,23,male,True,18246,18254,False,False,inspiration,inspiration
534,90.0,25,F,down,0.3834888999990653,1.4471847401122515,,experiment,emotion,2.0,,,,1827.0538884000007,1012,23,male,True,18270,18274,False,False,expiration,expiration
535,74.0,25,M,down,0.6402127000001201,0.3951886898091108,,experiment,emotion,2.0,,,,1828.1371726000007,1012,23,male,True,18281,18287,False,False,expiration,inspiration
536,98.0,25,M,up,0.8393264000005729,1.09514231450028,,experiment,emotion,2.0,,,,1830.1370855,1012,23,male,True,18301,18309,False,False,expiration,inspiration
537,90.0,25,M,down,0.2835380999986228,1.6363462281721768,,experiment,emotion,2.0,,,,1832.8702975999995,1012,23,male,True,18329,18332,False,False,expiration,expiration
538,98.0,25,F,down,0.5034849000003305,0.8784423436933281,,experiment,emotion,2.0,,,,1834.4369429000005,1012,23,male,True,18344,18349,False,False,inspiration,inspiration
539,74.0,25,F,down,0.6072002999990218,1.4126807975328195,,experiment,emotion,2.0,,,,1836.6202156000006,1012,23,male,True,18366,18372,False,False,expiration,inspiration
540,90.0,25,M,up,0.4302710000010848,0.427264965032339,,experiment,emotion,2.0,,,,1837.9201409000007,1012,23,male,True,18379,18383,False,False,peak,expiration
541,82.0,25,F,down,0.8043046000002505,0.3722345824060041,,experiment,emotion,2.0,,,,1839.0201087,1012,23,male,True,18390,18398,False,False,expiration,inspiration
