,stimLvl,stimTime,rand,response,rt,precedingITI,trialNumber,trialType,stimuli,block,estIntens,estThres,estSlope,trialStart,subject,age,gender,headRest,onset,responsI,manBadOnset,manBadRespons,onset_phase,respons_phase
0,150.0,100,F,,,0.7354455989763322,,introTrial,emotion,,,,,224.05965859999924,1013,22,female,True,2239,0,False,False,expiration,0
1,0.9,100,down,,,0.7189499450159365,,introTrial,cRDM,,,,,228.70948879999924,1013,22,female,True,2286,0,False,False,expiration,0
2,200.0,25,F,up,0.4734502999999677,1.1937190248264256,,tutorial,emotion,,,,,256.0750589999989,1013,22,female,True,2560,2565,False,False,inspiration,expiration
3,200.0,25,F,up,0.4723721999998816,0.6207126666937306,,tutorial,emotion,,,,,257.4751199000002,1013,22,female,True,2574,2579,False,False,expiration,expiration
4,200.0,25,M,up,0.25024780000057945,0.4339594793017103,,tutorial,emotion,,,,,258.6749628999987,1013,22,female,True,2586,2589,False,False,trough,inspiration
5,0.0,25,M,down,0.4168109000002005,0.6175058337851707,,tutorial,emotion,,,,,260.0249949999997,1013,22,female,True,2599,2603,False,False,inspiration,expiration
6,0.0,25,M,down,0.2837515000010171,0.455296131807848,,tutorial,emotion,,,,,261.19162829999914,1013,22,female,True,2611,2614,False,False,expiration,expiration
7,200.0,25,M,up,0.2501642999995965,0.5415298299407597,,tutorial,emotion,,,,,262.4415651999989,1013,22,female,True,2623,2626,False,False,expiration,expiration
8,0.0,25,M,down,0.44997320000038604,0.3964198868095361,,tutorial,emotion,,,,,263.5415309999989,1013,22,female,True,2634,2638,False,False,expiration,expiration
9,200.0,25,F,up,0.3335000000006403,1.1207945882702737,,tutorial,emotion,,,,,265.39147459999907,1013,22,female,True,2653,2656,False,False,inspiration,inspiration
10,0.0,25,F,down,0.28351350000048114,1.0426118229638364,,tutorial,emotion,,,,,267.1247394000002,1013,22,female,True,2670,2673,False,False,inspiration,expiration
11,0.0,25,F,down,0.5466144000001805,0.4429882026067905,,tutorial,emotion,,,,,268.2748764999997,1013,22,female,True,2682,2687,False,False,expiration,expiration
12,0.9,25,up,up,2.311005899999145,0.5623631244244867,,tutorial,cRDM,,,,,274.8244504999984,1013,22,female,True,2747,2770,False,False,inspiration,expiration
13,0.9,25,up,up,0.7411955000006856,0.4613402282305136,,tutorial,cRDM,,,,,277.87428550000004,1013,22,female,True,2778,2785,False,False,inspiration,expiration
14,0.9,25,down,down,0.31717010000102164,1.2411747385270806,,tutorial,cRDM,,,,,280.12424979999923,1013,22,female,True,2800,2803,False,False,expiration,expiration
15,0.9,25,down,down,0.3171652000000904,0.9368490655712453,,tutorial,cRDM,,,,,281.7741778,1013,22,female,True,2817,2820,False,False,inspiration,expiration
16,0.9,25,up,up,0.3005846999985806,1.2157000203010142,,tutorial,cRDM,,,,,283.69063079999984,1013,22,female,True,2836,2839,False,False,expiration,expiration
17,0.9,25,down,down,0.3670861999999033,1.172088135982765,,tutorial,cRDM,,,,,285.5574077000001,1013,22,female,True,2854,2858,False,False,expiration,expiration
18,0.9,25,up,up,0.3504444000009244,1.3443211014491192,,tutorial,cRDM,,,,,287.5906920999987,1013,22,female,True,2875,2879,False,False,expiration,inspiration
19,0.9,25,up,down,0.3005004000006011,0.3067156706445398,,tutorial,cRDM,,,,,288.5906440999988,1013,22,female,True,2885,2888,False,False,inspiration,inspiration
20,0.9,25,down,down,0.5819717000013043,0.6564678795668979,,tutorial,cRDM,,,,,289.9405458000001,1013,22,female,True,2898,2904,False,False,expiration,inspiration
21,0.9,25,down,up,0.2680839000004198,1.4103546157589857,,tutorial,cRDM,,,,,292.20714880000014,1013,22,female,True,2921,2924,False,False,expiration,expiration
22,100.0,25,M,up,0.26688999999896623,1.7526869752749965,,psi_staircase_training,emotion,,100.0,100.0,25.00050000000001,307.6565523999998,1013,22,female,True,3076,3079,False,False,inspiration,peak
23,55.0,25,M,down,0.5180034000004525,1.483930012315961,,psi_staircase_training,emotion,,54.742809467541896,54.742809467541896,25.00050000000011,309.90650109999837,1013,22,female,True,3098,3103,False,False,inspiration,expiration
24,79.0,25,F,down,0.3835139000002528,1.5775184633227486,,psi_staircase_training,emotion,,79.636070985635,79.636070985635,25.71326925488641,312.3563871999995,1013,22,female,True,3122,3126,False,False,expiration,expiration
25,103.0,25,F,up,0.7037455000008777,0.3602288898031177,,psi_staircase_training,emotion,,97.61123893914808,97.61123893914808,26.1463337262867,313.4896972999996,1013,22,female,True,3134,3141,False,False,inspiration,expiration
26,87.0,25,M,up,0.38348020000012173,0.533494592589295,,psi_staircase_training,emotion,,85.98876744579668,85.98876744579668,23.003056417783494,315.07300449999997,1013,22,female,True,3150,3154,False,False,expiration,expiration
27,73.0,25,F,down,0.3499351999998908,1.0221537481116054,,psi_staircase_training,emotion,,76.84494728761523,76.84494728761523,23.862671666125227,316.87314969999903,1013,22,female,True,3168,3171,False,False,inspiration,expiration
28,83.0,25,M,down,0.3001942999999301,1.6156848703283844,,psi_staircase_training,emotion,,83.27335240078494,83.27335240078494,20.612160618333935,319.2561425999993,1013,22,female,True,3192,3195,False,False,inspiration,inspiration
29,93.0,25,F,down,0.3168801000010717,0.44490754331308063,,psi_staircase_training,emotion,,88.5822762920035,88.5822762920035,20.399967861098503,320.4561133999996,1013,22,female,True,3203,3206,False,False,expiration,expiration
30,109.0,25,F,down,0.561722299999019,0.9642726028240411,,psi_staircase_training,emotion,,95.67556894901224,95.67556894901224,26.326288765400914,322.17271709999835,1013,22,female,True,3221,3227,False,False,inspiration,expiration
31,123.0,25,M,up,0.30015389999971376,0.5904116543122869,,psi_staircase_training,emotion,,104.95643614980528,104.95643614980528,33.09475495882961,323.68932799999857,1013,22,female,True,3236,3239,False,False,expiration,expiration
32,120.0,25,F,up,0.3502088000004733,1.4673384970310859,,psi_staircase_training,emotion,,100.97277436286377,100.97277436286377,31.35094534285469,325.9392345999986,1013,22,female,True,3258,3262,False,False,expiration,expiration
33,119.0,25,F,up,0.283518100000947,1.5318565005599931,,psi_staircase_training,emotion,,98.00261919732358,98.00261919732358,29.74571905276221,328.25581819999934,1013,22,female,True,3281,3284,False,False,inspiration,inspiration
34,75.0,25,F,up,0.3168246999994153,1.7681943328814052,,psi_staircase_training,emotion,,95.80177814390278,95.80177814390278,28.28668166424325,330.7890725999987,1013,22,female,True,3307,3310,False,False,expiration,expiration
35,66.0,25,M,down,0.4301434999997582,0.3597962862459087,,psi_staircase_training,emotion,,89.7323576229299,89.7323576229299,32.96733448386263,331.92235189999883,1013,22,female,True,3318,3322,False,False,inspiration,inspiration
36,116.0,25,M,up,0.4185386999997718,0.9292392971365812,,psi_staircase_training,emotion,,91.70940282859029,91.70940282859029,31.86530729488856,333.63895059999965,1013,22,female,True,3335,3339,False,False,expiration,expiration
37,66.0,25,F,down,0.3835116999998718,0.5774125965739523,,psi_staircase_training,emotion,,90.0556464255576,90.0556464255576,30.816953380694798,334.9722132999996,1013,22,female,True,3349,3353,False,False,inspiration,inspiration
38,116.0,25,F,up,0.446309700000711,0.9879646192434328,,psi_staircase_training,emotion,,91.619575594804,91.619575594804,29.66332138004431,336.7221697999994,1013,22,female,True,3366,3370,False,False,expiration,expiration
39,66.0,25,M,up,0.3335311999999249,1.4622278203411925,,psi_staircase_training,emotion,,90.30662535212292,90.30662535212292,28.57417274920374,338.9554055999997,1013,22,female,True,3388,3391,False,False,inspiration,expiration
40,59.0,25,M,down,0.8431289999989531,0.7887631577185361,,psi_staircase_training,emotion,,85.32190371350005,85.32190371350005,33.22228744247507,340.5053759000002,1013,22,female,True,3404,3412,False,False,expiration,inspiration
41,59.0,25,M,up,0.3665664000000106,1.4807546001972174,,psi_staircase_training,emotion,,86.7353824673056,86.7353824673056,32.26284633518831,343.1721937999992,1013,22,female,True,3431,3435,False,False,expiration,expiration
42,54.0,25,M,down,0.7908687999988615,0.33046773089435233,,psi_staircase_training,emotion,,82.05028989565952,82.05028989565952,35.88862145119082,344.2885738999994,1013,22,female,True,3442,3450,False,False,expiration,inspiration
43,54.0,25,F,down,0.4167733000012959,1.049982936437006,,psi_staircase_training,emotion,,83.38436904357573,83.38436904357573,35.14686717008189,346.4551302,1013,22,female,True,3463,3467,False,False,expiration,expiration
44,113.0,25,F,down,0.28340770000068005,1.6598004992822053,,psi_staircase_training,emotion,,84.53142042939861,84.53142042939861,34.43117188193037,348.8884233999998,1013,22,female,True,3488,3491,False,False,inspiration,inspiration
45,118.0,25,F,up,0.5278065000002243,1.2446739333837993,,psi_staircase_training,emotion,,88.7034316651396,88.7034316651396,37.22256960763215,350.9216601999997,1013,22,female,True,3508,3513,False,False,expiration,inspiration
46,117.0,25,M,up,0.3168662000007316,1.3844460355827193,,psi_staircase_training,emotion,,87.52524016750311,87.52524016750311,36.62214134796072,353.18823319999865,1013,22,female,True,3531,3534,False,False,expiration,expiration
47,56.0,25,M,down,0.35027970000010106,1.3433187989947053,,psi_staircase_training,emotion,,86.45282196162384,86.45282196162384,36.03297032559875,355.3048117999988,1013,22,female,True,3552,3556,False,False,inspiration,expiration
48,118.0,25,F,up,0.4657250000000204,0.6428790182443049,,psi_staircase_training,emotion,,87.45128379926918,87.45128379926918,35.40926441622202,356.70476739999873,1013,22,female,True,3566,3571,False,False,expiration,trough
49,56.0,25,F,down,0.4001784000010957,1.304452474113029,,psi_staircase_training,emotion,,86.53291971143261,86.53291971143261,34.79063702726772,358.82136199999877,1013,22,female,True,3587,3591,False,False,expiration,expiration
50,118.0,25,M,up,0.3668059999999969,1.2476464888031262,,psi_staircase_training,emotion,,87.41536115851845,87.41536115851845,34.14191219685722,360.82129960000015,1013,22,female,True,3607,3611,False,False,inspiration,expiration
51,56.0,25,M,down,0.4756877999989229,1.464234952120845,,psi_staircase_training,emotion,,86.60372662922704,86.60372662922704,33.50244033151317,363.0378772999993,1013,22,female,True,3629,3634,False,False,inspiration,inspiration
52,0.29,25,up,down,1.4577902000000904,0.7464588154115637,,psi_staircase_training,cRDM,,0.25,0.25693124029946324,0.10500000000000002,368.2877161999986,1013,22,female,True,3682,3697,False,False,expiration,inspiration
53,0.39,25,up,up,0.5038671000002068,1.7132232074316718,,psi_staircase_training,cRDM,,0.3546095744690497,0.36161092129536426,0.10606203002656786,371.7375495999986,1013,22,female,True,3716,3721,False,False,inspiration,inspiration
54,0.38,25,down,down,0.4167851000001974,1.086948361582721,,psi_staircase_training,cRDM,,0.33579878490349385,0.3429317268363466,0.10805553848818844,373.60417419999976,1013,22,female,True,3735,3739,False,False,expiration,expiration
55,0.35000000000000003,25,down,down,0.5368517999995674,1.9769389388831533,,psi_staircase_training,cRDM,,0.31782208253394256,0.3249720550198983,0.10831353099725742,376.27063199999975,1013,22,female,True,3762,3767,False,False,expiration,expiration
56,0.34,25,up,up,0.3335800000004383,0.9902239235320796,,psi_staircase_training,cRDM,,0.29874613801952915,0.3059673319859477,0.10939245123743067,378.0709090999989,1013,22,female,True,3780,3783,False,False,inspiration,inspiration
57,0.33,25,down,down,0.3674336000003677,0.33982868115598275,,psi_staircase_training,cRDM,,0.280506144113461,0.287744293960811,0.10964931255241722,379.103948,1013,22,female,True,3790,3794,False,False,inspiration,inspiration
58,0.28,25,up,up,0.8039200000002893,1.1757739637064009,,psi_staircase_training,cRDM,,0.26317088112038345,0.27040595667174805,0.1096027406454384,380.9705806999992,1013,22,female,True,3809,3817,False,False,expiration,expiration
59,0.28,25,down,down,0.2672048000003997,1.8149851159696357,,psi_staircase_training,cRDM,,0.2406343605712441,0.2483363748915044,0.11667630448333274,383.87038500000017,1013,22,female,True,3838,3841,False,False,inspiration,inspiration
60,0.27,25,down,up,0.43345789999875706,0.3227862983347003,,psi_staircase_training,cRDM,,0.21884767236250752,0.2268477896342611,0.1211922076340612,384.8870941999994,1013,22,female,True,3848,3852,False,False,trough,inspiration
61,0.34,25,up,up,0.5019463999997242,1.5524630823359271,,psi_staircase_training,cRDM,,0.2893546145267101,0.29680919023981783,0.1129279055491584,387.1536188999999,1013,22,female,True,3870,3875,False,False,inspiration,inspiration
62,0.31,25,down,down,0.4712580999985221,0.4666760826443202,,psi_staircase_training,cRDM,,0.2779665462122634,0.2852305398849949,0.11004081559484714,388.42026919999984,1013,22,female,True,3883,3888,False,False,inspiration,expiration
63,0.31,25,down,down,0.6151011000001745,0.4013884675250993,,psi_staircase_training,cRDM,,0.26451925052086944,0.2719207208887531,0.1121234230889329,389.57052309999926,1013,22,female,True,3895,3901,False,False,expiration,expiration
64,0.27,25,down,down,0.5609643999996479,1.8336500754024847,,psi_staircase_training,cRDM,,0.25251556364774635,0.2599513864638807,0.11264382159056956,392.30347809999876,1013,22,female,True,3922,3928,False,False,inspiration,expiration
65,0.27,25,up,up,0.5004902999990009,0.327461994793986,,psi_staircase_training,cRDM,,0.23564472111780116,0.24371620989952106,0.12227340064176055,393.4700871999994,1013,22,female,True,3934,3939,False,False,expiration,expiration
66,0.26,25,up,up,0.5337611000013567,1.9939982016569413,,psi_staircase_training,cRDM,,0.21913656935238032,0.22769059451631965,0.12958324966502474,396.23666539999977,1013,22,female,True,3961,3966,False,False,expiration,expiration
67,0.26,25,down,down,0.416802199999438,1.23390560946647,,psi_staircase_training,cRDM,,0.20314187561985725,0.21206382238809848,0.13515682189490286,398.2866453999995,1013,22,female,True,3982,3986,False,False,inspiration,expiration
68,0.25,25,down,down,0.5426619999998366,1.9837036556623475,,psi_staircase_training,cRDM,,0.18867119903871607,0.19781453690277356,0.13851063218806278,400.969805499999,1013,22,female,True,4009,4014,False,False,inspiration,inspiration
69,0.22,25,up,down,0.6476651000011769,1.820475184746429,,psi_staircase_training,cRDM,,0.17538231133684234,0.18464435698225454,0.14030891308783355,403.60308719999915,1013,22,female,True,4035,4041,False,False,expiration,expiration
70,0.27,25,up,up,0.7197089000001142,0.5519445144126613,,psi_staircase_training,cRDM,,0.22185454884597985,0.23091357521902586,0.13723341394519034,405.06974369999983,1013,22,female,True,4050,4057,False,False,expiration,inspiration
71,0.26,25,up,down,0.5192098999996233,0.7258296681721169,,psi_staircase_training,cRDM,,0.2104066176997615,0.219661894680385,0.14020637591236326,406.7862863999998,1013,22,female,True,4067,4072,False,False,expiration,inspiration
72,0.28,25,up,up,0.42416269999921496,1.111700828361907,,psi_staircase_training,cRDM,,0.249438645548238,0.25815551839443995,0.13205019726730288,408.6862913999994,1013,22,female,True,4086,4090,False,False,expiration,expiration
73,0.28,25,down,down,0.5086412999989989,0.6843025224587216,,psi_staircase_training,cRDM,,0.23908860368875198,0.2480437262036592,0.1356593947749974,410.0697949999994,1013,22,female,True,4100,4105,False,False,expiration,expiration
74,0.25,25,down,down,0.4983725000001869,1.638625419342874,,psi_staircase_training,cRDM,,0.2296327228505136,0.2387357651870108,0.13790020314347276,412.4860640999996,1013,22,female,True,4124,4129,False,False,expiration,expiration
75,0.25,25,down,down,0.41674220000095374,1.7530247283129388,,psi_staircase_training,cRDM,,0.21907986835183307,0.2285209828561269,0.1430215921135526,415.00268619999946,1013,22,female,True,4149,4153,False,False,expiration,expiration
76,0.24,25,up,up,0.566824199999246,1.00433516773975,,psi_staircase_training,cRDM,,0.20915963841791985,0.2188501763988397,0.14680005944612534,416.7025985999989,1013,22,female,True,4166,4172,False,False,inspiration,peak
77,0.24,25,up,down,0.4002349000002141,1.7483119076085698,,psi_staircase_training,cRDM,,0.19956505813024208,0.20946792809055345,0.1500166349611642,419.2858218000002,1013,22,female,True,4192,4196,False,False,expiration,inspiration
78,0.29,25,down,down,0.5527161000009073,1.605011386033521,,psi_staircase_training,cRDM,,0.2298395379288549,0.23922975750456335,0.1422505948214977,421.58572379999896,1013,22,female,True,4215,4221,False,False,expiration,expiration
79,0.24,25,down,up,0.5815103999993879,0.9157468137722492,,psi_staircase_training,cRDM,,0.2232086118393572,0.23256630817133006,0.14175790658033258,423.3189908999992,1013,22,female,True,4232,4238,False,False,inspiration,peak
80,0.3,25,up,down,0.7941826999995101,0.7825191874068216,,psi_staircase_training,cRDM,,0.2480202769379684,0.2565638400576285,0.12942476220796675,424.95230599999917,1013,22,female,True,4249,4257,False,False,expiration,expiration
81,0.34,25,up,up,0.8399530999995477,1.466744422705434,,psi_staircase_training,cRDM,,0.2719716417009597,0.2813408042365643,0.14193160585049344,427.48553449999963,1013,22,female,True,4274,4282,False,False,inspiration,expiration
82,100.0,25,M,down,1.4148265999992873,1.9593873933974155,,psi_staircase,emotion,,100.0,100.0,25.00050000000001,442.6516431,1013,22,female,True,4426,4440,False,False,expiration,expiration
83,145.0,25,M,up,0.4566376000002492,1.822680501604824,,psi_staircase,emotion,,145.25719053245996,145.25719053245996,25.000500000000283,446.2348284,1013,22,female,True,4461,4466,False,False,inspiration,inspiration
84,121.0,25,F,up,0.5726625000006607,1.5525634124132193,,psi_staircase,emotion,,120.36392901436103,120.36392901436103,25.71326925488699,448.5847557999987,1013,22,female,True,4485,4491,False,False,inspiration,expiration
85,97.0,25,F,down,0.5211861999996472,1.1474649157250476,,psi_staircase,emotion,,102.38876106084959,102.38876106084959,26.14633372628729,450.6513165999986,1013,22,female,True,4506,4511,False,False,inspiration,inspiration
86,113.0,25,M,up,0.93624760000057,0.7305398266366852,,psi_staircase,emotion,,114.01123255420406,114.01123255420406,23.003056417783352,452.25126300000016,1013,22,female,True,4522,4531,False,False,expiration,expiration
87,105.0,25,F,up,0.7459208000000217,0.4353761638554836,,psi_staircase,emotion,,104.94359593877377,104.94359593877377,22.15060322358215,453.9845435999996,1013,22,female,True,4539,4546,False,False,expiration,expiration
88,92.0,25,M,up,0.5840497999997751,1.262933200172166,,psi_staircase,emotion,,97.32104229908207,97.32104229908207,23.933073614490553,456.3344539999998,1013,22,female,True,4562,4568,False,False,inspiration,expiration
89,74.0,25,F,down,0.6630782000011095,0.3704081791693333,,psi_staircase,emotion,,86.47781129474322,86.47781129474322,31.61110671766409,457.6344181999994,1013,22,female,True,4575,4582,False,False,expiration,trough
90,78.0,25,F,down,0.5998287000002165,0.8632223443221307,,psi_staircase,emotion,,92.62262149239127,92.62262149239127,29.238995941631327,459.5176649999994,1013,22,female,True,4594,4600,False,False,inspiration,expiration
91,80.0,25,M,down,0.3499490000012884,1.90729193526652,,psi_staircase,emotion,,96.60043925312799,96.60043925312799,27.102653483725163,462.367816,1013,22,female,True,4623,4626,False,False,inspiration,inspiration
92,115.0,25,F,down,0.5156602999995812,0.5660041865423545,,psi_staircase,emotion,,99.31700566148264,99.31700566148264,25.224425752927285,463.7008337999996,1013,22,female,True,4636,4641,False,False,peak,expiration
93,127.0,25,F,up,0.4828244999989693,1.8993700491101384,,psi_staircase,emotion,,105.91412206141656,105.91412206141656,30.689138891922717,466.46767689999984,1013,22,female,True,4664,4669,False,False,inspiration,expiration
94,125.0,25,F,up,0.6121348999986367,1.9070002391582297,,psi_staircase,emotion,,103.57177509565037,103.57177509565037,29.262520072278253,469.2173136000001,1013,22,female,True,4691,4697,False,False,expiration,expiration
95,81.0,25,M,up,0.4456630999993649,1.7051569082025864,,psi_staircase,emotion,,101.71432817291284,101.71432817291284,27.946570650599163,471.88387449999937,1013,22,female,True,4718,4722,False,False,inspiration,peak
96,72.0,25,M,down,0.5680298000006587,0.9690542553251632,,psi_staircase,emotion,,95.71569529126127,95.71569529126127,32.86381343160748,473.6504773999986,1013,22,female,True,4736,4742,False,False,expiration,inspiration
97,73.0,25,F,down,0.5164912000000186,1.2020103606720631,,psi_staircase,emotion,,97.64730655623566,97.64730655623566,31.721120162090426,475.7669773999987,1013,22,female,True,4757,4762,False,False,expiration,expiration
98,124.0,25,F,up,0.6095354999997653,1.6819438454062103,,psi_staircase,emotion,,99.227022281684,99.227022281684,30.648108977594276,478.3169598999994,1013,22,female,True,4782,4788,False,False,inspiration,inspiration
99,73.0,25,M,down,0.6372781999998551,1.1415671001204686,,psi_staircase,emotion,,97.83556503254923,97.83556503254923,29.58443060650105,480.4002373999992,1013,22,female,True,4803,4809,False,False,expiration,inspiration
100,123.0,25,M,up,0.6743198999993183,1.8023186709849377,,psi_staircase,emotion,,99.09757940451802,99.09757940451802,28.4924341938207,483.20013149999977,1013,22,female,True,4831,4838,False,False,expiration,expiration
101,74.0,25,M,down,0.6200564000009763,0.7054157627699346,,psi_staircase,emotion,,97.93897296397968,97.93897296397968,27.41606321676219,484.9334009999984,1013,22,female,True,4848,4854,False,False,inspiration,expiration
102,122.0,25,M,up,0.4858953000002657,1.1158234115002768,,psi_staircase,emotion,,98.9873792126159,98.9873792126159,26.33929751661828,487.01665019999933,1013,22,female,True,4869,4874,False,False,expiration,inspiration
103,75.0,25,F,down,0.49955440000121604,0.7792590898255309,,psi_staircase,emotion,,98.01679770604721,98.01679770604721,25.292397101957363,488.64994139999914,1013,22,female,True,4885,4890,False,False,inspiration,expiration
104,121.0,25,F,up,0.5090982999990956,1.2755409695279782,,psi_staircase,emotion,,98.89342725584177,98.89342725584177,24.270683289538326,490.7664098999994,1013,22,female,True,4907,4912,False,False,expiration,expiration
105,76.0,25,F,down,0.4933565999999701,1.7207089713697126,,psi_staircase,emotion,,98.07313933722376,98.07313933722376,23.29018973966836,493.33309839999856,1013,22,female,True,4932,4937,False,False,expiration,expiration
106,119.0,25,M,down,0.78795380000156,1.8879313121952448,,psi_staircase,emotion,,98.81380284880274,98.81380284880274,22.354107815526312,496.0665781999997,1013,22,female,True,4960,4968,False,False,expiration,expiration
107,128.0,25,M,up,0.4929821000005177,1.961429159030784,,psi_staircase,emotion,,102.09712560871478,102.09712560871478,26.347240781661352,499.16648329999947,1013,22,female,True,4991,4996,False,False,expiration,expiration
108,77.0,25,F,down,0.5634623000005377,1.0387599527955975,,psi_staircase,emotion,,101.39959512555667,101.39959512555667,25.45828594993602,501.06604979999975,1013,22,female,True,5010,5016,False,False,expiration,inspiration
109,127.0,25,F,up,0.45011269999849896,1.0661809095483428,,psi_staircase,emotion,,102.06987133261984,102.06987133261984,24.609391331654116,503.0493938,1013,22,female,True,5029,5034,False,False,expiration,expiration
110,79.0,25,M,down,0.5395635000004404,0.5061880360007368,,psi_staircase,emotion,,101.46481868180203,101.46481868180203,23.789032867465078,504.36593029999864,1013,22,female,True,5043,5048,False,False,expiration,expiration
111,125.0,25,M,up,0.549886200000401,1.9770882385670123,,psi_staircase,emotion,,102.08691651809595,102.08691651809595,23.000981357780557,507.2325893999987,1013,22,female,True,5071,5076,False,False,expiration,expiration
112,80.0,25,F,down,0.40022010000029695,0.4795563535451486,,psi_staircase,emotion,,101.52928706127136,101.52928706127136,22.250068408694272,508.5991790999997,1013,22,female,True,5085,5089,False,False,expiration,expiration
113,124.0,25,M,up,0.6680785999997171,1.97713342489717,,psi_staircase,emotion,,102.08748633453126,102.08748633453126,21.53897984400219,511.33243380000016,1013,22,female,True,5112,5119,False,False,expiration,expiration
114,82.0,25,F,down,0.3336454000000231,1.0017770453725714,,psi_staircase,emotion,,101.59166714247576,101.59166714247576,20.87234933557928,513.3655426999994,1013,22,female,True,5133,5136,False,False,inspiration,inspiration
115,84.0,25,M,up,0.4628864000005706,0.5256874307336099,,psi_staircase,emotion,,102.13010585673308,102.13010585673308,20.23181214335115,514.6656200999987,1013,22,female,True,5146,5151,False,False,peak,expiration
116,123.0,25,F,up,0.4168099999988044,1.7676222372997703,,psi_staircase,emotion,,99.84350492086821,99.84350492086821,22.78116106905517,517.2655429999994,1013,22,female,True,5172,5176,False,False,inspiration,inspiration
117,76.0,25,M,down,0.4237540000012814,1.6354222062790285,,psi_staircase,emotion,,99.37965839998593,99.37965839998593,22.138096652324037,519.6657238999996,1013,22,female,True,5196,5200,False,False,expiration,expiration
118,122.0,25,F,up,0.3835326000007626,1.490462601500648,,psi_staircase,emotion,,99.7936697823878,99.7936697823878,21.54387436925269,521.9320415999991,1013,22,female,True,5218,5222,False,False,expiration,expiration
119,120.0,25,M,up,0.5599050000000716,1.8476005736524597,,psi_staircase,emotion,,99.36741570844109,99.36741570844109,20.971056149549266,524.5486046999995,1013,22,female,True,5244,5250,False,False,inspiration,peak
120,78.0,25,M,down,0.4567145000000892,1.6601929152149004,,psi_staircase,emotion,,98.94686613181936,98.94686613181936,20.439767207649115,527.1318445999987,1013,22,female,True,5270,5275,False,False,inspiration,inspiration
121,119.0,25,F,up,0.9066530000000056,0.6444973460224042,,psi_staircase,emotion,,99.35002649040052,99.35002649040052,19.923607009962453,528.5818008999995,1013,22,female,True,5285,5294,False,False,expiration,expiration
122,80.0,25,F,down,0.8401192000001174,0.9026212317380056,,psi_staircase,emotion,,98.95282878372934,98.95282878372934,19.451238856022147,530.7483563999995,1013,22,female,True,5306,5314,False,False,trough,inspiration
123,117.0,25,F,up,0.8335501000001386,1.4690322380765533,,psi_staircase,emotion,,99.35381651819745,99.35381651819745,18.991278545126697,533.4149596999996,1013,22,female,True,5333,5341,False,False,expiration,trough
124,81.0,25,M,down,0.4996005000011792,0.7055666232452161,,psi_staircase,emotion,,98.94829779571499,98.94829779571499,18.56646398518682,535.3148929999987,1013,22,female,True,5352,5357,False,False,inspiration,inspiration
125,116.0,25,M,up,0.5743469999997615,1.685342085087299,,psi_staircase,emotion,,99.32865917354376,99.32865917354376,18.159661576366343,537.8481080000001,1013,22,female,True,5377,5383,False,False,inspiration,inspiration
126,82.0,25,F,down,0.5385196000006545,0.981766256354174,,psi_staircase,emotion,,98.93650747969,98.93650747969,17.77880372696687,539.7650014999998,1013,22,female,True,5397,5402,False,False,expiration,expiration
127,114.0,25,F,down,0.8364969000012934,0.3249373988048247,,psi_staircase,emotion,,99.30192684953009,99.30192684953009,17.417240555741866,540.9980090999999,1013,22,female,True,5409,5417,False,False,expiration,expiration
128,83.0,25,F,down,0.6212267999999312,1.3161205356805392,,psi_staircase,emotion,,100.90712181021006,100.90712181021006,18.765400687221685,543.4812511,1013,22,female,True,5434,5440,False,False,inspiration,expiration
129,84.0,25,M,down,0.530786100000114,1.9052721736761256,,psi_staircase,emotion,,101.25178801559838,101.25178801559838,18.38936335375012,546.3647493999997,1013,22,female,True,5463,5468,False,False,inspiration,peak
130,120.0,25,M,up,0.5904176999993069,1.7396287419235137,,psi_staircase,emotion,,101.58750929563203,101.58750929563203,18.04012767695506,548.9810548999994,1013,22,female,True,5489,5495,False,False,inspiration,expiration
131,85.0,25,M,down,0.5115046999999322,0.816931437660698,,psi_staircase,emotion,,101.28430923078474,101.28430923078474,17.702610091972392,550.7310044999995,1013,22,female,True,5506,5511,False,False,expiration,expiration
132,0.29,25,up,down,0.8101450000012846,1.72096278750778,,psi_staircase,cRDM,,0.25,0.25693124029946324,0.10500000000000002,558.2973649999984,1013,22,female,True,5582,5590,False,False,inspiration,expiration
133,0.39,25,up,up,0.6631868999993458,0.7846223678089232,,psi_staircase,cRDM,,0.3546095744690497,0.36161092129536426,0.10606203002656786,560.1473112999993,1013,22,female,True,5600,5607,False,False,expiration,expiration
134,0.38,25,down,down,0.4912667000007786,0.5605530217797111,,psi_staircase,cRDM,,0.33579878490349385,0.3429317268363466,0.10805553848818844,561.6472335999988,1013,22,female,True,5615,5620,False,False,expiration,expiration
135,0.35000000000000003,25,down,up,0.6643157999988034,0.5319179682673967,,psi_staircase,cRDM,,0.31782208253394256,0.3249720550198983,0.10831353099725742,562.9471956999987,1013,22,female,True,5628,5635,False,False,expiration,expiration
136,0.41,25,up,up,0.6336863999986235,1.0860624411473736,,psi_staircase,cRDM,,0.3802090138738961,0.38712606003695305,0.10478497581121576,564.9638249,1013,22,female,True,5649,5655,False,False,inspiration,peak
137,0.4,25,down,down,0.5600952999993751,0.7108600988859484,,psi_staircase,cRDM,,0.3683317485518004,0.3751914040682512,0.10391557616074952,566.580403599999,1013,22,female,True,5665,5671,False,False,expiration,expiration
138,0.4,25,up,up,0.5326186000002053,1.3489039296544287,,psi_staircase,cRDM,,0.3573248709371661,0.3640336778518085,0.10163040027511347,568.7469418000002,1013,22,female,True,5686,5691,False,False,expiration,expiration
139,0.4,25,down,up,0.7475924999998824,1.9017979780592529,,psi_staircase,cRDM,,0.3479501384639377,0.3544107507010633,0.09787054777926564,571.4468821999999,1013,22,female,True,5713,5720,False,False,inspiration,expiration
140,0.43,25,down,down,0.6879984000006516,1.4417599549686861,,psi_staircase,cRDM,,0.38998847681835214,0.3981267592557005,0.12328524463186565,573.913475899999,1013,22,female,True,5738,5745,False,False,inspiration,expiration
141,0.43,25,up,up,0.5591910000002827,1.3825380617981755,,psi_staircase,cRDM,,0.3809125439169642,0.3890213775075019,0.1228391298267918,576.2633065999999,1013,22,female,True,5762,5768,False,False,inspiration,inspiration
142,0.42,25,down,down,0.4394993999994768,1.1063080082969263,,psi_staircase,cRDM,,0.37273006597629293,0.3807096126832653,0.12088058818231648,578.1800051999999,1013,22,female,True,5781,5785,False,False,expiration,expiration
143,0.38,25,down,down,0.6349304000013944,1.7230601525111942,,psi_staircase,cRDM,,0.3648399856664832,0.372656909128306,0.11841704053384873,580.5965457000002,1013,22,female,True,5805,5811,False,False,expiration,inspiration
144,0.38,25,down,down,0.5866822999996657,0.7802488992371659,,psi_staircase,cRDM,,0.3540000538045082,0.3620625125626097,0.12213660658485714,582.2798776000001,1013,22,female,True,5822,5828,False,False,expiration,expiration
145,0.38,25,up,up,0.3671968000016932,1.0878972987556437,,psi_staircase,cRDM,,0.34352856793308195,0.3517157695970997,0.124026312403053,584.2130842999994,1013,22,female,True,5841,5845,False,False,expiration,inspiration
146,0.39,25,up,up,0.53717830000096,1.652677388199037,,psi_staircase,cRDM,,0.3337446980842381,0.34195249841096875,0.1243383575048552,586.5463115999993,1013,22,female,True,5864,5869,False,False,expiration,expiration
147,0.34,25,down,down,0.5702849999997852,1.2928264986213305,,psi_staircase,cRDM,,0.3257992099480813,0.3338614465085021,0.1221332405557685,588.6462488999988,1013,22,female,True,5885,5891,False,False,inspiration,expiration
148,0.34,25,down,up,0.5382890000000771,1.0822855864806489,,psi_staircase,cRDM,,0.3130068119635975,0.3215668428424797,0.12967422906290493,590.546171,1013,22,female,True,5904,5909,False,False,expiration,inspiration
149,0.39,25,up,up,0.4947095000006812,0.5592288007804196,,psi_staircase,cRDM,,0.3491491244281089,0.3566489284533838,0.11361306038038332,591.912808699999,1013,22,female,True,5918,5923,False,False,inspiration,expiration
150,0.39,25,up,up,0.5817815999998857,1.2346379818526656,,psi_staircase,cRDM,,0.3432596893579635,0.3505011563685949,0.10969956360843283,593.9127351999996,1013,22,female,True,5938,5944,False,False,expiration,expiration
151,0.39,25,up,up,0.5298630999986926,1.3482021818287302,,psi_staircase,cRDM,,0.33831366370875643,0.3452547828318868,0.10514965236238057,596.1126525999989,1013,22,female,True,5960,5965,False,False,inspiration,expiration
152,0.39,25,up,down,0.5230229999997391,0.3564887412780456,,psi_staircase,cRDM,,0.3342834695662004,0.3408982961990529,0.10020671141690098,597.2625367,1013,22,female,True,5972,5977,False,False,expiration,expiration
153,0.41,25,down,down,0.5279833000004146,1.5656694085248335,,psi_staircase,cRDM,,0.3544077262539951,0.3631711262169601,0.1327550274346421,599.6125241999998,1013,22,female,True,5995,6000,False,False,inspiration,peak
154,0.41,25,down,down,0.5461364999991929,1.860939994367212,,psi_staircase,cRDM,,0.3491595173502447,0.35771059119981924,0.12953854078249938,602.2623746999998,1013,22,female,True,6022,6027,False,False,inspiration,inspiration
155,0.37,25,down,down,0.6754662000003009,1.5958613912026025,,psi_staircase,cRDM,,0.34451775106953114,0.3528303563004906,0.12592602644555995,604.6790118999998,1013,22,female,True,6046,6053,False,False,expiration,inspiration
156,0.37,25,up,up,0.5270164999983535,1.6598591355912606,,psi_staircase,cRDM,,0.3370304251124406,0.3455302980857137,0.12876290874849514,607.2624971999994,1013,22,female,True,6072,6077,False,False,expiration,expiration
157,0.34,25,up,up,0.44640570000046864,1.8575455250768005,,psi_staircase,cRDM,,0.3299767596055874,0.33858164384829503,0.13035370387523104,609.9121395000002,1013,22,female,True,6098,6102,False,False,expiration,expiration
158,0.33,25,down,down,0.6606277000009868,1.4468499768755574,,psi_staircase,cRDM,,0.3210949432451831,0.33014497801988396,0.13709720198521727,612.0618969999996,1013,22,female,True,6120,6127,False,False,inspiration,peak
159,0.33,25,down,down,0.6948068000001513,1.9992165972974407,,psi_staircase,cRDM,,0.3119998696678856,0.3214466032309249,0.14310671413252452,614.9786672999999,1013,22,female,True,6149,6156,False,False,inspiration,inspiration
160,0.33,25,up,up,0.5149643000004289,1.779190093111189,,psi_staircase,cRDM,,0.3030806637054533,0.3128363993533565,0.14778772611723656,617.7285372999995,1013,22,female,True,6176,6181,False,False,expiration,expiration
161,0.33,25,up,up,0.4976950000000216,0.9596449225452954,,psi_staircase,cRDM,,0.2944498222393073,0.3044414313406733,0.15136092680622634,619.4618197000001,1013,22,female,True,6194,6199,False,False,expiration,expiration
162,0.32,25,down,down,0.6107611000006727,1.4862241248972043,,psi_staircase,cRDM,,0.28616188969985634,0.2963312032595857,0.1540529367960695,621.7117139000002,1013,22,female,True,6216,6222,False,False,inspiration,inspiration
163,0.32,25,up,up,0.6992008000015629,0.5514788879566288,,psi_staircase,cRDM,,0.2778781851519537,0.2882031882971298,0.15641144779347052,623.1283119999988,1013,22,female,True,6230,6237,False,False,expiration,expiration
164,0.28,25,down,up,0.5779452999995556,0.96980593116631,,psi_staircase,cRDM,,0.26990597477532885,0.2803511269354629,0.1582315616584539,625.0615318,1013,22,female,True,6250,6256,False,False,inspiration,expiration
165,0.33,25,up,up,0.4749637000004441,0.8004873493251594,,psi_staircase,cRDM,,0.2951009801478132,0.30505203829570104,0.15074662836449856,626.7115247999992,1013,22,female,True,6266,6271,False,False,expiration,expiration
166,0.33,25,down,down,0.4836530000011408,1.438701135094726,,psi_staircase,cRDM,,0.2883845620152822,0.2984303367647813,0.1521814715872832,628.8948100999988,1013,22,female,True,6288,6293,False,False,expiration,expiration
167,0.33,25,up,up,0.5801145000004908,1.3644105889476097,,psi_staircase,cRDM,,0.28196552661927343,0.2920775633601301,0.15318526149961526,631.0113839999995,1013,22,female,True,6309,6315,False,False,inspiration,peak
168,0.28,25,down,down,0.5172242000007827,1.7954104779989923,,psi_staircase,cRDM,,0.2758361870776991,0.28599206678989536,0.15384943007432395,633.6612881000002,1013,22,female,True,6336,6341,False,False,inspiration,inspiration
169,0.27,25,up,up,0.4950583999998344,1.301446619737985,,psi_staircase,cRDM,,0.26828353302154023,0.27863438884675434,0.1568030849733551,635.7614534999992,1013,22,female,True,6357,6362,False,False,expiration,expiration
170,0.27,25,up,up,0.8767246000006708,1.0025735393746191,,psi_staircase,cRDM,,0.2605323784431578,0.271073804746476,0.15968999977307394,637.5278074999987,1013,22,female,True,6374,6383,False,False,inspiration,expiration
171,0.25,25,down,down,0.8351210999990144,1.9183750900179792,,psi_staircase,cRDM,,0.2528243833025499,0.2635349450127466,0.1622521988824626,640.5943458000003,1013,22,female,True,6405,6413,False,False,inspiration,expiration
172,0.24,25,down,up,0.702595000000656,1.8170808267925103,,psi_staircase,cRDM,,0.2446983379205632,0.255591761643729,0.16502233965557173,643.5109088999998,1013,22,female,True,6434,6441,False,False,inspiration,inspiration
173,0.27,25,down,down,0.8853276999998343,0.9109581076292864,,psi_staircase,cRDM,,0.2662240686230675,0.27665092000277136,0.15795432672471135,645.3941760999987,1013,22,female,True,6453,6462,False,False,expiration,expiration
174,0.26,25,up,up,0.4303042000010464,0.8141261253977305,,psi_staircase,cRDM,,0.2593792195123859,0.26996191276538795,0.16031514470090746,647.3441136000001,1013,22,female,True,6473,6477,False,False,expiration,trough
175,0.25,25,up,up,0.4541804000000411,1.528243287372859,,psi_staircase,cRDM,,0.2523774666351236,0.26311876348820995,0.1627177995345807,649.5773982999998,1013,22,female,True,6495,6500,False,False,expiration,expiration
176,0.23,25,down,down,0.4895281999997678,1.7509865800265692,,psi_staircase,cRDM,,0.24521384337988425,0.2561172016964935,0.16517283686335751,652.0439264999986,1013,22,female,True,6519,6524,False,False,expiration,inspiration
177,0.23,25,down,up,0.7382854999996198,0.4753455531054643,,psi_staircase,cRDM,,0.23770185945405306,0.2487863379796365,0.16791659138933518,653.2772126,1013,22,female,True,6532,6539,False,False,peak,expiration
178,0.25,25,down,down,0.4927270999996836,1.9171564045938725,,psi_staircase,cRDM,,0.2568963378738135,0.26755157799936474,0.16141414304587284,656.1937902999998,1013,22,female,True,6561,6566,False,False,inspiration,inspiration
179,0.24,25,up,up,0.4258871000001818,1.6098927323103822,,psi_staircase,cRDM,,0.2503957959047326,0.2612040535846955,0.16373217596913847,658.5606257000001,1013,22,female,True,6585,6589,False,False,expiration,expiration
180,0.23,25,up,down,0.6834795000013401,0.31100800246493465,,psi_staircase,cRDM,,0.24375404385054705,0.2547215368782713,0.16614440102447808,659.5770212999996,1013,22,female,True,6595,6602,False,False,expiration,expiration
181,0.26,25,up,up,0.5393110999993951,1.8827461446804312,,psi_staircase,cRDM,,0.2605913104295932,0.2711501493924131,0.15995378073704086,662.4102004999986,1013,22,female,True,6623,6628,False,False,inspiration,expiration
182,108.0,25,F,up,0.796241200001532,1.550922289068711,,experiment,emotion,0.0,,,,670.9432406999987,1013,22,female,True,6709,6717,False,False,expiration,expiration
183,94.0,25,M,down,0.5610089000001608,0.5901867106728511,,experiment,emotion,0.0,,,,672.6265070999998,1013,22,female,True,6725,6731,False,False,expiration,expiration
184,103.0,25,F,up,0.41681400000015856,0.4941144416382198,,experiment,emotion,0.0,,,,673.9597957999995,1013,22,female,True,6739,6743,False,False,expiration,expiration
185,108.0,25,M,up,0.9805225000000064,0.3823090156891201,,experiment,emotion,0.0,,,,675.0430158999989,1013,22,female,True,6750,6760,False,False,expiration,expiration
186,103.0,25,F,down,0.4848103000003903,1.0763733121463472,,experiment,emotion,0.0,,,,677.3596851999991,1013,22,female,True,6773,6778,False,False,expiration,expiration
187,99.0,25,F,down,0.6925986000005651,0.4309429884632045,,experiment,emotion,0.0,,,,678.5429469999998,1013,22,female,True,6784,6791,False,False,expiration,expiration
188,94.0,25,M,down,0.6086448000005475,1.3845572095672825,,experiment,emotion,0.0,,,,680.8928758999991,1013,22,female,True,6808,6814,False,False,expiration,expiration
189,99.0,25,F,up,0.8800398000003042,0.7347705927569341,,experiment,emotion,0.0,,,,682.5094758999985,1013,22,female,True,6824,6833,False,False,inspiration,expiration
190,108.0,25,M,up,0.7650917999999365,1.4535435280003242,,experiment,emotion,0.0,,,,685.1094023999995,1013,22,female,True,6850,6858,False,False,expiration,inspiration
191,99.0,25,M,up,0.4685090000002674,1.0762217533964915,,experiment,emotion,0.0,,,,687.2259772999988,1013,22,female,True,6871,6876,False,False,expiration,expiration
192,103.0,25,F,up,0.6749600000002829,1.5673179003976003,,experiment,emotion,0.0,,,,689.5425466999986,1013,22,female,True,6894,6901,False,False,inspiration,peak
193,108.0,25,M,down,0.5376987000017834,0.7304767137199915,,experiment,emotion,0.0,,,,691.2258324999983,1013,22,female,True,6911,6916,False,False,expiration,expiration
194,103.0,25,M,up,0.7746393000015814,1.2226574446455163,,experiment,emotion,0.0,,,,693.2590001999997,1013,22,female,True,6932,6940,False,False,inspiration,expiration
195,94.0,25,M,down,0.6395198999998684,1.5819707605281077,,experiment,emotion,0.0,,,,695.9090077000002,1013,22,female,True,6958,6964,False,False,inspiration,peak
196,99.0,25,F,up,0.5246159000016632,1.1810578373678706,,experiment,emotion,0.0,,,,698.0089307999988,1013,22,female,True,6979,6984,False,False,expiration,inspiration
197,94.0,25,F,down,0.4168669000009686,1.7641915471817369,,experiment,emotion,0.0,,,,700.5588183999989,1013,22,female,True,7005,7009,False,False,expiration,expiration
198,108.0,25,M,up,0.4470741000004637,1.8599335860231896,,experiment,emotion,0.0,,,,703.125409299999,1013,22,female,True,7030,7034,False,False,expiration,expiration
199,94.0,25,M,up,0.7314905000002909,0.4651014605340754,,experiment,emotion,0.0,,,,704.2920298999996,1013,22,female,True,7042,7049,False,False,expiration,expiration
200,103.0,25,F,down,0.4192544999987149,1.373853967361925,,experiment,emotion,0.0,,,,706.6752660999991,1013,22,female,True,7066,7070,False,False,expiration,expiration
201,103.0,25,F,up,0.7598797999999078,0.763713485250624,,experiment,emotion,0.0,,,,708.1085488999997,1013,22,female,True,7080,7088,False,False,expiration,expiration
202,99.0,25,M,down,0.6487957999997889,1.7037808708183242,,experiment,emotion,0.0,,,,710.8587360000001,1013,22,female,True,7108,7114,False,False,expiration,expiration
203,99.0,25,F,down,0.6648045999991155,1.3029778756139354,,experiment,emotion,0.0,,,,713.0917079999998,1013,22,female,True,7130,7137,False,False,expiration,inspiration
204,94.0,25,M,down,0.584524899999451,0.5358803494398643,,experiment,emotion,0.0,,,,714.5749993999997,1013,22,female,True,7145,7151,False,False,expiration,expiration
205,108.0,25,F,down,0.4859957999997278,1.5151792338459549,,experiment,emotion,0.0,,,,716.9584833999997,1013,22,female,True,7169,7174,False,False,inspiration,inspiration
206,103.0,25,F,up,0.5373350999998365,0.5964627205427895,,experiment,emotion,0.0,,,,718.3081581999995,1013,22,female,True,7182,7187,False,False,expiration,expiration
207,94.0,25,M,up,0.7730774999999994,1.965239096230148,,experiment,emotion,0.0,,,,721.0914111000003,1013,22,female,True,7210,7218,False,False,expiration,expiration
208,108.0,25,M,up,0.7084918000000471,0.4636855833119426,,experiment,emotion,0.0,,,,722.6080119999988,1013,22,female,True,7225,7232,False,False,expiration,inspiration
209,108.0,25,F,up,0.5975139000001946,0.3771742970465183,,experiment,emotion,0.0,,,,723.9580129999996,1013,22,female,True,7239,7245,False,False,inspiration,expiration
210,99.0,25,M,up,0.7029220000003988,1.176741455226254,,experiment,emotion,0.0,,,,726.0245543999989,1013,22,female,True,7259,7266,False,False,expiration,expiration
211,94.0,25,F,up,0.7171343999998498,1.2243205956038046,,experiment,emotion,0.0,,,,728.2413944,1013,22,female,True,7282,7289,False,False,expiration,expiration
212,99.0,25,M,down,0.5374879999999393,1.3571072244552735,,experiment,emotion,0.0,,,,730.5910508999988,1013,22,female,True,7305,7310,False,False,inspiration,inspiration
213,103.0,25,F,down,0.3835557999991579,1.3236491045170775,,experiment,emotion,0.0,,,,732.7409088999992,1013,22,female,True,7327,7331,False,False,expiration,expiration
214,94.0,25,M,down,0.5280951000004279,0.8926136489384346,,experiment,emotion,0.0,,,,734.3075885999988,1013,22,female,True,7342,7347,False,False,expiration,inspiration
215,108.0,25,F,up,0.8199621000003392,0.3463353178716643,,experiment,emotion,0.0,,,,735.4575494999989,1013,22,female,True,7354,7362,False,False,peak,expiration
216,103.0,25,M,down,0.6873544000009133,1.6242093615507982,,experiment,emotion,0.0,,,,738.1741208999993,1013,22,female,True,7381,7388,False,False,inspiration,expiration
217,108.0,25,F,up,0.6301352000009501,1.5324061832715232,,experiment,emotion,0.0,,,,740.6573642999992,1013,22,female,True,7406,7412,False,False,trough,inspiration
218,94.0,25,M,down,0.6082202999987203,1.1541523946212295,,experiment,emotion,0.0,,,,742.7073057999988,1013,22,female,True,7426,7432,False,False,expiration,expiration
219,103.0,25,F,up,0.9296600000016042,1.3352685548949579,,experiment,emotion,0.0,,,,744.9238625999988,1013,22,female,True,7448,7457,False,False,inspiration,expiration
220,99.0,25,M,up,0.635372599999755,0.304615408775547,,experiment,emotion,0.0,,,,746.457136699999,1013,22,female,True,7464,7470,False,False,expiration,expiration
221,99.0,25,F,up,0.6794133000003058,0.5458496403966765,,experiment,emotion,0.0,,,,747.9070811999991,1013,22,female,True,7478,7485,False,False,expiration,trough
222,103.0,25,F,up,0.528393500000675,0.9785867097299144,,experiment,emotion,0.0,,,,749.8401911000002,1013,22,female,True,7498,7503,False,False,expiration,expiration
223,108.0,25,M,down,0.7125875000001543,1.740579962837555,,experiment,emotion,0.0,,,,752.4069225999992,1013,22,female,True,7523,7530,False,False,inspiration,inspiration
224,99.0,25,F,up,0.7163763999997173,1.5010141882185524,,experiment,emotion,0.0,,,,754.8901473999996,1013,22,female,True,7548,7555,False,False,expiration,inspiration
225,94.0,25,M,up,0.7424224999995204,0.525497470947793,,experiment,emotion,0.0,,,,756.3901037999984,1013,22,female,True,7563,7570,False,False,peak,expiration
226,94.0,25,M,up,0.6478191999995033,0.7944950120510088,,experiment,emotion,0.0,,,,758.2067042999988,1013,22,female,True,7581,7587,False,False,expiration,expiration
227,99.0,25,F,up,0.6489323999994667,0.8719739292337934,,experiment,emotion,0.0,,,,760.0066296999994,1013,22,female,True,7599,7605,False,False,inspiration,peak
228,108.0,25,F,up,0.4763660999997228,0.8914471441161458,,experiment,emotion,0.0,,,,761.8232169999992,1013,22,female,True,7617,7622,False,False,expiration,expiration
229,103.0,25,M,down,0.6252812999991875,1.7316771994716378,,experiment,emotion,0.0,,,,764.3231575999997,1013,22,female,True,7642,7648,False,False,expiration,expiration
230,94.0,25,F,down,0.5081675000001269,1.6290117607253154,,experiment,emotion,0.0,,,,766.8397193999989,1013,22,female,True,7667,7672,False,False,inspiration,inspiration
231,108.0,25,M,up,0.6731966000006651,0.7313612136597947,,experiment,emotion,0.0,,,,768.3563645999983,1013,22,female,True,7683,7690,False,False,expiration,expiration
232,103.0,25,M,up,0.5225396000005276,0.3793694718239477,,experiment,emotion,0.0,,,,769.6729743999987,1013,22,female,True,7696,7701,False,False,inspiration,inspiration
233,103.0,25,M,down,0.6240878999997221,1.7875701860187063,,experiment,emotion,0.0,,,,772.2564430000003,1013,22,female,True,7722,7728,False,False,expiration,expiration
234,94.0,25,M,down,0.8246380000000499,1.0271580332205101,,experiment,emotion,0.0,,,,774.1728128999985,1013,22,female,True,7741,7749,False,False,inspiration,expiration
235,99.0,25,M,down,0.8254973999992217,1.7430200574235306,,experiment,emotion,0.0,,,,777.0059989999991,1013,22,female,True,7769,7777,False,False,inspiration,peak
236,108.0,25,F,up,0.6685606999999436,1.1642350775221921,,experiment,emotion,0.0,,,,779.2559540000003,1013,22,female,True,7792,7799,False,False,expiration,expiration
237,99.0,25,F,up,0.8223518000013428,0.3672182909426074,,experiment,emotion,0.0,,,,780.5561425999987,1013,22,female,True,7805,7813,False,False,inspiration,inspiration
238,99.0,25,F,up,0.6450344000004407,0.7844137640044153,,experiment,emotion,0.0,,,,782.4224599999997,1013,22,female,True,7823,7829,False,False,expiration,expiration
239,99.0,25,M,up,0.6014205999999831,1.1017357586789085,,experiment,emotion,0.0,,,,784.4390640000001,1013,22,female,True,7843,7849,False,False,expiration,inspiration
240,108.0,25,F,up,0.5328005999999732,1.580920323736526,,experiment,emotion,0.0,,,,786.905673899999,1013,22,female,True,7868,7873,False,False,expiration,expiration
241,103.0,25,F,up,1.0482981000004656,1.3933853061974948,,experiment,emotion,0.0,,,,789.1222574999993,1013,22,female,True,7890,7900,False,False,inspiration,expiration
242,94.0,25,F,up,0.6136913999998796,0.8249269313174161,,experiment,emotion,0.0,,,,791.2888179999991,1013,22,female,True,7912,7918,False,False,expiration,inspiration
243,94.0,25,M,up,0.6963685999999143,0.5548586568765739,,experiment,emotion,0.0,,,,792.7220892999994,1013,22,female,True,7926,7933,False,False,peak,expiration
244,103.0,25,F,down,1.0644941999998991,1.7404771635544745,,experiment,emotion,0.0,,,,795.4219963999984,1013,22,female,True,7953,7964,False,False,inspiration,expiration
245,108.0,25,M,up,1.145605899999282,1.818008294916564,,experiment,emotion,0.0,,,,798.5719208999999,1013,22,female,True,7985,7996,False,False,inspiration,expiration
246,108.0,25,M,up,0.7300404000015988,1.7972124619655891,,experiment,emotion,0.0,,,,801.7884548999991,1013,22,female,True,8017,8024,False,False,inspiration,inspiration
247,94.0,25,F,down,0.6551218999993579,0.7053956881944731,,experiment,emotion,0.0,,,,803.4883777999985,1013,22,female,True,8034,8041,False,False,inspiration,inspiration
248,108.0,25,M,up,1.0778814000004786,1.6473460602703982,,experiment,emotion,0.0,,,,806.0716223999989,1013,22,female,True,8060,8071,False,False,expiration,expiration
249,99.0,25,F,up,0.6743005000007543,1.9606464434492,,experiment,emotion,0.0,,,,809.3881607999992,1013,22,female,True,8093,8100,False,False,expiration,expiration
250,103.0,25,M,up,0.6974312000002101,0.8244474020509441,,experiment,emotion,0.0,,,,811.1880980999996,1013,22,female,True,8111,8118,False,False,expiration,inspiration
251,99.0,25,F,down,0.5625980999993772,0.5784845010839161,,experiment,emotion,0.0,,,,812.7379743000001,1013,22,female,True,8127,8133,False,False,expiration,expiration
252,94.0,25,M,up,1.2251962000009369,1.3960647707513738,,experiment,emotion,0.0,,,,814.9712927999989,1013,22,female,True,8149,8161,False,False,inspiration,expiration
253,103.0,25,F,up,0.6763124999997672,0.3067771611154286,,experiment,emotion,0.0,,,,816.7712255999995,1013,22,female,True,8167,8174,False,False,expiration,expiration
254,99.0,25,F,down,0.7283539000000019,1.40543189159008,,experiment,emotion,0.0,,,,819.1211320999993,1013,22,female,True,8190,8197,False,False,inspiration,expiration
255,103.0,25,F,down,0.6748136999995041,1.3229499105351286,,experiment,emotion,0.0,,,,821.4376837,1013,22,female,True,8214,8221,False,False,expiration,expiration
256,94.0,25,F,down,0.5992065999998886,1.8223533101821927,,experiment,emotion,0.0,,,,824.2042703999997,1013,22,female,True,8241,8247,False,False,expiration,expiration
257,108.0,25,F,up,0.9179790999987744,1.75366397321573,,experiment,emotion,0.0,,,,826.8375347000001,1013,22,female,True,8268,8277,False,False,inspiration,expiration
258,103.0,25,M,down,0.6917468999999983,1.426216590495796,,experiment,emotion,0.0,,,,829.4707571999987,1013,22,female,True,8294,8301,False,False,inspiration,peak
259,108.0,25,M,up,0.6661497000004601,1.0434029325674523,,experiment,emotion,0.0,,,,831.4873449999997,1013,22,female,True,8314,8321,False,False,expiration,expiration
260,94.0,25,M,down,0.8493465999999898,0.9037429881868072,,experiment,emotion,0.0,,,,833.3371424999988,1013,22,female,True,8333,8341,False,False,inspiration,inspiration
261,99.0,25,M,down,0.8180133999994723,1.6554159564344966,,experiment,emotion,0.0,,,,836.120498299999,1013,22,female,True,8360,8368,False,False,inspiration,peak
262,0.254819686286807,25,up,up,0.8191464000010455,0.6504804823807792,,experiment,cRDM,0.0,,,,840.9703666999994,1013,22,female,True,8409,8417,False,False,expiration,expiration
263,0.254819686286807,25,up,up,0.5823039000006247,1.067149079738857,,experiment,cRDM,0.0,,,,843.1202558999994,1013,22,female,True,8430,8436,False,False,expiration,expiration
264,0.254819686286807,25,down,down,0.9342916999994486,1.6531702809069415,,experiment,cRDM,0.0,,,,845.6201631999992,1013,22,female,True,8455,8464,False,False,inspiration,expiration
265,0.254819686286807,25,down,up,0.6063794000001508,0.9583801914983644,,experiment,cRDM,0.0,,,,847.7701093999984,1013,22,female,True,8477,8483,False,False,expiration,expiration
266,0.254819686286807,25,up,up,0.5138212999991083,1.504293026771054,,experiment,cRDM,0.0,,,,850.1366729999991,1013,22,female,True,8500,8505,False,False,expiration,expiration
267,0.254819686286807,25,down,down,0.5789645000004384,1.8646377049968903,,experiment,cRDM,0.0,,,,852.7865604999988,1013,22,female,True,8527,8533,False,False,inspiration,inspiration
268,0.254819686286807,25,up,up,0.5777004999999917,1.6605131366208763,,experiment,cRDM,0.0,,,,855.2698397999992,1013,22,female,True,8552,8558,False,False,inspiration,inspiration
269,0.254819686286807,25,up,up,0.54442840000047,1.1886611642502485,,experiment,cRDM,0.0,,,,857.3030744999996,1013,22,female,True,8572,8577,False,False,expiration,expiration
270,0.254819686286807,25,down,up,0.6271876999999222,0.31251464043670835,,experiment,cRDM,0.0,,,,858.4363689999991,1013,22,female,True,8583,8589,False,False,inspiration,inspiration
271,0.254819686286807,25,down,down,0.8618848999994952,0.6915787452761072,,experiment,cRDM,0.0,,,,860.0196068999994,1013,22,female,True,8599,8608,False,False,inspiration,expiration
272,0.254819686286807,25,down,up,0.8273169000003691,0.5859419151986698,,experiment,cRDM,0.0,,,,861.7362235999989,1013,22,female,True,8616,8624,False,False,expiration,expiration
273,0.254819686286807,25,down,up,0.8630272999998851,1.844340254266324,,experiment,cRDM,0.0,,,,864.6694837999985,1013,22,female,True,8646,8655,False,False,expiration,expiration
274,0.254819686286807,25,down,down,0.5445161000006921,1.9380606484773328,,experiment,cRDM,0.0,,,,867.7359765000001,1013,22,female,True,8677,8682,False,False,inspiration,expiration
275,0.254819686286807,25,down,up,0.6304841000001034,0.4896393166927959,,experiment,cRDM,0.0,,,,869.0360111999997,1013,22,female,True,8690,8696,False,False,expiration,expiration
276,0.254819686286807,25,up,down,0.9368682999993324,0.7746258981989039,,experiment,cRDM,0.0,,,,870.7025829999983,1013,22,female,True,8706,8715,False,False,inspiration,peak
277,0.254819686286807,25,up,up,0.6729850000010629,0.8011444031301322,,experiment,cRDM,0.0,,,,872.7025092999993,1013,22,female,True,8726,8733,False,False,expiration,inspiration
278,0.254819686286807,25,up,up,0.9151154000010138,1.3578888106926303,,experiment,cRDM,0.0,,,,875.0024108999988,1013,22,female,True,8749,8758,False,False,expiration,expiration
279,0.254819686286807,25,up,up,0.7454722999991645,0.4896344353290961,,experiment,cRDM,0.0,,,,876.6690225000003,1013,22,female,True,8766,8773,False,False,expiration,inspiration
280,0.254819686286807,25,down,up,0.5828572000009444,0.41313569725713134,,experiment,cRDM,0.0,,,,878.0856360999987,1013,22,female,True,8780,8786,False,False,inspiration,expiration
281,0.254819686286807,25,up,up,0.690613900000244,1.587404831957553,,experiment,cRDM,0.0,,,,880.5188671999987,1013,22,female,True,8804,8811,False,False,expiration,expiration
282,0.254819686286807,25,up,down,0.4414083000010578,1.8291030961495465,,experiment,cRDM,0.0,,,,883.3021141999997,1013,22,female,True,8832,8836,False,False,expiration,expiration
283,0.254819686286807,25,down,down,0.5785039999991568,1.554978041250222,,experiment,cRDM,0.0,,,,885.5520575999999,1013,22,female,True,8855,8861,False,False,inspiration,inspiration
284,0.254819686286807,25,up,up,0.9815017000000807,1.26308114416026,,experiment,cRDM,0.0,,,,887.6519952999988,1013,22,female,True,8876,8886,False,False,expiration,expiration
285,0.254819686286807,25,down,down,0.5543125000003783,0.4451415088632396,,experiment,cRDM,0.0,,,,889.3351839999997,1013,22,female,True,8893,8899,False,False,inspiration,peak
286,0.254819686286807,25,down,up,0.6768217000008008,1.2057922211937042,,experiment,cRDM,0.0,,,,891.3518564999996,1013,22,female,True,8913,8920,False,False,expiration,expiration
287,0.254819686286807,25,up,up,0.6877361999995628,0.5597142920107254,,experiment,cRDM,0.0,,,,892.8517541000001,1013,22,female,True,8928,8935,False,False,trough,inspiration
288,0.254819686286807,25,up,up,0.7102892000002612,0.8131046336468848,,experiment,cRDM,0.0,,,,894.6183695000001,1013,22,female,True,8945,8952,False,False,expiration,expiration
289,0.254819686286807,25,down,down,0.6105738999995083,1.5287343745254345,,experiment,cRDM,0.0,,,,897.1349208999999,1013,22,female,True,8971,8977,False,False,expiration,expiration
290,0.254819686286807,25,up,up,0.6003419999997277,1.9049768103164368,,experiment,cRDM,0.0,,,,899.9181537999992,1013,22,female,True,8998,9004,False,False,inspiration,expiration
291,0.254819686286807,25,down,down,0.7740327999999863,1.0099499843499775,,experiment,cRDM,0.0,,,,901.8014124999993,1013,22,female,True,9017,9025,False,False,expiration,inspiration
292,0.254819686286807,25,down,up,0.7075519000009081,1.7799481268159107,,experiment,cRDM,0.0,,,,904.6179785999992,1013,22,female,True,9045,9052,False,False,expiration,expiration
293,0.254819686286807,25,down,down,0.6342080000013084,1.5552093491279435,,experiment,cRDM,0.0,,,,907.1512728999987,1013,22,female,True,9071,9077,False,False,inspiration,inspiration
294,0.254819686286807,25,up,up,0.5719872999998188,0.5325452339398183,,experiment,cRDM,0.0,,,,908.584515999999,1013,22,female,True,9085,9091,False,False,expiration,expiration
295,0.254819686286807,25,up,up,0.5631085000004532,1.7158407069610042,,experiment,cRDM,0.0,,,,911.1344201999999,1013,22,female,True,9111,9117,False,False,inspiration,peak
296,0.254819686286807,25,up,down,0.5481298000013339,1.9685378625668557,,experiment,cRDM,0.0,,,,913.9343680999992,1013,22,female,True,9139,9144,False,False,expiration,inspiration
297,0.254819686286807,25,down,down,0.9269329999988258,1.331114425070935,,experiment,cRDM,0.0,,,,916.067608899999,1013,22,female,True,9160,9169,False,False,expiration,expiration
298,0.254819686286807,25,down,up,0.7256190999996761,1.100504816955805,,experiment,cRDM,0.0,,,,918.3508763999997,1013,22,female,True,9183,9190,False,False,expiration,inspiration
299,0.254819686286807,25,up,up,0.3838446999998269,1.586444641937346,,experiment,cRDM,0.0,,,,920.9173937999983,1013,22,female,True,9208,9212,False,False,expiration,expiration
300,0.254819686286807,25,down,down,0.6539143999998487,1.447507113486505,,experiment,cRDM,0.0,,,,923.0505871999994,1013,22,female,True,9230,9237,False,False,expiration,expiration
301,0.254819686286807,25,up,up,0.5561963000000105,0.9977192134002052,,experiment,cRDM,0.0,,,,924.9672769999997,1013,22,female,True,9249,9255,False,False,inspiration,expiration
302,0.254819686286807,25,up,up,0.4416524000007485,0.9431896331581402,,experiment,cRDM,0.0,,,,926.7338322999983,1013,22,female,True,9267,9271,False,False,expiration,expiration
303,0.254819686286807,25,up,up,0.6953653999989909,0.6372580752580312,,experiment,cRDM,0.0,,,,928.0671291999988,1013,22,female,True,9280,9287,False,False,inspiration,inspiration
304,0.254819686286807,25,down,down,0.6307379999998375,1.0070695946330814,,experiment,cRDM,0.0,,,,930.0337148999988,1013,22,female,True,9299,9305,False,False,expiration,expiration
305,0.254819686286807,25,down,down,0.6512939000003826,1.916464165033,,experiment,cRDM,0.0,,,,932.8502141999996,1013,22,female,True,9328,9335,False,False,expiration,expiration
306,0.254819686286807,25,up,up,0.5619838999991771,1.9125844304714623,,experiment,cRDM,0.0,,,,935.6835253999997,1013,22,female,True,9356,9362,False,False,inspiration,peak
307,0.254819686286807,25,down,down,0.5740837000012107,1.6478504257609223,,experiment,cRDM,0.0,,,,938.1334188999989,1013,22,female,True,9380,9386,False,False,expiration,inspiration
308,0.254819686286807,25,down,down,0.6741359999996348,0.3102469487786717,,experiment,cRDM,0.0,,,,939.2833890999992,1013,22,female,True,9392,9399,False,False,inspiration,expiration
309,0.254819686286807,25,up,up,0.6858747999995103,1.3940825676779158,,experiment,cRDM,0.0,,,,941.6166286999998,1013,22,female,True,9415,9422,False,False,expiration,inspiration
310,0.254819686286807,25,up,up,0.7073359999994864,0.6678605424959567,,experiment,cRDM,0.0,,,,943.2331650999986,1013,22,female,True,9432,9439,False,False,expiration,expiration
311,0.254819686286807,25,down,down,0.7003591000011511,1.5131109270151082,,experiment,cRDM,0.0,,,,945.7331455999993,1013,22,female,True,9457,9464,False,False,inspiration,inspiration
312,0.254819686286807,25,up,up,0.6476985000008426,0.8490307669997712,,experiment,cRDM,0.0,,,,947.5498038999997,1013,22,female,True,9475,9481,False,False,expiration,expiration
313,0.254819686286807,25,down,down,0.5788640999999188,1.9897841727120376,,experiment,cRDM,0.0,,,,950.4496270999988,1013,22,female,True,9504,9510,False,False,expiration,expiration
314,0.254819686286807,25,down,down,0.6615440999994462,0.8006137821977368,,experiment,cRDM,0.0,,,,952.0829242000001,1013,22,female,True,9520,9527,False,False,expiration,inspiration
315,0.254819686286807,25,down,down,0.6226138000001811,1.015294189227085,,experiment,cRDM,0.0,,,,954.0328869999994,1013,22,female,True,9540,9546,False,False,expiration,expiration
316,0.254819686286807,25,up,up,0.7900795999994443,1.6755265240874466,,experiment,cRDM,0.0,,,,956.5994388,1013,22,female,True,9565,9573,False,False,inspiration,expiration
317,0.254819686286807,25,up,up,0.5254879999993136,1.755840764650782,,experiment,cRDM,0.0,,,,959.4159701999997,1013,22,female,True,9593,9598,False,False,expiration,inspiration
318,0.254819686286807,25,down,down,0.6716104999995878,1.2095457722509078,,experiment,cRDM,0.0,,,,961.4158907999989,1013,22,female,True,9613,9620,False,False,expiration,expiration
319,0.254819686286807,25,down,down,0.5447018999984721,1.8674655045339332,,experiment,cRDM,0.0,,,,964.2158091,1013,22,female,True,9641,9646,False,False,inspiration,expiration
320,0.254819686286807,25,up,up,0.5991068000002997,1.8465097955842311,,experiment,cRDM,0.0,,,,966.8823962999996,1013,22,female,True,9668,9674,False,False,inspiration,inspiration
321,0.254819686286807,25,up,up,0.6915036999998847,1.3199964887327431,,experiment,cRDM,0.0,,,,969.0489961999992,1013,22,female,True,9690,9697,False,False,expiration,inspiration
322,0.254819686286807,25,up,up,0.6179011000003811,0.9138220003561202,,experiment,cRDM,0.0,,,,970.9155493999988,1013,22,female,True,9708,9714,False,False,peak,expiration
323,0.254819686286807,25,up,up,0.5653569000005518,1.0889434605470436,,experiment,cRDM,0.0,,,,972.8821568999992,1013,22,female,True,9728,9734,False,False,expiration,inspiration
324,0.254819686286807,25,up,up,0.7017387999985658,1.7453887657578353,,experiment,cRDM,0.0,,,,975.448763299999,1013,22,female,True,9754,9761,False,False,expiration,expiration
325,0.254819686286807,25,down,down,0.6545881999991252,1.6162639166974215,,experiment,cRDM,0.0,,,,978.0319655999992,1013,22,female,True,9780,9787,False,False,trough,inspiration
326,0.254819686286807,25,down,up,0.6678986999995686,0.3085457927920093,,experiment,cRDM,0.0,,,,979.2486264999987,1013,22,female,True,9792,9799,False,False,inspiration,expiration
327,0.254819686286807,25,up,up,0.724300800000492,1.0764144560599616,,experiment,cRDM,0.0,,,,981.2651833999988,1013,22,female,True,9812,9819,False,False,expiration,expiration
328,0.254819686286807,25,down,up,0.6477221000004647,1.6885059126688715,,experiment,cRDM,0.0,,,,983.9317821999994,1013,22,female,True,9839,9845,False,False,expiration,expiration
329,0.254819686286807,25,down,down,1.7145258999989892,1.7789488633104689,,experiment,cRDM,0.0,,,,986.6149762999994,1013,22,female,True,9865,9882,False,False,inspiration,expiration
330,0.254819686286807,25,down,down,1.2066383000001224,1.884391402486596,,experiment,cRDM,0.0,,,,990.4648462999994,1013,22,female,True,9904,9916,False,False,inspiration,expiration
331,0.254819686286807,25,up,up,0.5713991000011447,1.9068987712449632,,experiment,cRDM,0.0,,,,993.8480886999988,1013,22,female,True,9938,9944,False,False,expiration,inspiration
332,0.254819686286807,25,down,down,0.5707801999997173,0.3989434731171153,,experiment,cRDM,0.0,,,,995.0646734999992,1013,22,female,True,9950,9956,False,False,inspiration,expiration
333,0.254819686286807,25,down,up,1.2239001999987522,1.304672053450462,,experiment,cRDM,0.0,,,,997.2145927999992,1013,22,female,True,9971,9983,False,False,expiration,peak
334,0.254819686286807,25,down,down,1.0729656000003158,0.8726842630690439,,experiment,cRDM,0.0,,,,999.5645450999999,1013,22,female,True,9995,10006,False,False,expiration,inspiration
335,0.254819686286807,25,up,up,1.7757643999993888,1.7993508250319108,,experiment,cRDM,0.0,,,,1002.6977332999996,1013,22,female,True,10026,10044,False,False,expiration,expiration
336,0.254819686286807,25,up,up,0.8924886000004335,0.300164917855238,,experiment,cRDM,0.0,,,,1005.0309682999997,1013,22,female,True,10050,10059,False,False,expiration,inspiration
337,0.254819686286807,25,down,up,0.7692998999991687,1.5871124624373625,,experiment,cRDM,0.0,,,,1007.7642362999997,1013,22,female,True,10077,10085,False,False,expiration,expiration
338,0.254819686286807,25,up,down,0.828980500000398,0.4869803209677226,,experiment,cRDM,0.0,,,,1009.2975116999988,1013,22,female,True,10092,10100,False,False,trough,inspiration
339,0.254819686286807,25,down,up,1.2014209000008125,0.33026335080193153,,experiment,cRDM,0.0,,,,1010.7140818999997,1013,22,female,True,10106,10118,False,False,expiration,expiration
340,0.254819686286807,25,up,up,0.9014915999996448,0.687843566914366,,experiment,cRDM,0.0,,,,1012.8640189999987,1013,22,female,True,10128,10137,False,False,inspiration,expiration
341,0.254819686286807,25,up,up,0.7338660999994318,0.6580039550207517,,experiment,cRDM,0.0,,,,1014.6806347000003,1013,22,female,True,10146,10153,False,False,expiration,expiration
342,108.0,25,M,down,0.7930849000003946,1.2763690377577748,,experiment,emotion,1.0,,,,1020.6804187999987,1013,22,female,True,10206,10214,False,False,expiration,expiration
343,94.0,25,M,down,0.4608940999987681,1.5073154703698683,,experiment,emotion,1.0,,,,1023.2636666,1013,22,female,True,10232,10237,False,False,inspiration,inspiration
344,103.0,25,F,down,0.5382845999993151,1.7595405555834505,,experiment,emotion,1.0,,,,1025.7802253999996,1013,22,female,True,10257,10262,False,False,inspiration,peak
345,108.0,25,F,up,0.5143145000001823,0.6949112532107503,,experiment,emotion,1.0,,,,1027.2801913999992,1013,22,female,True,10272,10277,False,False,expiration,expiration
346,103.0,25,M,down,0.7407524999998714,0.9836829700245092,,experiment,emotion,1.0,,,,1029.0467453999988,1013,22,female,True,10290,10297,False,False,inspiration,expiration
347,99.0,25,F,up,0.9927956999999878,1.1637133800548234,,experiment,emotion,1.0,,,,1031.2467080999998,1013,22,female,True,10312,10322,False,False,expiration,expiration
348,94.0,25,M,down,0.6752500999991753,0.34851070753945745,,experiment,emotion,1.0,,,,1032.8633038999997,1013,22,female,True,10328,10335,False,False,inspiration,inspiration
349,99.0,25,M,down,0.7532950999993773,0.9975020138176544,,experiment,emotion,1.0,,,,1034.8132108999996,1013,22,female,True,10347,10355,False,False,expiration,expiration
350,108.0,25,F,down,0.8457474999995611,0.4388601435010194,,experiment,emotion,1.0,,,,1036.2798305999986,1013,22,female,True,10362,10370,False,False,expiration,expiration
351,99.0,25,F,down,0.5051218999997218,1.6066853454758292,,experiment,emotion,1.0,,,,1038.9963960999994,1013,22,female,True,10389,10394,False,False,expiration,expiration
352,103.0,25,F,up,0.8638776999996479,0.5454784247088362,,experiment,emotion,1.0,,,,1040.3296664999998,1013,22,female,True,10402,10411,False,False,expiration,expiration
353,108.0,25,F,up,0.6455673999989813,1.4945294843467312,,experiment,emotion,1.0,,,,1042.9629354999997,1013,22,female,True,10429,10435,False,False,inspiration,expiration
354,103.0,25,F,down,0.6996550999992905,0.8349411332757037,,experiment,emotion,1.0,,,,1044.7128579,1013,22,female,True,10446,10453,False,False,expiration,expiration
355,94.0,25,F,up,0.7863584000006085,0.4201060711963717,,experiment,emotion,1.0,,,,1046.0961489999988,1013,22,female,True,10460,10468,False,False,expiration,expiration
356,99.0,25,M,down,0.5833640999990166,0.6029481506631842,,experiment,emotion,1.0,,,,1047.7461119,1013,22,female,True,10477,10483,False,False,expiration,inspiration
357,94.0,25,M,up,0.5708135000004404,1.6609534565182786,,experiment,emotion,1.0,,,,1050.2626703999997,1013,22,female,True,10502,10508,False,False,expiration,inspiration
358,108.0,25,M,down,0.6559330000000045,1.2709192427885394,,experiment,emotion,1.0,,,,1052.3625742999993,1013,22,female,True,10523,10530,False,False,expiration,expiration
359,94.0,25,M,down,0.6570178000001761,1.3230227052854175,,experiment,emotion,1.0,,,,1054.6124865999989,1013,22,female,True,10545,10552,False,False,inspiration,expiration
360,103.0,25,F,up,0.7211062000005768,1.3779786488322625,,experiment,emotion,1.0,,,,1056.9123963999991,1013,22,female,True,10568,10575,False,False,expiration,expiration
361,103.0,25,M,up,0.651880199999141,1.2020041334533669,,experiment,emotion,1.0,,,,1059.095663099999,1013,22,female,True,10590,10597,False,False,inspiration,expiration
362,99.0,25,M,up,0.7112839000001259,0.7961112764299829,,experiment,emotion,1.0,,,,1060.8291969000004,1013,22,female,True,10608,10615,False,False,expiration,trough
363,99.0,25,F,up,0.7409442999996827,1.2782541656089803,,experiment,emotion,1.0,,,,1063.095525499999,1013,22,female,True,10630,10637,False,False,expiration,expiration
364,94.0,25,M,up,0.6890266000009433,0.3816969700743151,,experiment,emotion,1.0,,,,1064.4954561999982,1013,22,female,True,10644,10651,False,False,expiration,expiration
365,108.0,25,F,up,0.7381718999986333,1.4360566938947334,,experiment,emotion,1.0,,,,1066.895378199999,1013,22,female,True,10668,10675,False,False,inspiration,expiration
366,103.0,25,F,down,0.4795954999990499,1.9694981106474567,,experiment,emotion,1.0,,,,1069.8619310999984,1013,22,female,True,10698,10703,False,False,inspiration,expiration
367,94.0,25,M,down,0.493368700001156,1.5267853226808747,,experiment,emotion,1.0,,,,1072.1451820999991,1013,22,female,True,10721,10726,False,False,inspiration,inspiration
368,108.0,25,M,down,0.8701860999990458,1.9053802984452288,,experiment,emotion,1.0,,,,1074.8283161,1013,22,female,True,10748,10757,False,False,expiration,expiration
369,108.0,25,F,down,0.3669542999996338,1.1532160745403703,,experiment,emotion,1.0,,,,1077.1282328999987,1013,22,female,True,10771,10775,False,False,inspiration,inspiration
370,99.0,25,M,up,0.6252678000000742,1.7485888123548643,,experiment,emotion,1.0,,,,1079.5782493999998,1013,22,female,True,10795,10801,False,False,expiration,expiration
371,94.0,25,F,down,0.6539890999993077,1.297742923665219,,experiment,emotion,1.0,,,,1081.7615162000004,1013,22,female,True,10817,10824,False,False,expiration,inspiration
372,99.0,25,F,up,0.5617276000011769,1.1675281039332903,,experiment,emotion,1.0,,,,1083.8447810999987,1013,22,female,True,10838,10844,False,False,expiration,expiration
373,103.0,25,F,up,0.562512999998944,0.6440942605570226,,experiment,emotion,1.0,,,,1085.3279783999988,1013,22,female,True,10853,10859,False,False,expiration,inspiration
374,94.0,25,M,down,0.4459004999989702,0.8266661425471709,,experiment,emotion,1.0,,,,1086.9946513999982,1013,22,female,True,10869,10873,False,False,expiration,expiration
375,108.0,25,M,up,0.6629544999996142,1.7362803471279766,,experiment,emotion,1.0,,,,1089.4445566999984,1013,22,female,True,10894,10901,False,False,expiration,expiration
376,103.0,25,M,down,0.5960216999992554,1.5186625625867365,,experiment,emotion,1.0,,,,1091.8944909000004,1013,22,female,True,10918,10924,False,True,expiration,inspiration
377,108.0,25,F,up,0.4564312000002246,0.6961299683608075,,experiment,emotion,1.0,,,,1093.4610768999992,1013,22,female,True,10934,10939,True,True,inspiration,inspiration
378,94.0,25,F,down,0.5451675999993313,0.9158713555777116,,experiment,emotion,1.0,,,,1095.0943431999983,1013,22,female,True,10950,10955,True,True,expiration,expiration
379,103.0,25,M,up,0.5195714000001317,1.4022408612449662,,experiment,emotion,1.0,,,,1097.3109071999988,1013,22,female,True,10972,10977,True,True,expiration,expiration
380,99.0,25,F,up,0.7650006999992911,1.452263604532529,,experiment,emotion,1.0,,,,1099.5775216000004,1013,22,female,True,10995,11003,True,True,expiration,expiration
381,99.0,25,M,down,0.903405400000338,1.0752111135088027,,experiment,emotion,1.0,,,,1101.6940977999984,1013,22,female,True,11016,11025,True,True,inspiration,expiration
382,103.0,25,M,down,0.8804607000001852,0.8709471768489989,,experiment,emotion,1.0,,,,1103.7440518999992,1013,22,female,True,11037,11046,True,True,expiration,inspiration
383,108.0,25,M,up,0.6085901999995258,1.9377613633628177,,experiment,emotion,1.0,,,,1106.8439199999993,1013,22,female,True,11068,11074,True,True,inspiration,peak
384,99.0,25,F,down,0.6126737000013236,1.3722464247521486,,experiment,emotion,1.0,,,,1109.0938365000004,1013,22,female,True,11090,11096,True,True,expiration,expiration
385,94.0,25,F,down,0.9011267999994744,1.6690908266285531,,experiment,emotion,1.0,,,,1111.6604044999983,1013,22,female,True,11116,11125,True,True,expiration,expiration
386,94.0,25,M,down,0.8539578999989317,0.8170818632958781,,experiment,emotion,1.0,,,,1113.6436177999983,1013,22,female,True,11136,11145,True,False,expiration,inspiration
387,99.0,25,F,down,0.6152067000002717,0.35300873127220833,,experiment,emotion,1.0,,,,1115.1102888999994,1013,22,female,True,11150,11156,False,False,inspiration,expiration
388,108.0,25,F,up,0.8663531999991392,1.2740932364885331,,experiment,emotion,1.0,,,,1117.2601976999997,1013,22,female,True,11172,11181,False,False,expiration,expiration
389,103.0,25,M,up,0.8125334000014846,1.8988564837911448,,experiment,emotion,1.0,,,,1120.3100478999986,1013,22,female,True,11203,11211,False,False,inspiration,expiration
390,94.0,25,M,up,0.6274740999997448,1.4169767534579885,,experiment,emotion,1.0,,,,1122.8099877999994,1013,22,female,True,11228,11234,False,False,inspiration,expiration
391,108.0,25,F,up,0.6735915000008389,0.5974137267090229,,experiment,emotion,1.0,,,,1124.3099174999988,1013,22,female,True,11242,11249,False,False,expiration,expiration
392,103.0,25,M,up,0.6053073999992193,0.4372880272796924,,experiment,emotion,1.0,,,,1125.6932359999992,1013,22,female,True,11256,11262,False,False,expiration,inspiration
393,103.0,25,F,up,0.6963329000009253,0.5702836599570817,,experiment,emotion,1.0,,,,1127.1431750999998,1013,22,female,True,11271,11278,False,False,expiration,expiration
394,94.0,25,F,down,0.6197988000003534,1.500564479431105,,experiment,emotion,1.0,,,,1129.6097396999996,1013,22,female,True,11295,11301,False,False,inspiration,inspiration
395,99.0,25,F,up,0.6648350000014034,0.688629879210207,,experiment,emotion,1.0,,,,1131.209685599999,1013,22,female,True,11311,11318,False,False,expiration,expiration
396,108.0,25,M,up,0.6908774999992602,0.5449063861509047,,experiment,emotion,1.0,,,,1132.709631099999,1013,22,female,True,11326,11333,False,False,inspiration,inspiration
397,99.0,25,M,up,0.6675883999996586,0.9067185049216104,,experiment,emotion,1.0,,,,1134.5929049999995,1013,22,female,True,11345,11352,False,False,expiration,expiration
398,99.0,25,F,down,0.6230390000000625,1.3287265709297604,,experiment,emotion,1.0,,,,1136.8594767999984,1013,22,female,True,11368,11374,False,False,inspiration,expiration
399,99.0,25,F,down,0.8482045000000653,0.4745804972469715,,experiment,emotion,1.0,,,,1138.2263572999998,1013,22,female,True,11382,11390,False,False,expiration,expiration
400,108.0,25,M,up,0.9618100999996386,1.6927504133525184,,experiment,emotion,1.0,,,,1141.0427003999996,1013,22,female,True,11410,11420,False,False,expiration,expiration
401,103.0,25,M,down,0.7643425999995088,0.8992634338568797,,experiment,emotion,1.0,,,,1143.2092283999993,1013,22,female,True,11431,11439,False,False,expiration,inspiration
402,94.0,25,M,down,0.7216253999995388,0.8769826005187649,,experiment,emotion,1.0,,,,1145.1258699999996,1013,22,female,True,11451,11458,False,False,peak,expiration
403,94.0,25,M,down,0.6067573000000266,1.5498427804635264,,experiment,emotion,1.0,,,,1147.6757591999994,1013,22,female,True,11476,11482,False,False,inspiration,inspiration
404,103.0,25,M,up,0.638103699999192,0.4900732537284118,,experiment,emotion,1.0,,,,1149.0423904000002,1013,22,female,True,11490,11496,False,False,inspiration,expiration
405,108.0,25,F,down,0.7865494999987277,1.0013128811536818,,experiment,emotion,1.0,,,,1150.9589610999992,1013,22,female,True,11509,11517,False,False,expiration,inspiration
406,108.0,25,F,up,0.7122735000011744,1.2230470712048254,,experiment,emotion,1.0,,,,1153.2422416999998,1013,22,female,True,11532,11539,False,False,expiration,expiration
407,94.0,25,M,down,0.6333512999990489,0.9221396749509234,,experiment,emotion,1.0,,,,1155.1421589999989,1013,22,female,True,11551,11557,False,False,expiration,expiration
408,108.0,25,F,up,1.3004930000006425,1.5336167565958694,,experiment,emotion,1.0,,,,1157.5920583999996,1013,22,female,True,11575,11588,False,False,expiration,expiration
409,99.0,25,F,down,0.4779326000007131,1.2440687054425872,,experiment,emotion,1.0,,,,1160.4085968,1013,22,female,True,11603,11608,False,False,expiration,inspiration
410,103.0,25,F,up,0.6446720999992976,1.7726076230134755,,experiment,emotion,1.0,,,,1162.9418663999984,1013,22,female,True,11629,11635,False,False,expiration,expiration
411,99.0,25,M,down,1.211070600000312,0.8542973559968507,,experiment,emotion,1.0,,,,1164.7084438999989,1013,22,female,True,11646,11658,False,False,expiration,expiration
412,94.0,25,F,down,0.6055078999997932,1.2784603009826911,,experiment,emotion,1.0,,,,1167.4750072999996,1013,22,female,True,11674,11680,False,False,expiration,expiration
413,103.0,25,F,down,0.635922200001005,1.2297615290714914,,experiment,emotion,1.0,,,,1169.5915946999996,1013,22,female,True,11695,11701,False,False,expiration,inspiration
414,99.0,25,F,down,0.7432981999991171,0.8605546423841846,,experiment,emotion,1.0,,,,1171.358209099999,1013,22,female,True,11713,11720,False,False,inspiration,expiration
415,103.0,25,M,down,0.7873971000008169,0.553993567297023,,experiment,emotion,1.0,,,,1172.9081523999996,1013,22,female,True,11728,11736,False,False,expiration,expiration
416,94.0,25,M,down,0.4510546000001341,1.7390475357805633,,experiment,emotion,1.0,,,,1175.6913980999998,1013,22,female,True,11756,11761,False,False,trough,inspiration
417,108.0,25,F,up,0.7378650000009657,0.955889697056154,,experiment,emotion,1.0,,,,1177.3746605999984,1013,22,female,True,11773,11780,False,False,peak,expiration
418,103.0,25,M,down,1.040976899999805,0.3912071797798857,,experiment,emotion,1.0,,,,1178.7746068999984,1013,22,female,True,11787,11797,False,False,expiration,expiration
419,108.0,25,F,up,0.6233284999998432,1.09751485377004,,experiment,emotion,1.0,,,,1181.1911865999991,1013,22,female,True,11811,11817,False,False,inspiration,expiration
420,94.0,25,M,down,0.6183925999994244,1.664664086983054,,experiment,emotion,1.0,,,,1183.7411068,1013,22,female,True,11837,11843,False,False,inspiration,expiration
421,99.0,25,M,down,0.6924772999991546,1.0469074540313976,,experiment,emotion,1.0,,,,1185.6910236999993,1013,22,female,True,11856,11863,False,False,expiration,expiration
422,0.254819686286807,25,up,up,0.7754836999993131,1.0549473330857182,,experiment,cRDM,1.0,,,,1203.0570419999985,1013,22,female,True,12030,12038,False,False,expiration,trough
423,0.254819686286807,25,up,up,0.7825646999990568,1.4005519870961964,,experiment,cRDM,1.0,,,,1205.5069645999993,1013,22,female,True,12054,12062,False,False,inspiration,inspiration
424,0.254819686286807,25,down,down,0.679588999999396,0.7945631907506323,,experiment,cRDM,1.0,,,,1207.3569363999995,1013,22,female,True,12073,12080,False,False,expiration,expiration
425,0.254819686286807,25,down,up,0.5866306000007171,0.658803160483389,,experiment,cRDM,1.0,,,,1208.9568665999996,1013,22,female,True,12089,12095,False,False,inspiration,peak
426,0.254819686286807,25,up,up,0.654072700001052,1.818156081902775,,experiment,cRDM,1.0,,,,1211.6234439000002,1013,22,female,True,12116,12123,False,False,expiration,expiration
427,0.254819686286807,25,down,down,0.4469052999993437,1.9196317372714267,,experiment,cRDM,1.0,,,,1214.4566290999992,1013,22,female,True,12144,12148,False,False,expiration,expiration
428,0.254819686286807,25,up,up,0.4639332000006106,0.9010691855270084,,experiment,cRDM,1.0,,,,1216.056563799999,1013,22,female,True,12160,12165,False,False,expiration,expiration
429,0.254819686286807,25,up,up,0.4463261999990209,0.985279935783772,,experiment,cRDM,1.0,,,,1217.7731918999998,1013,22,female,True,12177,12181,False,False,inspiration,expiration
430,0.254819686286807,25,down,down,0.459942500001489,1.8032137098232963,,experiment,cRDM,1.0,,,,1220.2897546999993,1013,22,female,True,12202,12207,False,False,expiration,expiration
431,0.254819686286807,25,down,down,0.4428396999992401,0.8341077935979542,,experiment,cRDM,1.0,,,,1221.8396947,1013,22,female,True,12218,12222,False,False,inspiration,inspiration
432,0.254819686286807,25,down,down,0.5119076999999379,1.382248285895584,,experiment,cRDM,1.0,,,,1223.9396282999987,1013,22,female,True,12239,12244,False,False,expiration,expiration
433,0.254819686286807,25,down,down,0.4168501999993168,1.3643993433071933,,experiment,cRDM,1.0,,,,1226.0895192999994,1013,22,female,True,12260,12264,False,False,inspiration,expiration
434,0.254819686286807,25,down,down,0.4784098000000085,1.9337253568785129,,experiment,cRDM,1.0,,,,1228.7061053999987,1013,22,female,True,12287,12292,False,False,inspiration,inspiration
435,0.254819686286807,25,down,down,0.4002500999995391,1.250040129298024,,experiment,cRDM,1.0,,,,1230.689360299999,1013,22,female,True,12306,12310,False,False,expiration,expiration
436,0.254819686286807,25,up,up,0.3838187999990623,0.8754721348930132,,experiment,cRDM,1.0,,,,1232.2559920999993,1013,22,female,True,12322,12326,False,False,inspiration,inspiration
437,0.254819686286807,25,up,down,0.5597283999995852,0.8669885308551266,,experiment,cRDM,1.0,,,,1233.8059022999987,1013,22,female,True,12337,12343,False,False,expiration,expiration
438,0.254819686286807,25,up,down,0.4168686000011803,0.6736955023557356,,experiment,cRDM,1.0,,,,1235.305848099999,1013,22,female,True,12352,12356,False,False,expiration,inspiration
439,0.254819686286807,25,up,down,0.8807410000008531,0.3196814566126881,,experiment,cRDM,1.0,,,,1236.3058112999988,1013,22,female,True,12362,12371,False,False,inspiration,expiration
440,0.254819686286807,25,down,down,0.4552420999989408,0.5873816453544973,,experiment,cRDM,1.0,,,,1238.0222732000002,1013,22,female,True,12380,12385,False,False,expiration,inspiration
441,0.254819686286807,25,up,up,0.3338201999995363,1.129970308489774,,experiment,cRDM,1.0,,,,1239.8723613000002,1013,22,female,True,12398,12401,False,False,expiration,expiration
442,0.254819686286807,25,up,up,0.28381810000064434,0.6405099370897065,,experiment,cRDM,1.0,,,,1241.1889881999996,1013,22,female,True,12411,12414,False,False,expiration,expiration
443,0.254819686286807,25,down,down,0.3004791000003024,1.0101368327101294,,experiment,cRDM,1.0,,,,1242.8889222999987,1013,22,female,True,12428,12431,False,False,inspiration,expiration
444,0.254819686286807,25,up,up,0.4168362999989768,1.7138551978632248,,experiment,cRDM,1.0,,,,1245.272148,1013,22,female,True,12452,12456,False,False,trough,inspiration
445,0.254819686286807,25,down,down,0.5772188999999344,1.4733848380364176,,experiment,cRDM,1.0,,,,1247.4222974999993,1013,22,female,True,12474,12480,False,False,expiration,expiration
446,0.254819686286807,25,down,down,0.5702350999999908,1.752410596536575,,experiment,cRDM,1.0,,,,1250.0053057999996,1013,22,female,True,12499,12505,False,False,peak,expiration
447,0.254819686286807,25,up,down,0.5028846000004705,0.6409672945305579,,experiment,cRDM,1.0,,,,1251.4886256999996,1013,22,female,True,12514,12519,False,False,expiration,expiration
448,0.254819686286807,25,up,up,0.5943422000000282,1.9454389987112783,,experiment,cRDM,1.0,,,,1254.2051510999988,1013,22,female,True,12541,12547,False,False,expiration,expiration
449,0.254819686286807,25,down,down,0.4347586000003503,1.208321905790695,,experiment,cRDM,1.0,,,,1256.2717816999993,1013,22,female,True,12562,12566,False,False,inspiration,inspiration
450,0.254819686286807,25,up,up,0.5148281000001589,1.1059502113870854,,experiment,cRDM,1.0,,,,1258.0716983999991,1013,22,female,True,12580,12585,False,False,expiration,expiration
451,0.254819686286807,25,down,down,0.5390492000005906,1.5630563276063116,,experiment,cRDM,1.0,,,,1260.4215258999993,1013,22,female,True,12604,12609,False,False,expiration,expiration
452,0.254819686286807,25,down,up,0.4429597999987891,0.8546369083857113,,experiment,cRDM,1.0,,,,1262.071554799999,1013,22,female,True,12620,12624,False,False,expiration,inspiration
453,0.254819686286807,25,down,down,0.52039060000061,1.7068998524893262,,experiment,cRDM,1.0,,,,1264.4881307999985,1013,22,female,True,12644,12649,False,False,expiration,expiration
454,0.254819686286807,25,up,down,0.5125639000016236,1.2178758565394323,,experiment,cRDM,1.0,,,,1266.4880540999984,1013,22,female,True,12664,12669,False,False,inspiration,inspiration
455,0.254819686286807,25,up,up,0.5058800000006158,1.0329218013235166,,experiment,cRDM,1.0,,,,1268.3046459999987,1013,22,female,True,12682,12687,False,False,expiration,expiration
456,0.254819686286807,25,up,up,0.574613999999201,0.6622580832772602,,experiment,cRDM,1.0,,,,1269.7379986999986,1013,22,female,True,12697,12703,False,False,expiration,inspiration
457,0.254819686286807,25,down,up,0.6683619000014005,0.40085574880721175,,experiment,cRDM,1.0,,,,1270.9712285999994,1013,22,female,True,12709,12716,False,False,inspiration,expiration
458,0.254819686286807,25,down,down,0.5930633000007219,1.7979176341106975,,experiment,cRDM,1.0,,,,1273.7044558999987,1013,22,female,True,12736,12742,False,False,inspiration,peak
459,0.254819686286807,25,up,up,0.7078446999985317,1.62581090911785,,experiment,cRDM,1.0,,,,1276.1877145999988,1013,22,female,True,12761,12768,False,False,expiration,inspiration
460,0.254819686286807,25,down,up,0.9132233000000268,1.2559842466858906,,experiment,cRDM,1.0,,,,1278.4042983,1013,22,female,True,12783,12792,False,False,expiration,expiration
461,0.254819686286807,25,up,up,0.5256935000015801,1.3055404350762667,,experiment,cRDM,1.0,,,,1280.8708590999995,1013,22,female,True,12808,12813,False,False,expiration,inspiration
462,0.254819686286807,25,up,up,0.5939304000003176,0.8702212000795353,,experiment,cRDM,1.0,,,,1282.5207021999995,1013,22,female,True,12825,12831,False,False,expiration,expiration
463,0.254819686286807,25,up,up,0.500152500000695,1.851802117747876,,experiment,cRDM,1.0,,,,1285.2374034999993,1013,22,female,True,12852,12857,False,False,inspiration,expiration
464,0.254819686286807,25,down,down,0.4759139000016148,1.7208619367148692,,experiment,cRDM,1.0,,,,1287.7206088999992,1013,22,female,True,12877,12882,False,False,inspiration,inspiration
465,0.254819686286807,25,down,up,0.8056157000009989,0.5981324447971109,,experiment,cRDM,1.0,,,,1289.0539110999996,1013,22,female,True,12890,12898,False,False,peak,expiration
466,0.254819686286807,25,up,up,0.6070618999983708,1.7395547284878117,,experiment,cRDM,1.0,,,,1291.8704635999984,1013,22,female,True,12918,12924,False,False,expiration,inspiration
467,0.254819686286807,25,down,down,0.5614574999999604,0.9466811396872112,,experiment,cRDM,1.0,,,,1293.6870658999997,1013,22,female,True,12936,12942,False,False,expiration,expiration
468,0.254819686286807,25,down,up,0.5138042999988102,0.5372910433357105,,experiment,cRDM,1.0,,,,1295.0537284000004,1013,22,female,True,12950,12955,False,False,expiration,expiration
469,0.254819686286807,25,up,up,0.6719696999989537,1.3279465711805118,,experiment,cRDM,1.0,,,,1297.153580799999,1013,22,female,True,12971,12978,False,False,inspiration,expiration
470,0.254819686286807,25,up,up,0.5463235999995959,0.6299085105582232,,experiment,cRDM,1.0,,,,1298.720197499999,1013,22,female,True,12987,12992,False,False,expiration,expiration
471,0.254819686286807,25,down,down,0.4640055999989272,0.7795323543899988,,experiment,cRDM,1.0,,,,1300.3035198999987,1013,22,female,True,13003,13008,False,False,inspiration,expiration
472,0.254819686286807,25,up,up,0.4572898000005807,0.673076156548814,,experiment,cRDM,1.0,,,,1301.7032590999988,1013,22,female,True,13017,13022,False,False,expiration,expiration
473,0.254819686286807,25,down,down,0.6112283000002208,1.5868886228356534,,experiment,cRDM,1.0,,,,1304.0032944999984,1013,22,female,True,13040,13046,False,False,expiration,expiration
474,0.254819686286807,25,down,down,1.0748730999985128,0.8576709424528572,,experiment,cRDM,1.0,,,,1305.7366508999985,1013,22,female,True,13057,13068,False,False,expiration,inspiration
475,0.254819686286807,25,down,up,0.4906490000012127,1.8448251500589776,,experiment,cRDM,1.0,,,,1308.9198676999986,1013,22,female,True,13089,13094,False,False,expiration,expiration
476,0.254819686286807,25,up,up,0.6370874000003823,0.5766177560846604,,experiment,cRDM,1.0,,,,1310.2364534999995,1013,22,female,True,13102,13108,False,False,expiration,expiration
477,0.254819686286807,25,up,down,0.5857553000005282,1.7885983469786106,,experiment,cRDM,1.0,,,,1312.919711999999,1013,22,female,True,13129,13135,False,False,expiration,expiration
478,0.254819686286807,25,down,down,0.6905922999994799,1.7736325245080142,,experiment,cRDM,1.0,,,,1315.5529281999989,1013,22,female,True,13155,13162,False,False,inspiration,expiration
479,0.254819686286807,25,down,down,0.7963966000006621,1.2469709419627537,,experiment,cRDM,1.0,,,,1317.7361714999988,1013,22,female,True,13177,13185,False,False,inspiration,inspiration
480,0.254819686286807,25,up,up,0.6457864999993035,0.5023231867781888,,experiment,cRDM,1.0,,,,1319.3027649999985,1013,22,female,True,13193,13199,False,False,expiration,expiration
481,0.254819686286807,25,up,down,0.7714505000003555,1.0644632981918565,,experiment,cRDM,1.0,,,,1321.286057899999,1013,22,female,True,13212,13220,False,False,inspiration,expiration
482,0.254819686286807,25,up,up,0.5345783000011579,1.170957736179483,,experiment,cRDM,1.0,,,,1323.4859773999995,1013,22,female,True,13234,13239,False,False,expiration,expiration
483,0.254819686286807,25,up,up,0.6156081999997696,1.5494064120174598,,experiment,cRDM,1.0,,,,1325.8358979999996,1013,22,female,True,13258,13264,False,False,expiration,expiration
484,0.254819686286807,25,up,up,0.6665501999996195,1.9082590185197952,,experiment,cRDM,1.0,,,,1328.618955599999,1013,22,female,True,13286,13293,False,False,expiration,expiration
485,0.254819686286807,25,down,down,0.6184583000012935,1.8690704822911677,,experiment,cRDM,1.0,,,,1331.4190443999996,1013,22,female,True,13314,13320,False,False,inspiration,expiration
486,0.254819686286807,25,down,down,0.647283399999651,1.8183416969774588,,experiment,cRDM,1.0,,,,1334.1022371999989,1013,22,female,True,13340,13346,False,False,inspiration,inspiration
487,0.254819686286807,25,up,up,0.6410052000010182,1.042165807128687,,experiment,cRDM,1.0,,,,1336.0355402999996,1013,22,female,True,13360,13366,False,False,expiration,expiration
488,0.254819686286807,25,down,down,0.5384034000016982,0.6634083531352821,,experiment,cRDM,1.0,,,,1337.6021064999984,1013,22,female,True,13375,13380,False,False,inspiration,expiration
489,0.254819686286807,25,down,down,0.5218512999999803,1.967597520715566,,experiment,cRDM,1.0,,,,1340.3686744999995,1013,22,female,True,13403,13408,False,False,inspiration,inspiration
490,0.254819686286807,25,down,down,1.1125975000013568,1.9627445817490907,,experiment,cRDM,1.0,,,,1343.1019254999992,1013,22,female,True,13430,13441,False,False,inspiration,expiration
491,0.254819686286807,25,up,up,0.6646798000001581,0.6762610064035746,,experiment,cRDM,1.0,,,,1345.1518402999989,1013,22,female,True,13451,13458,False,False,expiration,expiration
492,0.254819686286807,25,down,down,0.4880923999990046,1.2953554459906285,,experiment,cRDM,1.0,,,,1347.3684275999985,1013,22,female,True,13473,13478,False,False,expiration,expiration
493,0.254819686286807,25,down,down,0.6961780000001454,1.5607595506060998,,experiment,cRDM,1.0,,,,1349.668349399999,1013,22,female,True,13496,13503,False,False,inspiration,expiration
494,0.254819686286807,25,down,up,0.9226965999987442,1.3432870838519488,,experiment,cRDM,1.0,,,,1351.984912,1013,22,female,True,13519,13528,False,False,expiration,expiration
495,0.254819686286807,25,up,up,0.552301500001704,0.4148123187562406,,experiment,cRDM,1.0,,,,1353.568190099999,1013,22,female,True,13535,13541,False,False,inspiration,expiration
496,0.254819686286807,25,up,up,0.5130751000015152,0.9133250762756036,,experiment,cRDM,1.0,,,,1355.3014371999998,1013,22,female,True,13552,13557,False,False,expiration,expiration
497,0.254819686286807,25,down,down,0.5201735999999073,1.8319136794692248,,experiment,cRDM,1.0,,,,1357.9013516999985,1013,22,female,True,13578,13583,False,False,expiration,expiration
498,0.254819686286807,25,up,up,0.5468607999991946,0.9626621574823055,,experiment,cRDM,1.0,,,,1359.6346673999994,1013,22,female,True,13596,13601,False,False,inspiration,peak
499,0.254819686286807,25,down,down,0.4168451000005007,1.5382700852230888,,experiment,cRDM,1.0,,,,1361.9845682999985,1013,22,female,True,13619,13623,False,False,expiration,expiration
500,0.254819686286807,25,up,up,0.6409835000013118,1.4293899865369273,,experiment,cRDM,1.0,,,,1364.0844940999996,1013,22,female,True,13640,13646,False,False,inspiration,expiration
501,0.254819686286807,25,up,up,0.5651061000007758,0.5859287516962477,,experiment,cRDM,1.0,,,,1365.584417,1013,22,female,True,13655,13661,False,False,expiration,expiration
502,108.0,25,M,down,0.8835586999994121,1.6531195423842795,,experiment,emotion,2.0,,,,1375.5340650999988,1013,22,female,True,13755,13764,False,False,expiration,expiration
503,94.0,25,M,down,0.4695472000003065,1.4330129394191908,,experiment,emotion,2.0,,,,1378.1339785999992,1013,22,female,True,13781,13786,False,False,inspiration,expiration
504,103.0,25,F,up,0.6906966000005923,1.0417877886346285,,experiment,emotion,2.0,,,,1379.9338994999996,1013,22,female,True,13799,13806,False,False,expiration,inspiration
505,108.0,25,F,up,0.4587184000010893,0.3008055917877082,,experiment,emotion,2.0,,,,1381.1838517999984,1013,22,female,True,13811,13816,False,False,inspiration,inspiration
506,103.0,25,M,up,0.42207559999951627,1.0252905730573492,,experiment,emotion,2.0,,,,1382.9504564999988,1013,22,female,True,13829,13833,False,False,expiration,expiration
507,99.0,25,F,up,0.4811307999989367,0.8316668837988599,,experiment,emotion,2.0,,,,1384.5004040999993,1013,22,female,True,13844,13849,False,False,inspiration,inspiration
508,94.0,25,M,down,0.3169073000008211,1.8742268336752257,,experiment,emotion,2.0,,,,1387.1169101999985,1013,22,female,True,13871,13874,False,False,inspiration,inspiration
509,99.0,25,M,down,0.4589577999995527,0.6833015212009674,,experiment,emotion,2.0,,,,1388.4835697,1013,22,female,True,13884,13889,False,False,expiration,expiration
510,108.0,25,F,up,0.41677309999977297,0.6269790418856753,,experiment,emotion,2.0,,,,1389.8501914999995,1013,22,female,True,13898,13902,False,False,inspiration,inspiration
511,99.0,25,F,up,0.2668469999989611,1.2068024681086609,,experiment,emotion,2.0,,,,1391.7501211,1013,22,female,True,13917,13920,False,False,inspiration,inspiration
512,103.0,25,F,up,0.4364539999987755,1.743348784028238,,experiment,emotion,2.0,,,,1394.1833508,1013,22,female,True,13941,13945,False,False,expiration,expiration
513,108.0,25,F,up,0.4001978999986022,1.4026317341504657,,experiment,emotion,2.0,,,,1396.2999318000002,1013,22,female,True,13962,13966,False,False,inspiration,inspiration
514,103.0,25,F,down,0.4509329000011349,0.4808832096317335,,experiment,emotion,2.0,,,,1397.4666014999984,1013,22,female,True,13974,13979,False,False,expiration,expiration
515,94.0,25,F,down,0.3168373000007705,1.5005025848105813,,experiment,emotion,2.0,,,,1399.6831557999994,1013,22,female,True,13996,13999,False,False,expiration,inspiration
516,99.0,25,M,up,0.4437851000002411,1.0838377467192797,,experiment,emotion,2.0,,,,1401.4497727999988,1013,22,female,True,14014,14018,False,False,expiration,expiration
517,94.0,25,M,down,0.4938149999998132,1.39008991158957,,experiment,emotion,2.0,,,,1403.5496970999993,1013,22,female,True,14035,14040,False,False,expiration,inspiration
518,108.0,25,M,down,0.5495764000006602,1.319780633231376,,experiment,emotion,2.0,,,,1405.632952,1013,22,female,True,14056,14061,False,False,expiration,expiration
519,94.0,25,M,down,0.4814064000001963,0.6628081044823679,,experiment,emotion,2.0,,,,1407.1161202999995,1013,22,female,True,14071,14076,False,False,trough,inspiration
520,103.0,25,F,down,0.8274739999997109,1.027868139781592,,experiment,emotion,2.0,,,,1408.9160173,1013,22,female,True,14089,14097,False,False,expiration,expiration
521,103.0,25,M,down,0.4691585000000487,0.4219553512848656,,experiment,emotion,2.0,,,,1410.4494161999994,1013,22,female,True,14104,14109,False,False,expiration,inspiration
522,99.0,25,M,down,0.6469003999991401,0.5964738239376446,,experiment,emotion,2.0,,,,1411.7827001999995,1013,22,female,True,14117,14123,False,False,expiration,expiration
523,99.0,25,F,down,0.5046024000002944,1.6225097969454203,,experiment,emotion,2.0,,,,1414.3159675999993,1013,22,female,True,14143,14148,False,False,inspiration,expiration
524,94.0,25,M,down,0.3835190999998304,1.0978906428660566,,experiment,emotion,2.0,,,,1416.1825422000004,1013,22,female,True,14161,14165,False,False,expiration,expiration
525,108.0,25,F,up,0.5540737999999692,0.6184407609335612,,experiment,emotion,2.0,,,,1417.4824920999997,1013,22,female,True,14174,14180,False,False,inspiration,expiration
526,103.0,25,F,down,0.5974363999994239,1.8383893426151632,,experiment,emotion,2.0,,,,1420.1490849000004,1013,22,female,True,14201,14207,False,False,inspiration,inspiration
527,94.0,25,M,up,0.5398831000002247,0.3430088750335007,,experiment,emotion,2.0,,,,1421.3657082999996,1013,22,female,True,14213,14218,False,False,expiration,expiration
528,108.0,25,M,up,0.5306043999989924,1.0905204018447403,,experiment,emotion,2.0,,,,1423.2489589999984,1013,22,female,True,14232,14237,False,False,inspiration,expiration
529,108.0,25,F,up,0.4588994999994611,0.4337616654580908,,experiment,emotion,2.0,,,,1424.4655905,1013,22,female,True,14244,14249,False,False,expiration,expiration
530,99.0,25,M,down,0.4817079000004014,0.9122312212272534,,experiment,emotion,2.0,,,,1426.0988239999988,1013,22,female,True,14261,14266,False,False,inspiration,inspiration
531,94.0,25,F,up,0.3169359000003169,1.6097841030354354,,experiment,emotion,2.0,,,,1428.4487954999984,1013,22,female,True,14284,14287,False,False,expiration,inspiration
532,99.0,25,F,up,0.3668631999989884,1.7266742863205626,,experiment,emotion,2.0,,,,1430.8820135999995,1013,22,female,True,14308,14312,False,False,expiration,expiration
533,103.0,25,F,up,0.6932164000008925,0.8458347775561121,,experiment,emotion,2.0,,,,1432.4153145,1013,22,female,True,14324,14331,False,False,inspiration,inspiration
534,94.0,25,M,up,0.4002249999994092,1.0901202017619591,,experiment,emotion,2.0,,,,1434.4652092999984,1013,22,female,True,14344,14348,False,False,expiration,expiration
535,108.0,25,M,up,0.4168254000014713,1.7810497943942443,,experiment,emotion,2.0,,,,1436.9318002999992,1013,22,female,True,14369,14373,False,False,expiration,expiration
536,103.0,25,M,down,0.9307841999998344,1.0033053960473393,,experiment,emotion,2.0,,,,1438.6317467999993,1013,22,female,True,14386,14395,False,False,inspiration,peak
