,stimLvl,stimTime,rand,response,rt,precedingITI,trialNumber,trialType,stimuli,block,estIntens,estThres,estSlope,trialStart,subject,age,gender,headRest,onset,responsI,manBadOnset,manBadRespons,onset_phase,respons_phase
0,0.9,100,down,,,0.7290754684844258,,introTrial,cRDM,,,,,327.9416773000012,1014,30,female,True,3278,0,False,False,expiration,0
1,150.0,100,F,,,1.9813981928734412,,introTrial,emotion,,,,,333.87477710000167,1014,30,female,True,3338,0,False,False,inspiration,0
2,0.9,25,up,up,0.8033011999978044,1.6441607756617471,,tutorial,cRDM,,,,,358.62384530000054,1014,30,female,True,3585,3593,False,False,expiration,expiration
3,0.9,25,up,up,0.8824309000010544,0.6080619577049192,,tutorial,cRDM,,,,,360.32379020000013,1014,30,female,True,3602,3611,False,False,expiration,inspiration
4,0.9,25,down,down,0.5497847999977239,0.7237586517194368,,tutorial,cRDM,,,,,362.24038230000224,1014,30,female,True,3621,3626,False,False,expiration,expiration
5,0.9,25,up,up,0.6055616999983613,1.8621533923087945,,tutorial,cRDM,,,,,364.9236081000017,1014,30,female,True,3648,3654,False,False,expiration,expiration
6,0.9,25,down,down,0.6249124999994821,1.548503223873114,,tutorial,cRDM,,,,,367.34020160000006,1014,30,female,True,3672,3678,False,False,inspiration,peak
7,0.9,25,up,up,0.6070360000012442,0.7026604616204761,,tutorial,cRDM,,,,,368.9401180000023,1014,30,female,True,3688,3694,False,False,expiration,expiration
8,0.9,25,up,up,0.4168086999998195,1.6094390646893055,,tutorial,cRDM,,,,,371.4400532,1014,30,female,True,3713,3717,False,False,expiration,expiration
9,0.9,25,down,down,0.6091377999982797,1.6689188230693752,,tutorial,cRDM,,,,,373.7899704000009,1014,30,female,True,3737,3743,False,False,inspiration,expiration
10,0.9,25,down,down,0.5192596000015328,1.6764820856903924,,tutorial,cRDM,,,,,376.33986600000213,1014,30,female,True,3762,3767,False,False,inspiration,inspiration
11,0.9,25,down,down,0.3671514000016032,1.4152793161772086,,tutorial,cRDM,,,,,378.55643480000066,1014,30,female,True,3785,3789,False,False,trough,inspiration
12,200.0,25,M,up,0.3832801999997173,0.4465015232174007,,tutorial,emotion,,,,,386.78948310000123,1014,30,female,True,3867,3871,False,False,inspiration,expiration
13,200.0,25,M,down,0.7354702000011457,0.8191721596361581,,tutorial,emotion,,,,,388.32275500000105,1014,30,female,True,3882,3889,False,False,expiration,expiration
14,200.0,25,F,up,0.41678800000227056,0.5740575307949682,,tutorial,emotion,,,,,389.9060449999997,1014,30,female,True,3898,3902,False,False,inspiration,inspiration
15,0.0,25,F,down,0.4512696999991022,1.0372990175854204,,tutorial,emotion,,,,,391.672886700002,1014,30,female,True,3916,3921,False,False,expiration,expiration
16,0.0,25,M,down,0.4168343000019377,1.1518898275336606,,tutorial,emotion,,,,,393.5558965000018,1014,30,female,True,3934,3938,False,False,inspiration,peak
17,200.0,25,F,up,0.5679600999974355,1.6753391985468018,,tutorial,emotion,,,,,395.93915220000054,1014,30,female,True,3958,3964,False,False,inspiration,inspiration
18,0.0,25,M,down,0.5434862000001885,1.962379248245371,,tutorial,emotion,,,,,398.75567830000006,1014,30,female,True,3987,3992,False,False,inspiration,inspiration
19,200.0,25,M,up,0.5384991999999329,0.8396664728122027,,tutorial,emotion,,,,,400.40563430000117,1014,30,female,True,4003,4008,False,False,expiration,expiration
20,0.0,25,F,down,0.4405451000020548,1.1765130945765059,,tutorial,emotion,,,,,402.40560760000153,1014,30,female,True,4023,4027,False,False,inspiration,expiration
21,0.0,25,F,down,0.4300031999991916,1.9964190161467417,,tutorial,emotion,,,,,405.12214950000265,1014,30,female,True,4050,4054,False,False,inspiration,inspiration
22,0.29,25,up,up,0.4167610000004061,0.95157981859865,,psi_staircase_training,cRDM,,0.25,0.25693124029946324,0.10500000000000002,414.00516710000016,1014,30,female,True,4139,4143,False,False,expiration,expiration
23,0.25,25,up,up,0.4260649999996531,0.6123641479034687,,psi_staircase_training,cRDM,,0.21910266653183127,0.2260132002683493,0.10468632033873933,415.3051169000028,1014,30,female,True,4152,4156,False,False,inspiration,inspiration
24,0.21,25,down,down,0.31715780000013183,1.1662398750954346,,psi_staircase_training,cRDM,,0.1900540959403307,0.19684979615540016,0.10294672984249993,417.1717320999997,1014,30,female,True,4171,4174,False,False,expiration,expiration
25,0.18,25,down,down,0.4517661999998381,0.3140900525029032,,psi_staircase_training,cRDM,,0.1635257589279754,0.1701521334256793,0.100381647756865,418.1883539000009,1014,30,female,True,4181,4186,False,False,inspiration,inspiration
26,0.15,25,up,down,0.5486113000006299,0.9528594204995828,,psi_staircase_training,cRDM,,0.14018955742449365,0.14660133511875031,0.0971307628663642,419.8716176000016,1014,30,female,True,4198,4203,False,False,expiration,expiration
27,0.23,25,down,down,0.6968005999988236,0.8785806407023748,,psi_staircase_training,cRDM,,0.210999448285869,0.21822120307503015,0.10940094703117473,421.57151979999986,1014,30,female,True,4215,4222,False,False,inspiration,expiration
28,0.22,25,up,up,0.5384148999983154,0.5932488527282768,,psi_staircase_training,cRDM,,0.18983913637999825,0.19686417070636816,0.1064208673195135,423.15479590000183,1014,30,female,True,4230,4235,False,False,expiration,expiration
29,0.2,25,down,down,0.5699061999985133,1.2049182337990665,,psi_staircase_training,cRDM,,0.17241973291234966,0.17918014013994293,0.10241208329658748,425.1712948000022,1014,30,female,True,4251,4257,False,False,inspiration,expiration
30,0.19,25,down,down,0.5501387000003888,0.7181485285491972,,psi_staircase_training,cRDM,,0.1577353704581559,0.1642582571393365,0.0988139311195144,426.73800530000153,1014,30,female,True,4266,4272,False,False,expiration,expiration
31,0.18,25,up,up,0.6836606000033498,1.5992374159975264,,psi_staircase_training,cRDM,,0.1455364682314865,0.151839903251056,0.09548950093478258,429.1715046000026,1014,30,female,True,4291,4298,False,False,expiration,expiration
32,0.14,25,down,up,0.4226275000000896,0.3753018194917278,,psi_staircase_training,cRDM,,0.13499072205017298,0.14113521947343274,0.09308178645779087,430.50453340000234,1014,30,female,True,4304,4308,False,False,expiration,expiration
33,0.19,25,down,up,0.6971333000001323,1.7675127523200302,,psi_staircase_training,cRDM,,0.16691687058059712,0.1719684655547868,0.07652562158766757,432.97104410000253,1014,30,female,True,4329,4336,False,False,expiration,expiration
34,0.23,25,down,down,0.5632070999999996,0.6288846045320745,,psi_staircase_training,cRDM,,0.20790890527029254,0.2149495901225089,0.10665795406631016,434.5709553000015,1014,30,female,True,4345,4351,False,False,expiration,inspiration
35,0.23,25,up,up,0.4741286999997101,0.6971943583701494,,psi_staircase_training,cRDM,,0.19462885000926314,0.20129187068173146,0.1009367934716311,436.12100350000037,1014,30,female,True,4360,4365,False,False,expiration,expiration
36,0.22,25,up,up,0.4495233999987249,1.616139724094544,,psi_staircase_training,cRDM,,0.1844749779533882,0.19072014508319626,0.09460681209979407,438.487594000002,1014,30,female,True,4384,4388,False,False,inspiration,peak
37,0.21,25,down,up,0.7156451999981073,0.4661905479162324,,psi_staircase_training,cRDM,,0.17662384391223254,0.1824594253604907,0.08840207893449542,439.6875274000013,1014,30,female,True,4396,4403,False,False,expiration,expiration
38,0.25,25,down,up,0.44004519999725744,0.3770773219547568,,psi_staircase_training,cRDM,,0.210745333803859,0.21845658184984434,0.11681618438350225,441.05414419999937,1014,30,female,True,4409,4413,False,False,inspiration,inspiration
39,0.33,25,up,down,0.4530553000004147,0.6807257216666035,,psi_staircase_training,cRDM,,0.2598258575338845,0.2691895706489513,0.14184905364746087,442.4540989000016,1014,30,female,True,4423,4428,False,False,expiration,expiration
40,0.39,25,up,up,0.4742153999977745,0.9952012765397706,,psi_staircase_training,cRDM,,0.3218107914778763,0.33137512281069986,0.14488817968470138,444.1709614000029,1014,30,female,True,4441,4446,False,False,inspiration,inspiration
41,0.38,25,up,up,0.3671458999997412,1.8370257940885972,,psi_staircase_training,cRDM,,0.30736677443502625,0.3170688628532179,0.14697503475518067,446.7539558000026,1014,30,female,True,4466,4470,False,False,inspiration,inspiration
42,0.35000000000000003,25,up,up,0.4382480999993277,0.9575766496107598,,psi_staircase_training,cRDM,,0.2941508571175681,0.3039120873441716,0.14787096241241704,448.40388990000076,1014,30,female,True,4483,4487,False,False,expiration,expiration
43,0.33,25,down,down,0.7736498000012944,0.4991074500429825,,psi_staircase_training,cRDM,,0.2806433383885172,0.2905077637494775,0.14943424526502766,449.62050559999983,1014,30,female,True,4495,4503,False,False,expiration,expiration
44,0.32,25,down,up,0.5986113999970257,1.9786650885257533,,psi_staircase_training,cRDM,,0.2675534678203397,0.2775227077547204,0.15102206068241958,452.65362380000084,1014,30,female,True,4526,4532,False,False,inspiration,expiration
45,0.38,25,down,down,0.672500199998467,1.9624512053105967,,psi_staircase_training,cRDM,,0.3129549754311252,0.3227251997670267,0.14800721241032347,455.50363310000097,1014,30,female,True,4554,4561,False,False,inspiration,inspiration
46,0.37,25,up,up,0.4956621000019368,1.6050690038834436,,psi_staircase_training,cRDM,,0.3027913359613425,0.31250968866781553,0.14722141926873986,458.0535096000021,1014,30,female,True,4579,4584,False,False,expiration,expiration
47,0.32,25,up,up,0.4002002999986871,1.2534533919362891,,psi_staircase_training,cRDM,,0.2934204745567246,0.3030643832285126,0.1460936811866345,460.0868492000008,1014,30,female,True,4600,4604,False,False,expiration,expiration
48,0.32,25,down,up,0.4587377999996534,0.3835675288086293,,psi_staircase_training,cRDM,,0.2815745973569055,0.2914970936274869,0.15031395008649898,461.1534215000029,1014,30,female,True,4610,4615,False,False,expiration,expiration
49,0.38,25,down,up,0.42744129999846336,0.616829421382977,,psi_staircase_training,cRDM,,0.3178087435188082,0.3271375964366132,0.1413209633556315,462.48672269999946,1014,30,female,True,4624,4628,False,False,inspiration,expiration
50,0.41,25,up,up,0.5582481999990705,1.1024312642027845,,psi_staircase_training,cRDM,,0.35262716230273744,0.3628621425162861,0.15504770805678653,464.26988260000144,1014,30,female,True,4642,4648,False,False,expiration,expiration
51,0.41,25,up,up,0.40027370000098017,0.3820319952155591,,psi_staircase_training,cRDM,,0.3438639626990907,0.3541029691288666,0.155108700416824,465.48660759999984,1014,30,female,True,4654,4658,False,False,inspiration,inspiration
52,100.0,25,M,up,0.3335067999978492,1.283081185545187,,psi_staircase_training,emotion,,100.0,100.0,25.00050000000001,472.40299020000015,1014,30,female,True,4723,4726,False,False,inspiration,peak
53,55.0,25,M,down,0.5028854000011052,0.4341403631022046,,psi_staircase_training,emotion,,54.742809467541896,54.742809467541896,25.00050000000011,473.63627740000084,1014,30,female,True,4735,4740,False,False,expiration,expiration
54,79.0,25,F,down,0.4168083000004117,1.62437113782449,,psi_staircase_training,emotion,,79.636070985635,79.636070985635,25.71326925488641,476.1361871000008,1014,30,female,True,4760,4764,False,False,inspiration,expiration
55,103.0,25,F,down,0.4644093999995675,1.1355528616530604,,psi_staircase_training,emotion,,97.61123893914808,97.61123893914808,26.1463337262867,478.05274130000186,1014,30,female,True,4780,4785,False,False,inspiration,inspiration
56,127.0,25,M,up,0.5197805000025255,1.438884660658325,,psi_staircase_training,emotion,,117.15641007867752,117.15641007867752,31.432291447829705,480.3193916000018,1014,30,female,True,4802,4807,False,False,expiration,inspiration
57,116.0,25,F,up,0.3837467000012112,0.8684855156843332,,psi_staircase_training,emotion,,105.03864224082596,105.03864224082596,29.69406400548579,482.0693277999998,1014,30,female,True,4820,4824,False,False,expiration,expiration
58,88.0,25,M,down,0.5617034999995667,1.485055349004556,,psi_staircase_training,emotion,,98.16151255584974,98.16151255584974,27.87588470540113,484.3524618000009,1014,30,female,True,4843,4849,False,False,inspiration,expiration
59,116.0,25,F,up,0.4477597000004607,1.7521344487686143,,psi_staircase_training,emotion,,103.47850698803556,103.47850698803556,26.167505567848767,487.00246730000066,1014,30,female,True,4869,4873,False,False,expiration,expiration
60,88.0,25,F,down,0.4834335000014107,1.5507967386097057,,psi_staircase_training,emotion,,99.56005942312154,99.56005942312154,24.06105184598684,489.3357293000008,1014,30,female,True,4892,4897,False,False,inspiration,expiration
61,114.0,25,M,down,0.6384737999978825,1.2589799446993637,,psi_staircase_training,emotion,,102.72882116735805,102.72882116735805,21.995508974139533,491.435614500002,1014,30,female,True,4913,4919,False,False,expiration,expiration
62,127.0,25,F,up,1.6289170999989435,0.8179255684514977,,psi_staircase_training,emotion,,109.4942678333988,109.4942678333988,27.61213658484523,493.2355884999997,1014,30,female,True,4931,4947,False,False,inspiration,expiration
63,126.0,25,F,up,0.7743718999990961,1.6192748235182726,,psi_staircase_training,emotion,,106.87769311499166,106.87769311499166,25.70956585000039,496.86879880000197,1014,30,female,True,4968,4976,False,False,peak,expiration
64,89.0,25,F,up,0.603437000001577,0.30968912070731264,,psi_staircase_training,emotion,,105.04657530331595,105.04657530331595,24.04150106449321,498.3187372000029,1014,30,female,True,4982,4988,False,False,expiration,trough
65,77.0,25,M,down,0.7675082000023394,1.9312293212236813,,psi_staircase_training,emotion,,99.15439570715874,99.15439570715874,29.542818428563763,501.21862340000007,1014,30,female,True,5011,5019,False,False,peak,expiration
66,79.0,25,M,down,0.5934736000017438,1.0927147906488195,,psi_staircase_training,emotion,,101.01447462074336,101.01447462074336,28.157875146841736,503.4517742000026,1014,30,female,True,5034,5040,False,False,expiration,expiration
67,125.0,25,F,up,0.5297647000006691,1.2869851872633185,,psi_staircase_training,emotion,,102.52724076173344,102.52724076173344,26.875142075015805,505.66844800000035,1014,30,female,True,5056,5061,False,False,expiration,expiration
68,80.0,25,F,down,1.0511007999994035,0.33147846850417223,,psi_staircase_training,emotion,,101.18894771556872,101.18894771556872,25.56535961707472,506.88507640000165,1014,30,female,True,5068,5079,False,False,expiration,inspiration
69,123.0,25,M,up,0.4958038000004308,0.7555516965787844,,psi_staircase_training,emotion,,102.38894557384435,102.38894557384435,24.305976661664506,509.0683294000009,1014,30,female,True,5090,5095,False,False,peak,expiration
70,81.0,25,M,down,0.3666972999999416,0.8508824186572341,,psi_staircase_training,emotion,,101.28492406790774,101.28492406790774,23.049731295950647,510.7849411999996,1014,30,female,True,5107,5111,False,False,expiration,expiration
71,122.0,25,M,up,0.4927849000014248,1.0965550507864397,,psi_staircase_training,emotion,,102.24720141077171,102.24720141077171,21.873715231047722,512.6513978000003,1014,30,female,True,5126,5131,False,False,expiration,expiration
72,83.0,25,M,up,0.565051500001573,1.816619818938897,,psi_staircase_training,emotion,,101.362746273947,101.362746273947,20.736668677058574,515.3180944000014,1014,30,female,True,5152,5158,False,False,inspiration,expiration
73,74.0,25,F,down,0.7744611999987683,0.3777537232830705,,psi_staircase_training,emotion,,97.73163533175828,97.73163533175828,25.390938054003357,516.6347012000006,1014,30,female,True,5165,5173,False,False,expiration,expiration
74,121.0,25,F,up,0.6905323999999382,1.9147817957633773,,psi_staircase_training,emotion,,98.56600925453348,98.56600925453348,24.325468367706947,519.6846068000013,1014,30,female,True,5196,5203,False,False,expiration,expiration
75,75.0,25,F,down,0.4170627999992576,0.9887184602557832,,psi_staircase_training,emotion,,97.79169133462987,97.79169133462987,23.32255477829798,521.734511900002,1014,30,female,True,5216,5220,False,False,inspiration,inspiration
76,119.0,25,M,up,0.7007211000018287,1.4640797843771196,,psi_staircase_training,emotion,,98.48712795363691,98.48712795363691,22.350334805623763,523.9844360000026,1014,30,female,True,5239,5246,False,False,expiration,inspiration
77,77.0,25,M,down,0.7807360999977391,0.6307193105153719,,psi_staircase_training,emotion,,97.7923500672603,97.7923500672603,21.432330723104986,525.6843901000029,1014,30,female,True,5256,5264,False,False,expiration,expiration
78,118.0,25,F,up,1.0629138000003877,1.4878909162347185,,psi_staircase_training,emotion,,98.41038913298948,98.41038913298948,20.55960559931847,528.3342862999998,1014,30,female,True,5282,5293,False,False,inspiration,expiration
79,78.0,25,F,down,0.5573775000011665,1.9313220757225764,,psi_staircase_training,emotion,,97.80602826888672,97.80602826888672,19.748095977557046,531.6841525000018,1014,30,female,True,5316,5322,False,False,inspiration,peak
80,115.0,25,M,up,0.7111248000001069,1.2351161436975266,,psi_staircase_training,emotion,,98.33746865962671,98.33746865962671,18.99262877122029,533.8340685000003,1014,30,female,True,5337,5344,False,False,expiration,inspiration
81,113.0,25,M,up,0.6061040999993565,0.8295892511016558,,psi_staircase_training,emotion,,97.7294020069968,97.7294020069968,18.27502563520316,535.7340121000016,1014,30,female,True,5356,5362,False,False,expiration,expiration
82,0.29,25,up,up,0.6679968000025838,1.6406403226553108,,psi_staircase,cRDM,,0.25,0.25693124029946324,0.10500000000000002,549.5001692000005,1014,30,female,True,5494,5501,False,False,expiration,expiration
83,0.25,25,up,up,0.6377396999996563,1.955968166829782,,psi_staircase,cRDM,,0.21910266653183127,0.2260132002683493,0.10468632033873933,552.3833957000023,1014,30,female,True,5523,5529,False,False,inspiration,expiration
84,0.21,25,down,down,0.7654683000000659,1.4836709771387968,,psi_staircase,cRDM,,0.1900540959403307,0.19684979615540016,0.10294672984249993,554.7666911000015,1014,30,female,True,5547,5555,False,False,trough,inspiration
85,0.18,25,down,up,0.8646059000020614,1.5207943094851957,,psi_staircase,cRDM,,0.1635257589279754,0.1701521334256793,0.100381647756865,557.3165403000021,1014,30,female,True,5572,5581,False,False,expiration,expiration
86,0.28,25,up,up,0.9431366000026172,1.8031790261548069,,psi_staircase,cRDM,,0.2462894156509761,0.25367687443104303,0.11191116429293203,560.2500469000006,1014,30,female,True,5602,5611,False,False,expiration,expiration
87,0.26,25,down,down,0.5908043999988877,1.6618106440000648,,psi_staircase,cRDM,,0.2240209245171441,0.23127202108978026,0.10984543995477343,563.1163348000008,1014,30,female,True,5630,5636,False,False,peak,expiration
88,0.23,25,up,up,0.625830600001791,0.7491128336034654,,psi_staircase,cRDM,,0.2047781477371872,0.21182460465655809,0.10674539397966608,564.7163058000006,1014,30,female,True,5646,5652,False,False,expiration,inspiration
89,0.23,25,down,down,0.5503188999973645,1.4294328473564768,,psi_staircase,cRDM,,0.1874201716315257,0.19431844658589745,0.10450061445209473,567.0328474000016,1014,30,female,True,5669,5675,False,False,expiration,expiration
90,0.21,25,down,down,0.540053299999272,0.5584107521616681,,psi_staircase,cRDM,,0.17345971586379055,0.18012712878884973,0.10100333084475896,568.4161172000022,1014,30,female,True,5683,5688,False,False,inspiration,inspiration
91,0.17,25,up,up,0.6437697000001208,1.3785060534859952,,psi_staircase,cRDM,,0.16045966703622236,0.16702796679355406,0.09950188490409588,570.5993912000013,1014,30,female,True,5705,5711,False,False,expiration,expiration
92,0.17,25,down,up,0.990409500001988,0.6309686829312023,,psi_staircase,cRDM,,0.14444951683624788,0.15146531287032866,0.10628091824136077,572.1326709999994,1014,30,female,True,5720,5730,False,False,inspiration,expiration
93,0.23,25,down,down,0.6758799000017461,0.5197284236521432,,psi_staircase,cRDM,,0.18853963286420486,0.19473897013844316,0.09391254460553444,573.8992737000008,1014,30,female,True,5738,5745,False,False,expiration,expiration
94,0.22,25,down,down,0.5216749999999593,0.4386946067666062,,psi_staircase,cRDM,,0.18005749033909182,0.1858930606254278,0.08840190984472494,575.2825694000021,1014,30,female,True,5752,5757,False,False,inspiration,inspiration
95,0.2,25,up,down,0.6183285000006435,0.34688844366063176,,psi_staircase,cRDM,,0.17325704059760638,0.17877496999867615,0.08359003036688685,576.4158497000026,1014,30,female,True,5763,5769,False,False,expiration,expiration
96,0.24,25,up,up,0.579030299999431,1.2052760073671311,,psi_staircase,cRDM,,0.2027224900028208,0.2081999630654708,0.0829771652301221,578.4991083000023,1014,30,female,True,5784,5790,False,False,inspiration,expiration
97,0.23,25,down,down,0.7520842999983871,1.1049752977164875,,psi_staircase,cRDM,,0.19642774015527625,0.201454499555225,0.07614939234403624,580.4490538000027,1014,30,female,True,5804,5812,False,False,expiration,inspiration
98,0.23,25,down,down,0.6012924999995448,1.0849269845123293,,psi_staircase,cRDM,,0.1917059363558673,0.19633364279016746,0.07010421722633765,582.5488418000023,1014,30,female,True,5825,5831,False,False,expiration,expiration
99,0.21,25,up,up,0.5766585999990639,1.9512622080341795,,psi_staircase,cRDM,,0.1885379347540751,0.19278907704695808,0.06439972089660198,585.3655221000008,1014,30,female,True,5853,5859,False,False,expiration,expiration
100,0.2,25,up,up,0.5920354999980191,0.4435636901743089,,psi_staircase,cRDM,,0.183729046151522,0.18795346953090294,0.06399496131584861,586.6491064000003,1014,30,female,True,5866,5872,False,False,expiration,inspiration
101,0.18,25,up,up,0.5850514000012481,1.4788000646928416,,psi_staircase,cRDM,,0.17725289858961396,0.18175568371651787,0.06821180883910831,588.9820607000001,1014,30,female,True,5889,5895,False,False,expiration,expiration
102,0.18,25,up,up,0.5959116000012727,1.33587664419153,,psi_staircase,cRDM,,0.16712937888267212,0.17248197533770462,0.08108543399107564,591.1652925000018,1014,30,female,True,5911,5917,False,False,inspiration,expiration
103,0.17,25,down,down,0.5729568999995536,1.518724134991264,,psi_staircase,cRDM,,0.15611034531326606,0.16228907094587608,0.0936003028886892,593.5651805000016,1014,30,female,True,5935,5941,False,False,inspiration,inspiration
104,0.17,25,down,down,0.5746487000033085,1.5477068821296345,,psi_staircase,cRDM,,0.1441916743567647,0.15122123943411694,0.10648950277761164,595.9484892,1014,30,female,True,5959,5965,False,False,expiration,expiration
105,0.17,25,down,down,0.4854334000010567,0.35197021348347785,,psi_staircase,cRDM,,0.13267772377810155,0.1404160119285807,0.1172258096236007,597.1317450999994,1014,30,female,True,5970,5975,False,False,inspiration,inspiration
106,0.17,25,up,up,0.646156400001928,1.4318925445222803,,psi_staircase,cRDM,,0.122219845235731,0.1304956531090946,0.12536859049172894,599.3149928000022,1014,30,female,True,5992,5998,False,False,expiration,expiration
107,0.16,25,up,up,0.6260397000005469,1.8226506298908849,,psi_staircase,cRDM,,0.1131196444183261,0.12176705785898845,0.13099797035457805,602.0481801000024,1014,30,female,True,6020,6026,False,False,expiration,expiration
108,0.16,25,down,down,0.8847153000024264,1.8888151079676976,,psi_staircase,cRDM,,0.10491732041781132,0.11383751467221705,0.135130273406497,604.8314721000023,1014,30,female,True,6047,6056,False,False,inspiration,expiration
109,0.15,25,down,down,0.4958125000011933,0.9735152053398572,,psi_staircase,cRDM,,0.09794766812868336,0.10702194235694892,0.1374644007136305,606.9483166999999,1014,30,female,True,6069,6074,False,False,inspiration,inspiration
110,0.15,25,up,down,0.6154983000014909,0.9969160505174312,,psi_staircase,cRDM,,0.09171264347151042,0.10087222707147883,0.13875673565540048,608.7146797000022,1014,30,female,True,6086,6092,False,False,expiration,expiration
111,0.16,25,up,down,0.6115162999994936,1.0682701939894417,,psi_staircase,cRDM,,0.11415649824481988,0.12325669959336595,0.13785716557415167,610.6646164000013,1014,30,female,True,6106,6112,False,False,inspiration,peak
112,0.17,25,down,down,0.7819630999983929,0.3411024258565857,,psi_staircase,cRDM,,0.13785876970582367,0.14620915989686825,0.12649842339582093,611.8812332000016,1014,30,female,True,6118,6126,False,False,expiration,expiration
113,0.16,25,up,up,0.5830340000029537,0.4129902045764278,,psi_staircase,cRDM,,0.1300916816498412,0.13884014482499926,0.13252875296542946,613.3311452000016,1014,30,female,True,6132,6138,False,False,expiration,inspiration
114,0.15,25,down,down,0.8233932000002824,1.1325696124289104,,psi_staircase,cRDM,,0.12274844202053599,0.13184887339804918,0.13786065023786254,615.2977759000022,1014,30,female,True,6152,6160,False,False,expiration,expiration
115,0.15,25,up,up,0.8107530000015686,0.5700681004431102,,psi_staircase,cRDM,,0.11591372286238692,0.12530542702378672,0.1422730845189919,616.9476897000022,1014,30,female,True,6169,6177,False,False,inspiration,expiration
116,0.15,25,down,up,0.6319688000003225,1.8470093826083256,,psi_staircase,cRDM,,0.10981126052399244,0.1194083561614915,0.14538451971076993,619.8642989,1014,30,female,True,6198,6204,False,False,inspiration,inspiration
117,0.15,25,up,up,0.7316277999998421,0.4187321416543107,,psi_staircase,cRDM,,0.12874169689087706,0.1378532847438895,0.13802965749728724,621.1975385000005,1014,30,female,True,6211,6218,False,False,expiration,expiration
118,0.15,25,down,up,0.6267187999983435,0.5032769348406501,,psi_staircase,cRDM,,0.12228266136798376,0.13168585901729354,0.14244719711333373,622.6974974000004,1014,30,female,True,6226,6232,False,False,inspiration,inspiration
119,0.18,25,up,up,0.5974019999994198,1.2469675474335309,,psi_staircase,cRDM,,0.14053867300039502,0.1492792017836534,0.1324085564185672,624.8307392999994,1014,30,female,True,6247,6253,False,False,expiration,expiration
120,0.15,25,up,up,0.7858242000002065,1.5586948972101695,,psi_staircase,cRDM,,0.1351588484980833,0.144046637131912,0.13463936701549334,627.2473237000012,1014,30,female,True,6271,6279,False,False,inspiration,expiration
121,0.15,25,down,down,0.4705348999996204,0.4295864124846053,,psi_staircase,cRDM,,0.12901213274981546,0.13822757405653016,0.13960291310055656,628.7305959000005,1014,30,female,True,6286,6291,False,False,expiration,expiration
122,0.14,25,down,down,0.5064485000002605,0.9953732926427836,,psi_staircase,cRDM,,0.12335145017979368,0.13281350111347728,0.14333875397650164,630.4637306000004,1014,30,female,True,6304,6309,False,False,inspiration,expiration
123,0.14,25,down,down,0.5706873000017367,0.3980848742580991,,psi_staircase,cRDM,,0.11795625139620892,0.12762807047717806,0.14651649050176452,631.6304923999996,1014,30,female,True,6315,6321,False,False,expiration,expiration
124,0.14,25,up,up,0.8820501999980479,0.7921822766444848,,psi_staircase,cRDM,,0.11297030317902787,0.12279938423259862,0.14889882128381074,633.2470902999994,1014,30,female,True,6331,6340,False,False,inspiration,inspiration
125,0.14,25,up,up,0.8647921000010683,0.681629159127052,,psi_staircase,cRDM,,0.1083554608954133,0.11830213267306045,0.15068018010194048,635.0803842000022,1014,30,female,True,6350,6359,False,False,expiration,expiration
126,0.14,25,down,down,0.5568649999986519,1.5767499878301867,,psi_staircase,cRDM,,0.10407019532346656,0.11410487678792232,0.15201342158768405,637.7803162000017,1014,30,female,True,6377,6383,False,False,expiration,expiration
127,0.14,25,down,down,0.5000093000016932,1.5445804301114971,,psi_staircase,cRDM,,0.10007560745215996,0.11017627694810386,0.15301306133568032,640.1301767000003,1014,30,female,True,6400,6405,False,False,inspiration,inspiration
128,0.14,25,down,down,0.5309525999982725,0.8909328351838555,,psi_staircase,cRDM,,0.0963379192456681,0.10648803107774037,0.15376205358947315,641.7801593000004,1014,30,female,True,6417,6422,False,False,expiration,expiration
129,0.13,25,up,down,0.6850339000011445,0.6091917679338427,,psi_staircase,cRDM,,0.09282895214681634,0.1030158340088392,0.15431907556216598,643.1800929000019,1014,30,female,True,6431,6438,False,False,expiration,expiration
130,0.14,25,up,down,0.6064858999998249,1.7559399024743512,,psi_staircase,cRDM,,0.1050440042079343,0.1150800778142959,0.1520345108724004,645.8966588000002,1014,30,female,True,6458,6464,False,False,expiration,expiration
131,0.14,25,up,up,0.8409650999965379,1.4572218934920138,,psi_staircase,cRDM,,0.1176884282025333,0.1275407477084088,0.14925085604044613,648.2132277000019,1014,30,female,True,6481,6489,False,False,inspiration,inspiration
132,100.0,25,M,down,0.7280658000017866,1.879080194370036,,psi_staircase,emotion,,100.0,100.0,25.00050000000001,656.7460893999996,1014,30,female,True,6567,6574,False,False,expiration,expiration
133,145.0,25,M,up,0.6040166999991925,1.8277616478857,,psi_staircase,emotion,,145.25719053245996,145.25719053245996,25.000500000000283,659.6961313999999,1014,30,female,True,6596,6602,False,False,expiration,expiration
134,121.0,25,F,down,0.4947893999997177,0.567053656121479,,psi_staircase,emotion,,120.36392901436103,120.36392901436103,25.71326925488699,661.2293872000008,1014,30,female,True,6611,6616,False,False,expiration,inspiration
135,137.0,25,F,up,0.6033158000027471,0.4731904730404446,,psi_staircase,emotion,,137.8359832966118,137.8359832966118,25.292325986285494,662.5460292999996,1014,30,female,True,6625,6631,False,False,inspiration,expiration
136,127.0,25,M,up,0.8749153999997361,1.6768480990532268,,psi_staircase,emotion,,126.46069055808249,126.46069055808249,23.649751085611292,665.1792658000012,1014,30,female,True,6651,6660,False,False,inspiration,expiration
137,113.0,25,F,down,0.8306542999998783,1.048924635526543,,psi_staircase,emotion,,117.5164469811675,117.5164469811675,24.576174135130763,667.462509500001,1014,30,female,True,6674,6682,False,False,expiration,inspiration
138,117.0,25,M,up,0.6480650000012247,0.4098412672970746,,psi_staircase,emotion,,123.97574817942949,123.97574817942949,21.320254309740623,669.0791142000016,1014,30,female,True,6690,6696,False,False,expiration,expiration
139,102.0,25,F,down,0.6180950999987544,0.3043667206236406,,psi_staircase,emotion,,116.37299699918823,116.37299699918823,26.83884095507041,670.3790719999997,1014,30,female,True,6703,6709,False,False,expiration,expiration
140,134.0,25,F,up,0.8405592999988585,1.4667589818087652,,psi_staircase,emotion,,119.95726308266944,119.95726308266944,24.49843101953165,672.7956632000022,1014,30,female,True,6727,6735,False,False,inspiration,expiration
141,104.0,25,M,down,0.6449147999992421,0.4463160696995681,,psi_staircase,emotion,,117.39298603352069,117.39298603352069,22.42294878907636,674.4622732000025,1014,30,female,True,6744,6750,False,False,expiration,expiration
142,133.0,25,F,up,0.990336999999272,0.4937444241762482,,psi_staircase,emotion,,119.72015158074345,119.72015158074345,20.082478536185825,675.9788793000008,1014,30,female,True,6759,6769,False,False,expiration,inspiration
143,107.0,25,F,down,0.6790585999988252,1.1700410349228876,,psi_staircase,emotion,,118.08334602424559,118.08334602424559,18.059746528131484,678.5121117000018,1014,30,female,True,6784,6791,False,False,expiration,expiration
144,130.0,25,F,down,1.2025082000000111,0.9211139661736574,,psi_staircase,emotion,,119.69402127248868,119.69402127248868,15.95696017026366,680.4786893000019,1014,30,female,True,6804,6816,False,False,inspiration,expiration
145,141.0,25,M,up,0.6749912000013865,1.2026363306834484,,psi_staircase,emotion,,123.85018714357989,123.85018714357989,22.060642278708904,683.2451904000009,1014,30,female,True,6832,6839,False,False,inspiration,inspiration
146,106.0,25,M,down,0.6558711999969091,0.5854361904996912,,psi_staircase,emotion,,122.53663791690063,122.53663791690063,20.2501919118017,684.8952248000022,1014,30,female,True,6848,6855,False,False,expiration,expiration
147,139.0,25,F,up,0.9843360999984724,0.8892915858481207,,psi_staircase,emotion,,123.57811939013884,123.57811939013884,18.639896565238747,686.8118114999997,1014,30,female,True,6867,6877,False,False,inspiration,expiration
148,108.0,25,F,down,0.6417927999973472,1.0189782496365734,,psi_staircase,emotion,,122.61103262113936,122.61103262113936,17.06517322870209,689.1783790000009,1014,30,female,True,6891,6897,False,False,expiration,inspiration
149,137.0,25,M,up,0.6634168999989924,1.814238015326804,,psi_staircase,emotion,,123.41473420037909,123.41473420037909,15.696324815593364,691.9949383000021,1014,30,female,True,6919,6926,False,False,expiration,expiration
150,111.0,25,M,down,0.6945983000005072,0.4841223023099264,,psi_staircase,emotion,,122.67682476923757,122.67682476923757,14.419818912123768,693.5115609999992,1014,30,female,True,6934,6941,False,False,expiration,expiration
151,135.0,25,M,up,1.0491125000007742,1.4412418172496386,,psi_staircase,emotion,,123.38424876817815,123.38424876817815,13.31286149409508,696.0281327000013,1014,30,female,True,6959,6969,False,False,expiration,expiration
152,115.0,25,M,down,0.6644676000032632,0.8065068921872096,,psi_staircase,emotion,,122.78247459589242,122.78247459589242,12.319690500650461,698.2447191000027,1014,30,female,True,6982,6989,False,False,trough,inspiration
153,123.0,25,F,up,0.7492438000008406,1.8648702578925165,,psi_staircase,emotion,,123.54203689293165,123.54203689293165,11.481462461238243,701.1279338000023,1014,30,female,True,7010,7017,False,False,expiration,expiration
154,112.0,25,F,down,0.7232438000028196,0.4965774671251046,,psi_staircase,emotion,,122.11544983035571,122.11544983035571,11.59453929930572,702.7278886000023,1014,30,female,True,7026,7033,False,False,inspiration,inspiration
155,131.0,25,F,up,0.5393311999978323,1.1940428968748915,,psi_staircase,emotion,,122.5658755300785,122.5658755300785,10.841307936918907,704.9777993999996,1014,30,female,True,7049,7054,False,False,expiration,expiration
156,128.0,25,M,up,0.5592992000019876,1.2807333037286777,,psi_staircase,emotion,,122.0413179029258,122.0413179029258,10.139213050634249,707.1609352000014,1014,30,female,True,7071,7077,False,False,inspiration,expiration
157,114.0,25,M,down,0.6452645999997912,1.6659689005591682,,psi_staircase,emotion,,121.45513055610806,121.45513055610806,9.576418343452954,709.7608706999998,1014,30,female,True,7097,7103,False,False,expiration,expiration
158,125.0,25,F,up,0.8646484999990207,1.1852007345374778,,psi_staircase,emotion,,121.89241302019391,121.89241302019391,9.017528667085859,711.9275364000023,1014,30,female,True,7118,7127,False,False,inspiration,expiration
159,124.0,25,F,up,0.8073809999987134,0.7586905582878231,,psi_staircase,emotion,,121.19565015845095,121.19565015845095,8.613893781824952,713.9107981000017,1014,30,female,True,7138,7146,False,False,expiration,inspiration
160,124.0,25,M,up,0.6511032000016712,0.742494047993256,,psi_staircase,emotion,,120.5329487322597,120.5329487322597,8.228807760446186,715.7940804999997,1014,30,female,True,7157,7164,False,False,expiration,expiration
161,124.0,25,M,down,0.5968744999991031,1.1496362457448634,,psi_staircase,emotion,,119.9760565677038,119.9760565677038,7.802463095152477,717.9273042999994,1014,30,female,True,7178,7184,False,False,inspiration,expiration
162,113.0,25,F,down,0.5073892000000342,0.5355237912509594,,psi_staircase,emotion,,121.11848364849651,121.11848364849651,8.900845408740869,719.4438055999998,1014,30,female,True,7194,7199,False,False,expiration,expiration
163,114.0,25,M,down,1.2332854000014777,0.3899398675933479,,psi_staircase,emotion,,121.41632815979612,121.41632815979612,8.42214444161627,720.6939014000017,1014,30,female,True,7206,7218,False,False,inspiration,expiration
164,128.0,25,F,down,1.195485500000359,1.0438471053789626,,psi_staircase,emotion,,121.68785625034158,121.68785625034158,8.014082107080913,723.3436694000011,1014,30,female,True,7233,7245,False,False,expiration,inspiration
165,113.0,25,M,down,0.5095884000002115,0.9799447761671572,,psi_staircase,emotion,,122.74775121589312,122.74775121589312,9.368738192635432,725.8435934000007,1014,30,female,True,7258,7263,False,False,expiration,expiration
166,132.0,25,F,down,0.5231604000000516,0.4622131804334353,,psi_staircase,emotion,,122.947809494647,122.947809494647,8.972570476819982,727.1769924,1014,30,female,True,7271,7276,False,False,inspiration,inspiration
167,136.0,25,M,up,1.1412806999978784,1.6990460874508764,,psi_staircase,emotion,,124.09558492109016,124.09558492109016,10.992273396775497,729.7769073000017,1014,30,female,True,7297,7308,False,False,expiration,inspiration
168,136.0,25,F,up,0.9550374999998894,1.0921579979900533,,psi_staircase,emotion,,123.87577863699607,123.87577863699607,10.494279054699227,732.3601277000017,1014,30,female,True,7323,7333,False,False,expiration,trough
169,113.0,25,M,up,0.7457977000012761,0.7342185145002369,,psi_staircase,emotion,,123.70025878165748,123.70025878165748,10.083816959135179,734.3933905000013,1014,30,female,True,7343,7350,False,False,inspiration,expiration
170,109.0,25,M,down,0.5641909000005398,0.4134015754755654,,psi_staircase,emotion,,122.60343731319394,122.60343731319394,12.238743005025524,735.9100020000004,1014,30,female,True,7358,7364,False,False,expiration,expiration
171,136.0,25,F,up,0.7969346999998379,1.2923429948394205,,psi_staircase,emotion,,122.79016964596336,122.79016964596336,11.759603046773574,738.0932515000023,1014,30,female,True,7380,7388,False,False,inspiration,expiration
172,110.0,25,F,up,1.2389685999987703,1.4488969621108785,,psi_staircase,emotion,,122.61398447344513,122.61398447344513,11.333595981101954,740.6931777000027,1014,30,female,True,7406,7418,False,False,inspiration,expiration
173,105.0,25,F,down,0.5494347999992897,1.1670315264480984,,psi_staircase,emotion,,121.51114827976835,121.51114827976835,13.75219762849825,743.4597384000008,1014,30,female,True,7434,7439,False,False,inspiration,inspiration
174,137.0,25,M,up,0.7342067000026873,1.9071107285496984,,psi_staircase,emotion,,121.68550540371885,121.68550540371885,13.246952533873882,746.2929440000007,1014,30,female,True,7462,7469,False,False,expiration,inspiration
175,107.0,25,M,down,0.5246303000021726,1.8608499595968653,,psi_staircase,emotion,,121.5219706878237,121.5219706878237,12.799387367095775,749.259511600001,1014,30,female,True,7492,7497,False,False,expiration,expiration
176,136.0,25,F,down,1.1055078000026697,1.135324415531586,,psi_staircase,emotion,,121.6945861823513,121.6945861823513,12.386252894934984,751.2426475000029,1014,30,female,True,7512,7523,False,False,inspiration,expiration
177,141.0,25,F,up,0.6901572999995551,0.5318749563691955,,psi_staircase,emotion,,122.73463204928629,122.73463204928629,14.83557203779088,753.2260158999997,1014,30,female,True,7531,7538,False,False,expiration,expiration
178,105.0,25,F,down,0.5788949999987381,1.4514718763753405,,psi_staircase,emotion,,122.57670945239157,122.57670945239157,14.354139566106529,755.7092859000003,1014,30,female,True,7556,7562,False,False,inspiration,expiration
179,139.0,25,M,up,0.8840608999998949,1.8849146833632917,,psi_staircase,emotion,,122.7258979548536,122.7258979548536,13.924148718080366,758.5591166000012,1014,30,female,True,7585,7594,False,False,inspiration,expiration
180,107.0,25,M,down,0.5914383000017551,0.30253362844905884,,psi_staircase,emotion,,122.56876236776743,122.56876236776743,13.523407166636824,760.0758050000003,1014,30,female,True,7600,7606,False,False,expiration,expiration
181,138.0,25,M,up,0.6881586000017705,1.5656984997830825,,psi_staircase,emotion,,122.72231793348524,122.72231793348524,13.160686653619154,762.6090165000023,1014,30,female,True,7625,7632,False,False,inspiration,expiration
182,0.11367271416012205,25,down,up,0.8035030999999435,1.1819978992759006,,experiment,cRDM,0.0,,,,773.1086513000009,1014,30,female,True,7730,7738,False,False,expiration,expiration
183,0.11367271416012205,25,up,up,0.7369963000019197,1.9499343027000144,,experiment,cRDM,0.0,,,,776.1251919999995,1014,30,female,True,7760,7767,False,False,peak,expiration
184,0.11367271416012205,25,down,down,0.9540644000007888,1.6410977787335093,,experiment,cRDM,0.0,,,,778.7750898000012,1014,30,female,True,7787,7797,False,False,inspiration,expiration
185,0.11367271416012205,25,up,up,1.0084987999980513,1.9925223180063891,,experiment,cRDM,0.0,,,,781.9916374999992,1014,30,female,True,7819,7829,False,False,inspiration,expiration
186,0.11367271416012205,25,down,down,0.5446039000016754,0.7261169138930981,,experiment,cRDM,0.0,,,,783.991581800001,1014,30,female,True,7839,7844,False,False,expiration,inspiration
187,0.11367271416012205,25,down,down,0.53433700000096,1.2883480862636876,,experiment,cRDM,0.0,,,,786.0748535000022,1014,30,female,True,7860,7865,False,False,expiration,expiration
188,0.11367271416012205,25,up,up,0.5134814999983064,1.7035793479267098,,experiment,cRDM,0.0,,,,788.5747198999996,1014,30,female,True,7885,7890,False,False,inspiration,expiration
189,0.11367271416012205,25,down,down,0.5615268000001379,1.5646261950107918,,experiment,cRDM,0.0,,,,790.9246574000026,1014,30,female,True,7908,7914,False,False,trough,inspiration
190,0.11367271416012205,25,up,up,0.6365477999970608,0.3394559041501364,,experiment,cRDM,0.0,,,,792.0746417000009,1014,30,female,True,7920,7926,False,False,expiration,expiration
191,0.11367271416012205,25,up,up,0.8430146000027889,1.8127959241663985,,experiment,cRDM,0.0,,,,794.7911760000025,1014,30,female,True,7947,7955,False,False,expiration,expiration
192,0.11367271416012205,25,down,up,0.6117401999981666,1.0182116395624448,,experiment,cRDM,0.0,,,,796.9244245000009,1014,30,female,True,7968,7974,False,False,inspiration,inspiration
193,0.11367271416012205,25,up,up,0.7001296999987972,0.3444447949399366,,experiment,cRDM,0.0,,,,798.1410302000003,1014,30,female,True,7980,7987,False,False,expiration,expiration
194,0.11367271416012205,25,up,up,0.7228933000005782,1.2103112859835181,,experiment,cRDM,0.0,,,,800.3243099000027,1014,30,female,True,8003,8010,False,False,inspiration,peak
195,0.11367271416012205,25,up,up,0.6643325999975787,1.2821765916233092,,experiment,cRDM,0.0,,,,802.5908573000015,1014,30,female,True,8025,8032,False,False,expiration,expiration
196,0.11367271416012205,25,down,down,0.8750892000025488,0.6006510903931563,,experiment,cRDM,0.0,,,,804.1241552000029,1014,30,female,True,8040,8049,False,False,inspiration,expiration
197,0.11367271416012205,25,down,down,1.0251242999984242,0.6610314365142336,,experiment,cRDM,0.0,,,,805.9240705000011,1014,30,female,True,8058,8068,False,False,expiration,trough
198,0.11367271416012205,25,up,up,0.7275131000023976,1.0836795116854203,,experiment,cRDM,0.0,,,,808.2906799000011,1014,30,female,True,8082,8089,False,False,peak,expiration
199,0.11367271416012205,25,up,up,0.8098638999981631,0.5192883827375023,,experiment,cRDM,0.0,,,,809.8072936999997,1014,30,female,True,8097,8105,False,False,expiration,inspiration
200,0.11367271416012205,25,down,up,0.950244899999234,0.391859039437402,,experiment,cRDM,0.0,,,,811.2739132999995,1014,30,female,True,8112,8122,False,False,inspiration,expiration
201,0.11367271416012205,25,down,down,0.5723093999986304,0.3851894989383887,,experiment,cRDM,0.0,,,,812.8738478000014,1014,30,female,True,8128,8134,False,False,expiration,expiration
202,0.11367271416012205,25,up,up,0.9084372999968764,1.0281297594950958,,experiment,cRDM,0.0,,,,814.7406880000017,1014,30,female,True,8147,8156,False,False,inspiration,expiration
203,0.11367271416012205,25,down,down,0.5508752999994613,0.5409213880803923,,experiment,cRDM,0.0,,,,816.4402651000019,1014,30,female,True,8164,8170,False,False,expiration,inspiration
204,0.11367271416012205,25,up,down,0.8355272999979206,1.5847028528474036,,experiment,cRDM,0.0,,,,818.8236327000012,1014,30,female,True,8187,8195,False,False,expiration,expiration
205,0.11367271416012205,25,down,down,0.6543781000000308,1.591251848881368,,experiment,cRDM,0.0,,,,821.5068492000028,1014,30,female,True,8214,8221,False,False,expiration,expiration
206,0.11367271416012205,25,down,down,0.5886942999968596,1.2955917096541012,,experiment,cRDM,0.0,,,,823.7234697000023,1014,30,female,True,8236,8242,False,False,inspiration,inspiration
207,0.11367271416012205,25,up,down,0.647422900001402,1.1720818948682254,,experiment,cRDM,0.0,,,,825.7567307999997,1014,30,female,True,8257,8263,False,False,expiration,expiration
208,0.11367271416012205,25,up,down,0.8281676999977208,0.41981984861183097,,experiment,cRDM,0.0,,,,827.0900089999997,1014,30,female,True,8270,8278,False,False,inspiration,expiration
209,0.11367271416012205,25,down,down,0.7426583000014944,1.4765775392761975,,experiment,cRDM,0.0,,,,829.6565440000012,1014,30,female,True,8296,8303,False,False,trough,inspiration
210,0.11367271416012205,25,up,up,1.0446326999990558,0.3798290515297163,,experiment,cRDM,0.0,,,,831.0565500000013,1014,30,female,True,8310,8320,False,False,expiration,expiration
211,0.11367271416012205,25,down,down,0.8940991000017675,1.8111277236284715,,experiment,cRDM,0.0,,,,834.1730400000015,1014,30,female,True,8341,8350,False,False,expiration,expiration
212,0.11367271416012205,25,up,up,1.260209699998086,1.833623159230456,,experiment,cRDM,0.0,,,,837.1729582000007,1014,30,female,True,8371,8384,False,False,inspiration,expiration
213,0.11367271416012205,25,down,up,0.9603267000020425,1.3096825474511538,,experiment,cRDM,0.0,,,,840.0228311999998,1014,30,female,True,8399,8409,False,False,inspiration,expiration
214,0.11367271416012205,25,up,up,0.8410770999980741,1.0573976386859765,,experiment,cRDM,0.0,,,,842.3060890000015,1014,30,female,True,8422,8430,False,False,expiration,inspiration
215,0.11367271416012205,25,down,up,0.7688060000000405,0.3300997973740305,,experiment,cRDM,0.0,,,,843.7393529000002,1014,30,female,True,8437,8445,False,False,inspiration,expiration
216,0.11367271416012205,25,up,up,0.8585405000012543,0.3059822724845996,,experiment,cRDM,0.0,,,,845.0726624000017,1014,30,female,True,8450,8459,False,False,expiration,expiration
217,0.11367271416012205,25,down,up,1.4352241000015056,0.7088448628664559,,experiment,cRDM,0.0,,,,846.9059307000024,1014,30,female,True,8468,8482,False,False,inspiration,expiration
218,0.11367271416012205,25,up,up,0.7000146999998833,1.581069193785446,,experiment,cRDM,0.0,,,,850.1891606000028,1014,30,female,True,8501,8508,False,False,inspiration,expiration
219,0.11367271416012205,25,down,down,1.3058081999988644,1.7262371490932438,,experiment,cRDM,0.0,,,,852.8723562000014,1014,30,female,True,8528,8541,False,False,inspiration,expiration
220,0.11367271416012205,25,up,down,0.9603190000016184,0.4960158815891068,,experiment,cRDM,0.0,,,,854.9388346000014,1014,30,female,True,8549,8559,False,False,expiration,inspiration
221,0.11367271416012205,25,down,down,1.4793562000013483,1.3752530344496248,,experiment,cRDM,0.0,,,,857.5388223000009,1014,30,female,True,8575,8590,False,False,expiration,expiration
222,0.11367271416012205,25,down,down,0.8457570999999007,1.1364572397495067,,experiment,cRDM,0.0,,,,860.4054391999997,1014,30,female,True,8603,8611,False,False,inspiration,expiration
223,0.11367271416012205,25,up,down,1.4871746000026178,1.2108198355500317,,experiment,cRDM,0.0,,,,862.7219958000023,1014,30,female,True,8626,8641,False,False,expiration,peak
224,0.11367271416012205,25,down,down,0.7768828000007488,0.9199253604730816,,experiment,cRDM,0.0,,,,865.4052566999999,1014,30,female,True,8653,8661,False,False,expiration,expiration
225,0.11367271416012205,25,up,down,1.3306813000017428,0.3915238478474855,,experiment,cRDM,0.0,,,,866.8384834999997,1014,30,female,True,8668,8681,False,False,inspiration,expiration
226,0.11367271416012205,25,up,down,1.19210689999818,1.0765237072497538,,experiment,cRDM,0.0,,,,869.5051061000012,1014,30,female,True,8694,8706,False,False,expiration,inspiration
227,0.11367271416012205,25,down,down,0.7921382000022277,0.4370908489898836,,experiment,cRDM,0.0,,,,871.4050229999992,1014,30,female,True,8713,8721,False,False,expiration,expiration
228,0.11367271416012205,25,down,down,1.3858792999999423,1.162609988880931,,experiment,cRDM,0.0,,,,873.6382807000009,1014,30,female,True,8735,8749,False,False,inspiration,expiration
229,0.11367271416012205,25,up,up,0.948015799996938,1.0054846458930022,,experiment,cRDM,0.0,,,,876.2881803000017,1014,30,female,True,8762,8771,False,False,inspiration,inspiration
230,0.11367271416012205,25,down,down,1.1720855999992636,1.7890489002921366,,experiment,cRDM,0.0,,,,879.2880793000003,1014,30,female,True,8792,8804,False,False,inspiration,peak
231,0.11367271416012205,25,up,up,1.287827500000276,0.4173574774012979,,experiment,cRDM,0.0,,,,881.1213290000014,1014,30,female,True,8810,8823,False,False,expiration,expiration
232,0.11367271416012205,25,up,down,0.8289059999988242,0.5319659893844143,,experiment,cRDM,0.0,,,,883.2212684000006,1014,30,female,True,8831,8839,False,False,inspiration,expiration
233,0.11367271416012205,25,up,down,1.0510020000001532,0.710492366586053,,experiment,cRDM,0.0,,,,885.0211947000024,1014,30,female,True,8849,8860,False,False,expiration,expiration
234,0.11367271416012205,25,up,down,1.1308914000001096,1.2232932285436078,,experiment,cRDM,0.0,,,,887.5542681000006,1014,30,female,True,8875,8886,False,False,expiration,expiration
235,0.11367271416012205,25,up,up,1.3774923000019044,1.5832651948361236,,experiment,cRDM,0.0,,,,890.5376759999998,1014,30,female,True,8905,8919,False,False,inspiration,expiration
236,0.11367271416012205,25,down,down,0.7685896000002685,0.9132704449974414,,experiment,cRDM,0.0,,,,893.0875804000025,1014,30,female,True,8930,8938,False,False,expiration,inspiration
237,0.11367271416012205,25,down,down,0.6980031999992207,1.184018395944251,,experiment,cRDM,0.0,,,,895.3041437999999,1014,30,female,True,8952,8959,False,False,expiration,expiration
238,0.11367271416012205,25,down,down,0.8577684000010777,1.3196501741235311,,experiment,cRDM,0.0,,,,897.5873974999995,1014,30,female,True,8975,8984,False,False,inspiration,expiration
239,0.11367271416012205,25,up,down,0.7215899000002537,1.913950097080176,,experiment,cRDM,0.0,,,,900.6206020000027,1014,30,female,True,9005,9012,False,False,inspiration,expiration
240,0.11367271416012205,25,down,down,0.7456227000002401,1.3115416645290316,,experiment,cRDM,0.0,,,,902.9205402000008,1014,30,female,True,9028,9035,False,False,expiration,inspiration
241,0.11367271416012205,25,down,down,1.1630396000000474,0.5018069465178024,,experiment,cRDM,0.0,,,,904.437155800002,1014,30,female,True,9044,9056,False,False,expiration,expiration
242,0.11367271416012205,25,down,down,0.8837591000010434,0.5532365350685433,,experiment,cRDM,0.0,,,,906.4204055000008,1014,30,female,True,9063,9072,False,False,expiration,inspiration
243,0.11367271416012205,25,up,down,0.7552571999985958,1.6263165805551911,,experiment,cRDM,0.0,,,,909.1869539,1014,30,female,True,9091,9099,False,False,expiration,expiration
244,0.11367271416012205,25,down,down,0.8912761999999929,1.587195081121906,,experiment,cRDM,0.0,,,,911.7869050000007,1014,30,female,True,9117,9126,False,False,expiration,expiration
245,0.11367271416012205,25,up,down,0.9769570999997086,0.4287434008454175,,experiment,cRDM,0.0,,,,913.3701527000012,1014,30,female,True,9133,9143,False,False,expiration,inspiration
246,0.11367271416012205,25,up,down,1.7924278000027698,1.26106770732327,,experiment,cRDM,0.0,,,,915.8867320999997,1014,30,female,True,9158,9176,False,False,expiration,expiration
247,0.11367271416012205,25,down,down,1.4162394000013592,0.4688319574867394,,experiment,cRDM,0.0,,,,918.4199585000024,1014,30,female,True,9183,9197,False,False,inspiration,expiration
248,0.11367271416012205,25,up,down,1.0367062000004807,0.4922647551508476,,experiment,cRDM,0.0,,,,920.5865664000012,1014,30,female,True,9205,9215,False,False,expiration,inspiration
249,0.11367271416012205,25,down,down,1.4657526000009966,0.7053772504247162,,experiment,cRDM,0.0,,,,922.5864731,1014,30,female,True,9225,9240,False,False,inspiration,expiration
250,0.11367271416012205,25,up,up,1.6294349999989208,0.8494359865070029,,experiment,cRDM,0.0,,,,925.1697254000028,1014,30,female,True,9251,9267,False,False,inspiration,expiration
251,0.11367271416012205,25,down,up,0.8602242000015394,0.9444759356404564,,experiment,cRDM,0.0,,,,928.0029453000025,1014,30,female,True,9279,9288,False,False,expiration,inspiration
252,0.11367271416012205,25,up,up,1.3919524000011734,1.163949706714651,,experiment,cRDM,0.0,,,,930.2862125000028,1014,30,female,True,9302,9316,False,False,expiration,expiration
253,0.11367271416012205,25,down,down,1.4120474999981525,0.8982608406501233,,experiment,cRDM,0.0,,,,932.8361151999997,1014,30,female,True,9328,9342,False,False,inspiration,expiration
254,0.11367271416012205,25,down,up,1.1974542000025394,0.835011849095308,,experiment,cRDM,0.0,,,,935.3527047999997,1014,30,female,True,9353,9365,False,False,inspiration,expiration
255,0.11367271416012205,25,down,down,1.5675661999994188,1.535906982536039,,experiment,cRDM,0.0,,,,938.352591400002,1014,30,female,True,9383,9399,False,False,inspiration,expiration
256,0.11367271416012205,25,down,up,1.129368900001282,1.3972891753548025,,experiment,cRDM,0.0,,,,941.5857993999997,1014,30,female,True,9415,9426,False,False,inspiration,expiration
257,0.11367271416012205,25,down,down,1.3668391999999585,1.8196800152045032,,experiment,cRDM,0.0,,,,944.8023227000012,1014,30,female,True,9447,9461,False,False,inspiration,expiration
258,0.11367271416012205,25,up,up,1.9228761999984272,0.7775326862073144,,experiment,cRDM,0.0,,,,947.2022620999996,1014,30,female,True,9471,9490,False,False,trough,expiration
259,0.11367271416012205,25,up,up,1.3540518999980122,1.7528093556886661,,experiment,cRDM,0.0,,,,951.1521188000006,1014,30,female,True,9511,9525,False,False,inspiration,expiration
260,0.11367271416012205,25,up,down,0.9588193000017782,0.7082241835266322,,experiment,cRDM,0.0,,,,953.4853795000017,1014,30,female,True,9534,9544,False,False,expiration,inspiration
261,0.11367271416012205,25,up,down,0.9549179000023288,1.6779115641923306,,experiment,cRDM,0.0,,,,956.3852501,1014,30,female,True,9563,9573,False,False,expiration,inspiration
262,127.0,25,M,down,0.9249467999979971,1.2124182319100334,,experiment,emotion,0.0,,,,964.368282800002,1014,30,female,True,9643,9652,False,False,expiration,expiration
263,117.0,25,M,down,1.012172399998235,0.7291285114964239,,experiment,emotion,0.0,,,,966.318175200002,1014,30,female,True,9662,9672,False,False,inspiration,inspiration
264,124.0,25,F,up,0.5974166999985755,1.1711856603832749,,experiment,emotion,0.0,,,,968.7848169999997,1014,30,female,True,9687,9693,False,False,expiration,expiration
265,127.0,25,F,up,1.0697364000006928,0.492623727648279,,experiment,emotion,0.0,,,,970.1514122000008,1014,30,female,True,9701,9712,False,False,inspiration,expiration
266,124.0,25,M,up,0.9881307000032392,0.4807860772946754,,experiment,emotion,0.0,,,,971.9680372000003,1014,30,female,True,9719,9729,False,False,expiration,expiration
267,120.0,25,F,up,0.7219253000002936,1.4949566713186986,,experiment,emotion,0.0,,,,974.7512419000012,1014,30,female,True,9747,9754,False,False,expiration,expiration
268,117.0,25,M,up,1.5793569999987085,1.6761588849245177,,experiment,emotion,0.0,,,,977.4178076000026,1014,30,female,True,9773,9789,False,False,inspiration,expiration
269,120.0,25,M,up,1.1014783999999054,1.7670649808381418,,experiment,emotion,0.0,,,,981.0176897000019,1014,30,female,True,9809,9820,False,False,inspiration,expiration
270,127.0,25,F,up,1.5485523999996076,1.838782889394445,,experiment,emotion,0.0,,,,984.2675675000028,1014,30,female,True,9842,9857,False,False,inspiration,expiration
271,120.0,25,F,down,0.9016910999998801,0.8698690739611741,,experiment,emotion,0.0,,,,986.967472100001,1014,30,female,True,9869,9878,False,False,inspiration,inspiration
272,124.0,25,F,down,0.7294117000019469,0.3717895262485082,,experiment,emotion,0.0,,,,988.5507555000003,1014,30,female,True,9885,9892,False,False,expiration,expiration
273,127.0,25,F,up,1.2618487999970966,1.136306613841987,,experiment,emotion,0.0,,,,990.6673231000022,1014,30,female,True,9906,9919,False,False,inspiration,expiration
274,124.0,25,F,up,1.6089442000011331,1.4647980237103135,,experiment,emotion,0.0,,,,993.6672304000023,1014,30,female,True,9936,9952,False,False,inspiration,expiration
275,117.0,25,F,down,0.8727625999999873,1.929729042160509,,experiment,emotion,0.0,,,,997.5004117000026,1014,30,female,True,9974,9983,False,False,peak,expiration
276,120.0,25,M,up,1.39597700000013,1.3482118441651432,,experiment,emotion,0.0,,,,1000.0003044000003,1014,30,female,True,9999,10013,False,False,inspiration,expiration
277,117.0,25,M,up,1.017352099999698,1.9951580205582944,,experiment,emotion,0.0,,,,1003.6668510000017,1014,30,female,True,10036,10046,False,False,peak,expiration
278,127.0,25,M,up,1.318411799999012,0.8775094302507767,,experiment,emotion,0.0,,,,1005.8667639000014,1014,30,female,True,10058,10071,False,False,inspiration,expiration
279,117.0,25,M,down,0.7362422999976843,1.9491980698342604,,experiment,emotion,0.0,,,,1009.399999100002,1014,30,female,True,10093,10100,False,False,inspiration,expiration
280,124.0,25,F,down,1.1592911999978242,1.469394494264926,,experiment,emotion,0.0,,,,1011.8998766000003,1014,30,female,True,10118,10130,False,False,inspiration,expiration
281,124.0,25,M,down,0.9263652000008732,0.8637043330296761,,experiment,emotion,0.0,,,,1014.1998024000023,1014,30,female,True,10141,10150,False,False,expiration,inspiration
282,120.0,25,M,down,1.071793400002207,0.3878764969901281,,experiment,emotion,0.0,,,,1015.8163765000028,1014,30,female,True,10157,10168,False,False,expiration,expiration
283,120.0,25,F,up,1.3155160999995132,1.2115542930624852,,experiment,emotion,0.0,,,,1018.3496344000014,1014,30,female,True,10183,10196,False,False,inspiration,expiration
284,117.0,25,M,down,0.7253367000012076,1.4783597050891109,,experiment,emotion,0.0,,,,1021.4328368999996,1014,30,female,True,10214,10221,False,False,inspiration,expiration
285,127.0,25,F,up,1.4823971000005258,1.1988516611405091,,experiment,emotion,0.0,,,,1023.6827730000003,1014,30,female,True,10236,10251,False,False,expiration,expiration
286,124.0,25,F,up,1.4594357999994827,1.1860648543250591,,experiment,emotion,0.0,,,,1026.6326934000026,1014,30,female,True,10266,10281,False,False,expiration,inspiration
287,117.0,25,M,down,1.2528969999984838,0.3773313705029297,,experiment,emotion,0.0,,,,1028.7492719000004,1014,30,female,True,10287,10300,False,False,peak,expiration
288,127.0,25,M,up,1.53182740000193,0.8645251733400292,,experiment,emotion,0.0,,,,1031.1324219000016,1014,30,female,True,10311,10326,False,False,expiration,inspiration
289,127.0,25,F,up,0.970732300000236,1.6571438135553058,,experiment,emotion,0.0,,,,1034.5824229000027,1014,30,female,True,10345,10355,False,False,expiration,expiration
290,120.0,25,M,down,0.6106598999976995,0.6468940300819642,,experiment,emotion,0.0,,,,1036.5154900000016,1014,30,female,True,10365,10371,False,False,inspiration,expiration
291,117.0,25,F,down,0.6527095999990706,1.0107980172830189,,experiment,emotion,0.0,,,,1038.4154621000016,1014,30,female,True,10384,10391,False,False,expiration,expiration
292,120.0,25,F,down,0.6236372000021221,0.3209786672347418,,experiment,emotion,0.0,,,,1039.665542400002,1014,30,female,True,10396,10402,False,False,inspiration,inspiration
293,124.0,25,F,up,1.322719899999356,1.39804654272064,,experiment,emotion,0.0,,,,1041.9654541000016,1014,30,female,True,10419,10432,False,False,expiration,inspiration
294,117.0,25,M,down,1.289835199997469,1.02191821820948,,experiment,emotion,0.0,,,,1044.5653354999997,1014,30,female,True,10445,10458,False,False,expiration,expiration
295,127.0,25,M,down,0.6939445999996678,1.5861644280272549,,experiment,emotion,0.0,,,,1047.765231100002,1014,30,female,True,10477,10484,False,False,peak,expiration
296,124.0,25,M,up,0.9636991000006674,1.5743926499396412,,experiment,emotion,0.0,,,,1050.2984703000004,1014,30,female,True,10502,10512,False,False,inspiration,peak
297,127.0,25,F,up,0.9721506999994745,1.5369391509569406,,experiment,emotion,0.0,,,,1053.065026100001,1014,30,female,True,10530,10540,False,False,trough,inspiration
298,117.0,25,F,up,0.7666351000007126,1.27457345553232,,experiment,emotion,0.0,,,,1055.5816287000016,1014,30,female,True,10555,10563,False,False,expiration,expiration
299,124.0,25,M,up,0.812936999998783,0.3359306033511664,,experiment,emotion,0.0,,,,1056.9482289000007,1014,30,female,True,10569,10577,False,False,inspiration,peak
300,120.0,25,F,up,0.7753508999994665,0.6062502870677502,,experiment,emotion,0.0,,,,1058.6648208000006,1014,30,female,True,10586,10594,False,False,expiration,expiration
301,120.0,25,M,up,1.485780399998475,1.5639149248602082,,experiment,emotion,0.0,,,,1061.2813922000025,1014,30,female,True,10612,10627,False,False,peak,expiration
302,124.0,25,M,up,1.3712479000023448,1.1676973620830935,,experiment,emotion,0.0,,,,1064.1979432000007,1014,30,female,True,10641,10655,False,False,inspiration,expiration
303,127.0,25,M,up,1.027301699999953,1.2737686859663302,,experiment,emotion,0.0,,,,1067.1478644000017,1014,30,female,True,10671,10681,False,False,inspiration,expiration
304,120.0,25,F,down,1.814728700002888,0.5195874363902533,,experiment,emotion,0.0,,,,1068.9644480000024,1014,30,female,True,10689,10707,False,False,expiration,inspiration
305,117.0,25,F,up,1.715879600000335,1.2819816945785978,,experiment,emotion,0.0,,,,1072.3643183999993,1014,30,female,True,10723,10740,False,False,expiration,inspiration
306,117.0,25,M,down,0.7132375000001048,0.7395896826166926,,experiment,emotion,0.0,,,,1075.0809098000027,1014,30,female,True,10750,10757,False,False,inspiration,expiration
307,120.0,25,F,down,0.4826873999991221,0.4966005814410221,,experiment,emotion,0.0,,,,1076.5475112999993,1014,30,female,True,10765,10770,False,False,expiration,expiration
308,127.0,25,F,down,1.0194143000007898,0.9868608382314724,,experiment,emotion,0.0,,,,1078.2807410999994,1014,30,female,True,10782,10792,False,False,inspiration,expiration
309,124.0,25,M,down,1.1982194000011075,1.3156721539863885,,experiment,emotion,0.0,,,,1080.913993000002,1014,30,female,True,10808,10820,False,False,inspiration,expiration
310,117.0,25,M,down,0.6969057000023895,0.6618796110105614,,experiment,emotion,0.0,,,,1083.0472631000011,1014,30,female,True,10830,10837,False,False,expiration,expiration
311,127.0,25,F,down,1.0013049000008325,0.8141456120725523,,experiment,emotion,0.0,,,,1084.8138653999997,1014,30,female,True,10847,10857,False,False,inspiration,expiration
312,124.0,25,M,down,0.8438551999970514,0.6332027175102313,,experiment,emotion,0.0,,,,1086.7303183000004,1014,30,female,True,10867,10875,False,False,expiration,expiration
313,124.0,25,F,up,1.0771953000003125,0.6010105675699954,,experiment,emotion,0.0,,,,1088.4470542000017,1014,30,female,True,10884,10895,False,False,inspiration,expiration
314,117.0,25,F,up,1.2925706000023638,1.0682467302491163,,experiment,emotion,0.0,,,,1090.8636500999999,1014,30,female,True,10908,10921,False,False,expiration,peak
315,120.0,25,F,down,1.5370804999984102,0.7995765880829885,,experiment,emotion,0.0,,,,1093.2802029000013,1014,30,female,True,10932,10947,False,False,expiration,inspiration
316,127.0,25,M,up,1.3443727000012586,1.2637949250604894,,experiment,emotion,0.0,,,,1096.3467984000017,1014,30,female,True,10963,10976,False,False,expiration,expiration
317,120.0,25,M,up,1.3395512999995844,1.877241528815894,,experiment,emotion,0.0,,,,1099.8466564000012,1014,30,female,True,10998,11011,False,False,expiration,expiration
318,120.0,25,F,down,1.1560018000018315,1.7568990202505514,,experiment,emotion,0.0,,,,1103.2131735000003,1014,30,female,True,11031,11043,False,False,inspiration,expiration
319,120.0,25,F,down,0.7386809999989055,0.8536124232473774,,experiment,emotion,0.0,,,,1105.4964419000025,1014,30,female,True,11054,11061,False,False,inspiration,inspiration
320,127.0,25,M,down,0.8601302999995823,0.9979133143142388,,experiment,emotion,0.0,,,,1107.5130418000008,1014,30,female,True,11074,11083,False,False,expiration,expiration
321,124.0,25,M,down,1.1210696000016471,0.8304199997464334,,experiment,emotion,0.0,,,,1109.4962903000014,1014,30,female,True,11094,11105,False,False,inspiration,expiration
322,117.0,25,M,up,1.5572981000004802,0.5870721367171912,,experiment,emotion,0.0,,,,1111.5128801000028,1014,30,female,True,11114,11130,False,False,expiration,inspiration
323,117.0,25,M,down,0.8294377000020177,1.866271733726568,,experiment,emotion,0.0,,,,1115.2127303000016,1014,30,female,True,11151,11159,False,False,expiration,expiration
324,124.0,25,M,up,1.2259616999981515,0.4168757455694878,,experiment,emotion,0.0,,,,1116.7292441999996,1014,30,female,True,11167,11179,False,False,inspiration,expiration
325,127.0,25,F,down,0.7705195999988064,0.5293304102115659,,experiment,emotion,0.0,,,,1118.7626492000018,1014,30,female,True,11187,11195,False,False,expiration,expiration
326,127.0,25,F,up,1.0303065000007336,1.3331506534289819,,experiment,emotion,0.0,,,,1121.1458662000002,1014,30,female,True,11211,11221,False,False,expiration,expiration
327,117.0,25,M,up,0.9463871999978436,1.730699175151725,,experiment,emotion,0.0,,,,1124.195778600002,1014,30,female,True,11241,11250,False,False,inspiration,expiration
328,127.0,25,F,down,0.9738015000002632,0.45019366962001184,,experiment,emotion,0.0,,,,1125.8623480999997,1014,30,female,True,11258,11268,False,False,expiration,expiration
329,120.0,25,F,down,1.2065421000006609,0.4569578161774946,,experiment,emotion,0.0,,,,1127.5956344000006,1014,30,female,True,11275,11287,False,False,inspiration,expiration
330,124.0,25,F,up,1.0235219999995024,0.3596186325032941,,experiment,emotion,0.0,,,,1129.4287376000032,1014,30,female,True,11294,11304,False,False,expiration,expiration
331,120.0,25,M,up,1.5440438999976325,1.7811819480929667,,experiment,emotion,0.0,,,,1132.5121261999993,1014,30,female,True,11324,11339,False,False,expiration,expiration
332,117.0,25,F,down,1.0881655999983195,1.1773688677314866,,experiment,emotion,0.0,,,,1135.5119988000004,1014,30,female,True,11354,11365,False,False,inspiration,expiration
333,124.0,25,F,down,0.7756259000016144,0.4586479665243874,,experiment,emotion,0.0,,,,1137.3286313999995,1014,30,female,True,11373,11381,False,False,expiration,inspiration
334,120.0,25,F,down,1.0313027999982296,0.44700919900362396,,experiment,emotion,0.0,,,,1138.8118719000013,1014,30,female,True,11387,11397,False,False,inspiration,expiration
335,124.0,25,M,up,1.5428582999993523,1.8174246989904963,,experiment,emotion,0.0,,,,1141.928329000002,1014,30,female,True,11419,11434,False,False,inspiration,expiration
336,117.0,25,M,down,0.834598500001448,1.0748045968042232,,experiment,emotion,0.0,,,,1144.8285789,1014,30,female,True,11448,11456,False,False,inspiration,peak
337,127.0,25,F,up,1.2272343000004184,0.8260764942911716,,experiment,emotion,0.0,,,,1146.7949205000004,1014,30,female,True,11467,11479,False,False,expiration,inspiration
338,124.0,25,M,down,0.9077508000009402,1.8649424059754283,,experiment,emotion,0.0,,,,1150.1614664000008,1014,30,female,True,11501,11510,False,False,expiration,expiration
339,127.0,25,F,up,1.193455199998425,1.7020269221149686,,experiment,emotion,0.0,,,,1153.0447220000024,1014,30,female,True,11530,11542,False,False,expiration,expiration
340,117.0,25,M,down,0.7206449000004795,1.8289612977254792,,experiment,emotion,0.0,,,,1156.3445702999998,1014,30,female,True,11563,11570,False,False,expiration,expiration
341,120.0,25,M,down,0.6797022999999172,0.9791523006733334,,experiment,emotion,0.0,,,,1158.3444742999998,1014,30,female,True,11583,11590,False,False,inspiration,inspiration
342,0.11367271416012205,25,up,down,1.3176681000004464,1.4129472729756418,,experiment,cRDM,1.0,,,,1175.9105339000016,1014,30,female,True,11758,11771,False,False,expiration,expiration
343,0.11367271416012205,25,up,up,0.6163936000011745,1.1471600466029623,,experiment,cRDM,1.0,,,,1178.6437762000025,1014,30,female,True,11786,11792,False,False,inspiration,expiration
344,0.11367271416012205,25,down,up,0.6539451999997254,1.6441601989368824,,experiment,cRDM,1.0,,,,1181.1603262999995,1014,30,female,True,11811,11818,False,False,inspiration,expiration
345,0.11367271416012205,25,down,down,0.8066029999972671,1.4658003893737777,,experiment,cRDM,1.0,,,,1183.5436185,1014,30,female,True,11835,11843,False,False,inspiration,inspiration
346,0.11367271416012205,25,up,down,1.1557102000006123,1.6154933545744838,,experiment,cRDM,1.0,,,,1186.2434945000025,1014,30,female,True,11862,11874,False,False,inspiration,expiration
347,0.11367271416012205,25,down,up,0.8471419999987121,0.9585667391629532,,experiment,cRDM,1.0,,,,1188.6100578000005,1014,30,female,True,11885,11893,False,False,expiration,expiration
348,0.11367271416012205,25,up,up,0.6368442999992112,1.4202832803719672,,experiment,cRDM,1.0,,,,1191.1433158,1014,30,female,True,11911,11917,False,False,expiration,expiration
349,0.11367271416012205,25,up,down,1.0503379000001587,1.8074847980728384,,experiment,cRDM,1.0,,,,1193.8598544000015,1014,30,female,True,11938,11949,False,False,inspiration,expiration
350,0.11367271416012205,25,down,down,0.6737685000007332,1.9933541712884584,,experiment,cRDM,1.0,,,,1197.1764075000028,1014,30,female,True,11971,11978,False,False,inspiration,expiration
351,0.11367271416012205,25,down,up,1.08358170000065,1.594270783257684,,experiment,cRDM,1.0,,,,1199.7096286000015,1014,30,female,True,11996,12007,False,False,inspiration,expiration
352,0.11367271416012205,25,down,down,0.8567331000012928,1.6014870951605826,,experiment,cRDM,1.0,,,,1202.6595486000006,1014,30,female,True,12026,12035,False,False,trough,inspiration
353,0.11367271416012205,25,down,down,0.76936410000053,0.7755053314763228,,experiment,cRDM,1.0,,,,1204.5428294000012,1014,30,female,True,12045,12053,False,False,expiration,expiration
354,0.11367271416012205,25,down,down,0.7983727999999246,1.16513050208762,,experiment,cRDM,1.0,,,,1206.7258352999995,1014,30,female,True,12067,12075,False,False,inspiration,expiration
355,0.11367271416012205,25,down,down,1.6668902999990678,1.5261798272636835,,experiment,cRDM,1.0,,,,1209.3092875000002,1014,30,female,True,12092,12109,False,False,expiration,expiration
356,0.11367271416012205,25,up,down,1.090950800000428,0.40662728743511983,,experiment,cRDM,1.0,,,,1211.659224400002,1014,30,female,True,12116,12127,False,False,expiration,inspiration
357,0.11367271416012205,25,up,up,0.7745168000001286,0.6108143369539272,,experiment,cRDM,1.0,,,,1213.6256831000028,1014,30,female,True,12136,12144,False,False,inspiration,expiration
358,0.11367271416012205,25,up,up,0.7350875000011001,0.5934389078930122,,experiment,cRDM,1.0,,,,1215.2590805,1014,30,female,True,12152,12159,False,False,expiration,expiration
359,0.11367271416012205,25,up,up,1.2405155999986164,0.7296746813279403,,experiment,cRDM,1.0,,,,1216.9756677000005,1014,30,female,True,12169,12181,False,False,inspiration,expiration
360,0.11367271416012205,25,down,down,0.9912960000001476,1.2338108783862092,,experiment,cRDM,1.0,,,,1219.7088989000003,1014,30,female,True,12196,12206,False,False,inspiration,inspiration
361,0.11367271416012205,25,up,down,1.01302460000079,0.42127826980322425,,experiment,cRDM,1.0,,,,1221.3921749,1014,30,female,True,12213,12223,False,False,expiration,expiration
362,0.11367271416012205,25,up,down,0.6997195000003558,1.4073915417825986,,experiment,cRDM,1.0,,,,1224.0754431000025,1014,30,female,True,12240,12247,False,False,peak,expiration
363,0.11367271416012205,25,down,down,0.9575838999990084,1.9257832458893618,,experiment,cRDM,1.0,,,,1226.958664400001,1014,30,female,True,12269,12279,False,False,inspiration,expiration
364,0.11367271416012205,25,up,down,0.9282274999968648,0.4601161380804454,,experiment,cRDM,1.0,,,,1228.641939600002,1014,30,female,True,12286,12295,False,False,expiration,expiration
365,0.11367271416012205,25,down,up,1.2243879999987255,1.863358862140588,,experiment,cRDM,1.0,,,,1231.6918030000015,1014,30,female,True,12316,12328,False,False,expiration,trough
366,0.11367271416012205,25,down,down,0.9093233000021428,1.551063977593962,,experiment,cRDM,1.0,,,,1234.7248454000003,1014,30,female,True,12347,12356,False,False,inspiration,expiration
367,0.11367271416012205,25,up,up,1.1995669999996608,0.5459274558923715,,experiment,cRDM,1.0,,,,1236.4416714000001,1014,30,female,True,12364,12376,False,False,expiration,expiration
368,0.11367271416012205,25,up,up,0.9833975000001374,0.6674235010594034,,experiment,cRDM,1.0,,,,1238.5749084000015,1014,30,female,True,12385,12395,False,False,inspiration,expiration
369,0.11367271416012205,25,down,down,1.048040800000308,1.0366258633349992,,experiment,cRDM,1.0,,,,1240.858136900002,1014,30,female,True,12408,12418,False,False,expiration,inspiration
370,0.11367271416012205,25,up,down,0.9178307000001952,1.2160138701242715,,experiment,cRDM,1.0,,,,1243.3913756000004,1014,30,female,True,12433,12442,False,False,expiration,expiration
371,0.11367271416012205,25,down,up,1.964554800000769,1.3218423005450841,,experiment,cRDM,1.0,,,,1245.8746113000016,1014,30,female,True,12458,12478,False,False,inspiration,expiration
372,0.11367271416012205,25,down,down,0.7629833999999391,1.5936080090940978,,experiment,cRDM,1.0,,,,1249.6911535,1014,30,female,True,12496,12504,False,False,expiration,expiration
373,0.11367271416012205,25,down,down,0.6354821999993874,1.1042274678785644,,experiment,cRDM,1.0,,,,1251.8077198000028,1014,30,female,True,12517,12523,False,False,inspiration,inspiration
374,0.11367271416012205,25,up,up,1.4408220000004803,0.8572852881528004,,experiment,cRDM,1.0,,,,1253.574341800002,1014,30,female,True,12535,12549,False,False,expiration,inspiration
375,0.11367271416012205,25,up,up,0.8222205999991274,0.44393075910960794,,experiment,cRDM,1.0,,,,1255.7409576000027,1014,30,female,True,12557,12565,False,False,inspiration,expiration
376,0.11367271416012205,25,up,up,0.8393810000015947,0.9692659419019124,,experiment,cRDM,1.0,,,,1257.7908535999995,1014,30,female,True,12577,12585,False,False,expiration,expiration
377,0.11367271416012205,25,down,down,0.9054618000009214,1.9920157039734865,,experiment,cRDM,1.0,,,,1260.8907216000007,1014,30,female,True,12608,12617,False,False,expiration,expiration
378,0.11367271416012205,25,down,down,0.7538060000006226,0.6958616523493609,,experiment,cRDM,1.0,,,,1262.7573384000025,1014,30,female,True,12627,12635,False,False,inspiration,inspiration
379,0.11367271416012205,25,up,down,0.7159868000017013,1.121357087120013,,experiment,cRDM,1.0,,,,1264.9072428,1014,30,female,True,12649,12656,False,False,expiration,expiration
380,0.11367271416012205,25,down,down,0.6854371000008541,1.9397170682534093,,experiment,cRDM,1.0,,,,1267.823765600002,1014,30,female,True,12678,12685,False,False,expiration,expiration
381,0.11367271416012205,25,up,down,0.7581035000002885,0.7459573382800081,,experiment,cRDM,1.0,,,,1269.5070971999996,1014,30,female,True,12694,12702,False,False,expiration,inspiration
382,0.11367271416012205,25,up,up,1.1578399999998508,0.9478404476213932,,experiment,cRDM,1.0,,,,1271.4903587000008,1014,30,female,True,12714,12726,False,False,expiration,expiration
383,0.11367271416012205,25,up,up,0.7357330000013462,0.6063858251904302,,experiment,cRDM,1.0,,,,1273.5234739000007,1014,30,female,True,12735,12742,False,False,inspiration,expiration
384,0.11367271416012205,25,down,down,1.2186815999993996,1.9510951433257469,,experiment,cRDM,1.0,,,,1276.473507900002,1014,30,female,True,12764,12776,False,False,trough,inspiration
385,0.11367271416012205,25,down,down,0.7211453999989317,1.7257936225167574,,experiment,cRDM,1.0,,,,1279.6900375000005,1014,30,female,True,12796,12803,False,False,expiration,expiration
386,0.11367271416012205,25,up,up,1.1579462000008791,1.5431404203232242,,experiment,cRDM,1.0,,,,1282.2232508000016,1014,30,female,True,12822,12834,False,False,inspiration,expiration
387,0.11367271416012205,25,down,down,0.841693900001701,1.925836268425728,,experiment,cRDM,1.0,,,,1285.5564908000015,1014,30,female,True,12855,12863,False,False,expiration,inspiration
388,0.11367271416012205,25,down,down,0.6927514999988489,0.35556956665581607,,experiment,cRDM,1.0,,,,1287.0064308,1014,30,female,True,12869,12876,False,False,peak,expiration
389,0.11367271416012205,25,up,down,0.814539999999397,1.0289121818040334,,experiment,cRDM,1.0,,,,1288.9896807000005,1014,30,female,True,12889,12897,False,False,expiration,inspiration
390,0.11367271416012205,25,up,up,0.968235199998162,1.6065182201968846,,experiment,cRDM,1.0,,,,1291.672948200001,1014,30,female,True,12916,12926,False,False,expiration,inspiration
391,0.11367271416012205,25,down,down,0.7600413000000117,1.915724704976428,,experiment,cRDM,1.0,,,,1294.8061405000008,1014,30,female,True,12947,12955,False,False,expiration,expiration
392,0.11367271416012205,25,up,down,1.7660765999971773,0.7299500219599034,,experiment,cRDM,1.0,,,,1296.5561038000014,1014,30,female,True,12965,12983,False,False,expiration,expiration
393,0.11367271416012205,25,down,down,0.6935761999993701,0.9388814669267114,,experiment,cRDM,1.0,,,,1299.5226059000015,1014,30,female,True,12995,13002,False,False,expiration,inspiration
394,0.11367271416012205,25,down,up,1.8422995999972045,0.6736681892453431,,experiment,cRDM,1.0,,,,1301.1559325000014,1014,30,female,True,13011,13029,False,False,inspiration,expiration
395,0.11367271416012205,25,down,down,1.4893719000028796,0.34579487998671704,,experiment,cRDM,1.0,,,,1303.6058116000022,1014,30,female,True,13035,13050,False,False,trough,expiration
396,0.11367271416012205,25,up,up,0.9324914999997418,1.9544369479021924,,experiment,cRDM,1.0,,,,1307.3056902000023,1014,30,female,True,13072,13081,False,False,inspiration,expiration
397,0.11367271416012205,25,up,up,0.6928922000006423,0.6832011183719766,,experiment,cRDM,1.0,,,,1309.1722891999998,1014,30,female,True,13091,13098,False,False,expiration,expiration
398,0.11367271416012205,25,down,down,0.7782153999978618,0.3106437452246644,,experiment,cRDM,1.0,,,,1310.438939800002,1014,30,female,True,13104,13112,False,False,inspiration,peak
399,0.11367271416012205,25,down,up,1.0143413000005241,1.264789514469095,,experiment,cRDM,1.0,,,,1312.738851500002,1014,30,female,True,13127,13137,False,False,expiration,inspiration
400,0.11367271416012205,25,up,up,0.942729300000792,0.4403606059356848,,experiment,cRDM,1.0,,,,1314.4554545000028,1014,30,female,True,13144,13153,False,False,inspiration,expiration
401,0.11367271416012205,25,up,down,1.3831272000024908,0.9592927252780684,,experiment,cRDM,1.0,,,,1316.6220558999996,1014,30,female,True,13166,13180,False,False,expiration,inspiration
402,0.11367271416012205,25,up,up,1.6882874999973865,1.412868616705869,,experiment,cRDM,1.0,,,,1319.6719312000025,1014,30,female,True,13196,13213,False,False,expiration,inspiration
403,0.11367271416012205,25,up,up,1.307713900001545,0.5608008192213532,,experiment,cRDM,1.0,,,,1322.1884793000027,1014,30,female,True,13221,13234,False,False,expiration,trough
404,0.11367271416012205,25,up,down,2.259813699998631,1.327541938493416,,experiment,cRDM,1.0,,,,1325.0883697000027,1014,30,female,True,13250,13273,False,False,expiration,inspiration
405,0.11367271416012205,25,down,down,0.7873149999977613,1.6044477269645006,,experiment,cRDM,1.0,,,,1329.204870900001,1014,30,female,True,13291,13299,False,False,expiration,expiration
406,0.11367271416012205,25,down,down,0.7110797000023013,1.8405928852989693,,experiment,cRDM,1.0,,,,1332.0881093000025,1014,30,female,True,13320,13327,False,False,inspiration,expiration
407,0.11367271416012205,25,up,down,1.333781799999997,0.805060993128963,,experiment,cRDM,1.0,,,,1333.8714044000008,1014,30,female,True,13338,13351,False,False,expiration,inspiration
408,0.11367271416012205,25,down,down,0.7728952999968897,1.1971168001740398,,experiment,cRDM,1.0,,,,1336.6712934999996,1014,30,female,True,13366,13374,False,False,expiration,expiration
409,0.11367271416012205,25,down,down,0.8533478000026662,1.7369110217861472,,experiment,cRDM,1.0,,,,1339.437856200002,1014,30,female,True,13394,13403,False,False,peak,expiration
410,0.11367271416012205,25,down,down,0.6671128000016324,1.766210128479644,,experiment,cRDM,1.0,,,,1342.3210980000003,1014,30,female,True,13423,13430,False,False,inspiration,expiration
411,0.11367271416012205,25,up,down,0.6915036999998847,0.37686356078445904,,experiment,cRDM,1.0,,,,1343.6376818000024,1014,30,female,True,13436,13443,False,False,expiration,expiration
412,0.11367271416012205,25,down,down,0.7082478000011179,0.7650783600375077,,experiment,cRDM,1.0,,,,1345.370989400002,1014,30,female,True,13453,13460,False,False,inspiration,inspiration
413,0.11367271416012205,25,down,down,1.1760452000016812,1.1772599770669898,,experiment,cRDM,1.0,,,,1347.5041687000012,1014,30,female,True,13475,13487,False,False,expiration,inspiration
414,0.11367271416012205,25,down,down,1.5087249000025622,0.7996413374822657,,experiment,cRDM,1.0,,,,1349.7374980000022,1014,30,female,True,13497,13512,False,False,expiration,expiration
415,0.11367271416012205,25,up,up,0.9796310999990964,0.6107715711716148,,experiment,cRDM,1.0,,,,1352.1207319999996,1014,30,female,True,13521,13531,False,False,inspiration,expiration
416,0.11367271416012205,25,up,up,0.7235411999972712,1.2162985058709226,,experiment,cRDM,1.0,,,,1354.5706475000004,1014,30,female,True,13545,13552,False,False,expiration,inspiration
417,0.11367271416012205,25,down,down,1.3609628999984125,1.1755215688285152,,experiment,cRDM,1.0,,,,1356.7372482000028,1014,30,female,True,13567,13581,False,False,expiration,expiration
418,0.11367271416012205,25,up,down,0.7526981000009982,1.4936703008285337,,experiment,cRDM,1.0,,,,1359.8704632000008,1014,30,female,True,13598,13606,False,False,expiration,expiration
419,0.11367271416012205,25,down,down,0.8858032999996794,1.0293552148052132,,experiment,cRDM,1.0,,,,1361.9203849000005,1014,30,female,True,13619,13628,False,False,inspiration,inspiration
420,0.11367271416012205,25,up,down,0.8316377000010107,0.6342229614267472,,experiment,cRDM,1.0,,,,1363.7035317000011,1014,30,female,True,13637,13645,False,False,expiration,expiration
421,0.11367271416012205,25,up,up,1.2863082000003487,1.1529031025350556,,experiment,cRDM,1.0,,,,1365.9368678000028,1014,30,female,True,13659,13672,False,False,inspiration,expiration
422,127.0,25,M,up,1.0554642000024614,0.5459671653102747,,experiment,emotion,1.0,,,,1374.1197506999995,1014,30,female,True,13741,13752,False,False,trough,inspiration
423,117.0,25,M,down,0.5646149000021978,0.9490515170854974,,experiment,emotion,1.0,,,,1376.4196064999994,1014,30,female,True,13764,13770,False,False,expiration,expiration
424,124.0,25,F,up,0.8797926000006555,1.6982554082079206,,experiment,emotion,1.0,,,,1378.9863976000015,1014,30,female,True,13789,13798,False,False,expiration,expiration
425,127.0,25,F,down,0.6225575999997089,1.4365044270719318,,experiment,emotion,1.0,,,,1381.5696148000025,1014,30,female,True,13815,13821,False,False,inspiration,inspiration
426,124.0,25,M,down,0.5393457999998645,0.93689352953513,,experiment,emotion,1.0,,,,1383.4028988000027,1014,30,female,True,13833,13838,False,False,expiration,expiration
427,120.0,25,F,down,0.5940176999974938,1.0361069036091537,,experiment,emotion,1.0,,,,1385.286172,1014,30,female,True,13852,13858,False,False,inspiration,expiration
428,117.0,25,M,down,1.4638387999984843,0.6608178157772839,,experiment,emotion,1.0,,,,1386.819384800001,1014,30,female,True,13868,13883,False,False,expiration,inspiration
429,120.0,25,M,down,0.7478040000023611,0.8697094177336813,,experiment,emotion,1.0,,,,1389.4193686,1014,30,female,True,13894,13901,False,False,inspiration,expiration
430,127.0,25,F,up,0.9005652000014379,0.7672086266908781,,experiment,emotion,1.0,,,,1391.2026047,1014,30,female,True,13911,13920,False,False,expiration,expiration
431,120.0,25,F,up,0.8840029999992112,1.3041654937859608,,experiment,emotion,1.0,,,,1393.6692052,1014,30,female,True,13936,13945,False,False,expiration,expiration
432,124.0,25,F,up,1.0478068000011262,1.6275034379113615,,experiment,emotion,1.0,,,,1396.5023999000007,1014,30,female,True,13964,13974,False,False,inspiration,expiration
433,127.0,25,F,up,0.8643465000022843,1.3043167139798204,,experiment,emotion,1.0,,,,1399.1188418000022,1014,30,female,True,13991,14000,False,False,inspiration,inspiration
434,124.0,25,F,down,0.8329510000003211,0.8079172520345528,,experiment,emotion,1.0,,,,1401.0522660000024,1014,30,female,True,14010,14018,False,False,expiration,expiration
435,117.0,25,F,down,0.638335299998289,0.9135065803257114,,experiment,emotion,1.0,,,,1403.1188633000022,1014,30,female,True,14031,14037,False,False,inspiration,expiration
436,120.0,25,M,down,0.643212200000562,1.8718302919163368,,experiment,emotion,1.0,,,,1405.9019837000014,1014,30,female,True,14059,14065,False,False,inspiration,inspiration
437,117.0,25,M,down,0.7785312999985763,1.4068941406315874,,experiment,emotion,1.0,,,,1408.2186743000022,1014,30,female,True,14082,14090,False,False,expiration,expiration
438,127.0,25,M,down,0.6155962000011641,1.6170588743004208,,experiment,emotion,1.0,,,,1410.8685762000025,1014,30,female,True,14108,14114,False,False,expiration,expiration
439,117.0,25,M,down,0.97532929999943,0.5023532857716574,,experiment,emotion,1.0,,,,1412.251842400001,1014,30,female,True,14122,14132,False,False,inspiration,expiration
440,124.0,25,F,down,0.6174412000000302,1.6222516451968434,,experiment,emotion,1.0,,,,1415.1517387000022,1014,30,female,True,14151,14157,False,False,inspiration,inspiration
441,124.0,25,M,down,0.4001530999994429,1.2675654676370316,,experiment,emotion,1.0,,,,1417.3015967000028,1014,30,female,True,14173,14177,False,False,expiration,expiration
442,120.0,25,M,down,0.5833153999992646,0.9670934209520409,,experiment,emotion,1.0,,,,1418.9849226000006,1014,30,female,True,14189,14195,False,False,inspiration,expiration
443,120.0,25,F,down,0.6370330999998259,1.880794632785474,,experiment,emotion,1.0,,,,1421.7181706000008,1014,30,female,True,14217,14223,False,False,inspiration,inspiration
444,117.0,25,M,down,0.5884527000016533,1.5213480007833975,,experiment,emotion,1.0,,,,1424.1847431000024,1014,30,female,True,14241,14247,False,False,expiration,expiration
445,127.0,25,F,up,1.8185522999992827,1.328363513158103,,experiment,emotion,1.0,,,,1426.3846422999993,1014,30,female,True,14263,14281,False,False,expiration,expiration
446,124.0,25,F,up,0.6743165999978373,0.6000346422400695,,experiment,emotion,1.0,,,,1429.1179075,1014,30,female,True,14291,14298,False,False,inspiration,peak
447,117.0,25,M,up,1.1227235000005749,0.6693111334237087,,experiment,emotion,1.0,,,,1430.7345050000006,1014,30,female,True,14307,14318,False,False,expiration,expiration
448,127.0,25,M,down,0.8247585000026447,0.9988212023234366,,experiment,emotion,1.0,,,,1433.1344323000012,1014,30,female,True,14331,14339,False,False,inspiration,expiration
449,127.0,25,F,down,0.7388434999993478,1.1032773204462971,,experiment,emotion,1.0,,,,1435.3343502000025,1014,30,female,True,14353,14360,False,False,expiration,inspiration
450,120.0,25,M,down,0.7302632999999332,0.8267352376227903,,experiment,emotion,1.0,,,,1437.200928000002,1014,30,female,True,14372,14379,False,False,expiration,expiration
451,117.0,25,F,up,2.0836219000011624,0.3687109215369799,,experiment,emotion,1.0,,,,1438.5675532000025,1014,30,female,True,14385,14406,False,False,trough,expiration
452,120.0,25,F,down,1.1601650000011432,1.862725755233208,,experiment,emotion,1.0,,,,1442.7840792999993,1014,30,female,True,14427,14439,False,False,inspiration,expiration
453,124.0,25,F,down,0.6761922000005143,0.6051479426537856,,experiment,emotion,1.0,,,,1444.8339890999994,1014,30,female,True,14448,14455,False,False,expiration,inspiration
454,117.0,25,M,up,0.8409586999987368,1.6851061152939135,,experiment,emotion,1.0,,,,1447.4672265000006,1014,30,female,True,14474,14482,False,False,expiration,expiration
455,127.0,25,M,up,0.7793834000003699,0.41151795019782894,,experiment,emotion,1.0,,,,1448.9838354000021,1014,30,female,True,14489,14497,False,False,inspiration,inspiration
456,124.0,25,M,up,0.6963601999996172,0.8993795058203291,,experiment,emotion,1.0,,,,1450.933788800001,1014,30,female,True,14509,14516,False,False,expiration,expiration
457,127.0,25,F,up,0.8182075999975496,1.1113355663573716,,experiment,emotion,1.0,,,,1453.0169896000007,1014,30,female,True,14530,14538,False,False,inspiration,expiration
458,117.0,25,F,up,0.7502127000007022,0.8590698109223058,,experiment,emotion,1.0,,,,1454.966947500001,1014,30,female,True,14549,14557,False,False,expiration,inspiration
459,124.0,25,M,down,1.4365362999997158,1.5723546621718218,,experiment,emotion,1.0,,,,1457.5668413000021,1014,30,female,True,14575,14589,False,False,expiration,expiration
460,120.0,25,F,up,1.0833975999994436,1.0533431445038266,,experiment,emotion,1.0,,,,1460.3667712000024,1014,30,female,True,14603,14614,False,False,inspiration,expiration
461,120.0,25,M,down,1.4148638000006029,1.7123708087461995,,experiment,emotion,1.0,,,,1463.4333305,1014,30,female,True,14634,14648,False,False,inspiration,expiration
462,124.0,25,M,down,0.8276637000017217,1.7352789224059084,,experiment,emotion,1.0,,,,1466.8665285999994,1014,30,female,True,14668,14676,False,False,inspiration,expiration
463,127.0,25,M,down,1.3277996999968311,1.0499631882734268,,experiment,emotion,1.0,,,,1469.0164043000007,1014,30,female,True,14690,14703,False,False,inspiration,inspiration
464,120.0,25,F,down,0.6876760000013746,1.3861252475376882,,experiment,emotion,1.0,,,,1471.9995448000006,1014,30,female,True,14720,14727,False,False,expiration,inspiration
465,117.0,25,F,down,0.6507906000006187,1.7955095694374417,,experiment,emotion,1.0,,,,1474.7994026000015,1014,30,female,True,14748,14755,False,False,expiration,expiration
466,117.0,25,M,up,1.8520828999971852,1.7981343690395737,,experiment,emotion,1.0,,,,1477.5161382000006,1014,30,female,True,14775,14794,False,False,inspiration,expiration
467,120.0,25,F,down,0.8448889999999665,1.9301198915785105,,experiment,emotion,1.0,,,,1481.5493171000014,1014,30,female,True,14815,14823,False,False,expiration,expiration
468,127.0,25,F,up,1.115344300000288,1.7105134430326678,,experiment,emotion,1.0,,,,1484.4158659000022,1014,30,female,True,14844,14855,False,False,inspiration,expiration
469,124.0,25,M,up,0.9980996000012964,1.6142348315712791,,experiment,emotion,1.0,,,,1487.4490846000006,1014,30,female,True,14874,14884,False,False,inspiration,expiration
470,117.0,25,M,down,0.6861862000005203,1.3208827390458266,,experiment,emotion,1.0,,,,1490.0489928000025,1014,30,female,True,14900,14907,False,False,expiration,inspiration
471,127.0,25,F,up,0.9566178999994008,1.2008054116992977,,experiment,emotion,1.0,,,,1492.215591,1014,30,female,True,14922,14932,False,False,expiration,expiration
472,124.0,25,M,up,1.2460366999985126,1.1893712385802897,,experiment,emotion,1.0,,,,1494.6321409000009,1014,30,female,True,14946,14958,False,False,inspiration,expiration
473,124.0,25,F,down,1.006133700000646,0.3298183203291744,,experiment,emotion,1.0,,,,1496.4820757000016,1014,30,female,True,14964,14974,False,False,expiration,inspiration
474,117.0,25,F,down,0.6891897999994399,1.125471221619627,,experiment,emotion,1.0,,,,1498.8819984000004,1014,30,female,True,14988,14995,False,False,expiration,expiration
475,120.0,25,F,up,1.6996032999995805,0.33171989681701264,,experiment,emotion,1.0,,,,1500.1985432,1014,30,female,True,15002,15019,False,False,expiration,peak
476,127.0,25,M,up,1.1130300000004354,1.331111522273997,,experiment,emotion,1.0,,,,1503.5151695000022,1014,30,female,True,15035,15046,False,False,expiration,inspiration
477,120.0,25,M,up,1.3454500999978336,0.7928457280003016,,experiment,emotion,1.0,,,,1505.6817378000014,1014,30,female,True,15056,15069,False,False,expiration,expiration
478,120.0,25,F,up,1.1101969000010286,0.8692190852355854,,experiment,emotion,1.0,,,,1508.1650107999994,1014,30,female,True,15081,15092,False,False,inspiration,expiration
479,120.0,25,F,down,1.7779582000002847,0.7000573005857018,,experiment,emotion,1.0,,,,1510.2482540000021,1014,30,female,True,15102,15120,False,False,expiration,inspiration
480,127.0,25,M,up,1.0267238999986148,1.4966237877262032,,experiment,emotion,1.0,,,,1513.8314658000018,1014,30,female,True,15138,15148,False,False,expiration,expiration
481,124.0,25,M,up,0.8758366999973077,0.5131857345630038,,experiment,emotion,1.0,,,,1515.6813701000028,1014,30,female,True,15156,15165,False,False,inspiration,expiration
482,117.0,25,M,down,0.7274099999995087,1.5576955140751672,,experiment,emotion,1.0,,,,1518.3977899000022,1014,30,female,True,15184,15191,False,False,inspiration,inspiration
483,117.0,25,M,down,0.4001826000021538,0.9353404093317484,,experiment,emotion,1.0,,,,1520.3312265999994,1014,30,female,True,15203,15207,False,False,expiration,expiration
484,124.0,25,M,down,0.5233588000010059,0.5846576420904129,,experiment,emotion,1.0,,,,1521.5978480000012,1014,30,female,True,15216,15221,False,False,inspiration,inspiration
485,127.0,25,F,down,0.9661095000010392,0.787004039943844,,experiment,emotion,1.0,,,,1523.1810955,1014,30,female,True,15231,15241,False,False,expiration,expiration
486,127.0,25,F,down,0.6519607000009273,1.7024438473675358,,experiment,emotion,1.0,,,,1526.1142431000005,1014,30,female,True,15261,15268,False,False,inspiration,expiration
487,117.0,25,M,down,0.7349581999988004,1.543937087832392,,experiment,emotion,1.0,,,,1528.5642738999993,1014,30,female,True,15285,15292,False,False,inspiration,inspiration
488,127.0,25,F,up,0.8611362000010558,1.551566153109646,,experiment,emotion,1.0,,,,1531.1140608999995,1014,30,female,True,15311,15320,False,False,expiration,expiration
489,120.0,25,F,down,0.8441543999979331,0.8346636577540247,,experiment,emotion,1.0,,,,1533.1140470000028,1014,30,female,True,15331,15339,False,False,inspiration,expiration
490,124.0,25,F,down,0.9665850000019418,1.7583904240352806,,experiment,emotion,1.0,,,,1536.0306354000022,1014,30,female,True,15360,15370,False,False,inspiration,peak
491,120.0,25,M,down,0.7393862999997509,0.9362091187469276,,experiment,emotion,1.0,,,,1538.213764600001,1014,30,female,True,15382,15389,False,False,expiration,trough
492,117.0,25,F,down,0.8137392999997246,1.6397793817318664,,experiment,emotion,1.0,,,,1540.8804595,1014,30,female,True,15408,15416,False,False,expiration,expiration
493,124.0,25,F,up,1.6255273999995552,1.6615281970792817,,experiment,emotion,1.0,,,,1543.6136707000005,1014,30,female,True,15436,15452,False,False,inspiration,expiration
494,120.0,25,F,down,0.7769609999995737,1.864959120429652,,experiment,emotion,1.0,,,,1547.3802321000005,1014,30,female,True,15473,15481,False,False,inspiration,expiration
495,124.0,25,M,down,0.9240839000012784,1.5991690985312206,,experiment,emotion,1.0,,,,1550.0301217000015,1014,30,female,True,15500,15509,False,False,inspiration,peak
496,117.0,25,M,down,0.6748506999974779,0.6305184591145649,,experiment,emotion,1.0,,,,1551.8633558,1014,30,female,True,15518,15525,False,False,expiration,expiration
497,127.0,25,F,down,0.9088603999989572,0.3907917088603786,,experiment,emotion,1.0,,,,1553.2133415999995,1014,30,female,True,15532,15541,False,False,inspiration,inspiration
498,124.0,25,M,down,0.8066079999989597,0.8462319594052476,,experiment,emotion,1.0,,,,1555.2465993000005,1014,30,female,True,15552,15560,False,False,expiration,expiration
499,127.0,25,F,down,1.2280197999971278,1.5983280168468414,,experiment,emotion,1.0,,,,1557.9131823000025,1014,30,female,True,15579,15591,False,False,expiration,expiration
500,117.0,25,M,down,0.7104970000000321,1.88087412452519,,experiment,emotion,1.0,,,,1561.2797097000002,1014,30,female,True,15612,15619,False,False,peak,expiration
501,120.0,25,M,up,0.9908676999984892,1.5637982004852515,,experiment,emotion,1.0,,,,1563.8462973000023,1014,30,female,True,15638,15648,False,False,inspiration,expiration
502,0.11367271416012205,25,up,up,1.7306683999995585,1.2632787484842358,,experiment,cRDM,2.0,,,,1580.395563500002,1014,30,female,True,15804,15821,False,False,expiration,expiration
503,0.11367271416012205,25,up,up,0.7189623000012944,1.4241113569632726,,experiment,cRDM,2.0,,,,1583.8122357999998,1014,30,female,True,15838,15845,False,False,inspiration,expiration
504,0.11367271416012205,25,down,down,0.6898782999996911,0.9122703178001405,,experiment,cRDM,2.0,,,,1585.695315500001,1014,30,female,True,15857,15864,False,False,expiration,expiration
505,0.11367271416012205,25,down,down,0.6065956000020378,1.4242550757092842,,experiment,cRDM,2.0,,,,1588.0787010000022,1014,30,female,True,15880,15886,False,False,peak,expiration
506,0.11367271416012205,25,up,down,1.2461832000008144,1.530094530169695,,experiment,cRDM,2.0,,,,1590.4619807000015,1014,30,female,True,15904,15916,False,False,inspiration,expiration
507,0.11367271416012205,25,down,up,1.002088699999149,0.43126379111217705,,experiment,cRDM,2.0,,,,1592.3951593000022,1014,30,female,True,15924,15934,False,False,expiration,expiration
508,0.11367271416012205,25,up,up,1.678415700000187,1.10470779814994,,experiment,cRDM,2.0,,,,1594.7618226000013,1014,30,female,True,15947,15964,False,False,inspiration,expiration
509,0.11367271416012205,25,up,down,0.7728569999999308,1.4219732817216744,,experiment,cRDM,2.0,,,,1598.1283430000005,1014,30,female,True,15981,15989,False,False,inspiration,expiration
510,0.11367271416012205,25,down,down,0.7516031999984989,0.8974183281780672,,experiment,cRDM,2.0,,,,1600.0616187000014,1014,30,female,True,16000,16008,False,False,expiration,expiration
511,0.11367271416012205,25,down,up,0.7510270999991917,1.946696128203012,,experiment,cRDM,2.0,,,,1603.0281757000012,1014,30,female,True,16030,16038,False,False,expiration,expiration
512,0.11367271416012205,25,down,down,0.7611371999992116,1.152306960402314,,experiment,cRDM,2.0,,,,1605.1780873999994,1014,30,female,True,16051,16059,False,False,inspiration,expiration
513,0.11367271416012205,25,down,up,1.4262138000012785,0.5427505601020208,,experiment,cRDM,2.0,,,,1606.728033200001,1014,30,female,True,16067,16081,False,False,expiration,inspiration
514,0.11367271416012205,25,down,down,0.8228946000017459,1.4577162137814703,,experiment,cRDM,2.0,,,,1609.8612845999994,1014,30,female,True,16098,16106,False,False,expiration,expiration
515,0.11367271416012205,25,down,up,1.4286686000014015,0.6047529965047326,,experiment,cRDM,2.0,,,,1611.5445259000005,1014,30,female,True,16115,16129,False,False,expiration,inspiration
516,0.11367271416012205,25,up,down,1.1452021999975839,1.078226955450478,,experiment,cRDM,2.0,,,,1614.3110078999996,1014,30,female,True,16143,16154,False,False,expiration,inspiration
517,0.11367271416012205,25,up,up,0.8175391000004311,0.8041538274862878,,experiment,cRDM,2.0,,,,1616.5276972000026,1014,30,female,True,16165,16173,False,False,inspiration,expiration
518,0.11367271416012205,25,up,down,0.5934148000014828,0.5018766138057641,,experiment,cRDM,2.0,,,,1618.1107886999996,1014,30,female,True,16181,16187,False,False,expiration,expiration
519,0.11367271416012205,25,up,up,0.9843207000012626,0.7971547537942478,,experiment,cRDM,2.0,,,,1619.7608880000007,1014,30,female,True,16197,16207,False,False,inspiration,expiration
520,0.11367271416012205,25,down,down,0.6967574000009336,1.1648075198841874,,experiment,cRDM,2.0,,,,1622.1774676999994,1014,30,female,True,16221,16228,False,False,expiration,inspiration
521,0.11367271416012205,25,up,down,0.7184921000007307,1.4229976747858522,,experiment,cRDM,2.0,,,,1624.5607176000012,1014,30,female,True,16245,16252,False,False,expiration,expiration
522,0.11367271416012205,25,up,down,0.4866006999982346,0.40487571993218185,,experiment,cRDM,2.0,,,,1625.9606600000006,1014,30,female,True,16259,16264,False,False,inspiration,inspiration
523,0.11367271416012205,25,down,down,0.6918919999989157,1.2244769063318548,,experiment,cRDM,2.0,,,,1627.9273109000023,1014,30,female,True,16279,16286,False,False,expiration,expiration
524,0.11367271416012205,25,up,down,0.7989593999991484,0.3360972768438616,,experiment,cRDM,2.0,,,,1629.2272467000007,1014,30,female,True,16292,16300,False,False,inspiration,inspiration
525,0.11367271416012205,25,down,down,0.6873995999994804,0.5955234037023145,,experiment,cRDM,2.0,,,,1630.8938116999998,1014,30,female,True,16308,16315,False,False,expiration,expiration
526,0.11367271416012205,25,down,down,0.729138900001999,1.9236162824839844,,experiment,cRDM,2.0,,,,1633.777082200002,1014,30,female,True,16337,16344,False,False,expiration,expiration
527,0.11367271416012205,25,up,down,1.2579078999988271,0.8981937508323847,,experiment,cRDM,2.0,,,,1635.6603055000014,1014,30,female,True,16356,16369,False,False,inspiration,expiration
528,0.11367271416012205,25,up,down,0.766228599997703,1.925514452887619,,experiment,cRDM,2.0,,,,1639.1099692000025,1014,30,female,True,16391,16399,False,False,inspiration,peak
529,0.11367271416012205,25,down,down,0.7304359000008844,1.0908673557442763,,experiment,cRDM,2.0,,,,1641.2267692000025,1014,30,female,True,16412,16419,False,False,expiration,trough
