,stimLvl,stimTime,rand,response,rt,precedingITI,trialNumber,trialType,stimuli,block,estIntens,estThres,estSlope,trialStart,subject,age,gender,headRest,onset,responsI,manBadOnset,manBadRespons,onset_phase,respons_phase
0,150.0,100,F,,,0.4780732478647804,,introTrial,emotion,,,,,291.91017230000216,1015,28,male,True,2918,0,False,False,inspiration,0
1,0.9,100,down,,,0.8443382892752345,,introTrial,cRDM,,,,,296.6933867000007,1015,28,male,True,2966,0,False,False,inspiration,0
2,0.9,25,up,up,0.8853041000002122,1.952611428334068,,tutorial,cRDM,,,,,334.0419613000013,1015,28,male,True,3339,3348,False,False,expiration,inspiration
3,0.9,25,down,down,0.7960631999994803,1.26265584272241,,tutorial,cRDM,,,,,336.47520559999975,1015,28,male,True,3363,3371,False,False,expiration,expiration
4,0.9,25,down,down,0.9544900999972016,0.9413652624401572,,tutorial,cRDM,,,,,338.4917900000001,1015,28,male,True,3384,3394,False,False,inspiration,expiration
5,0.9,25,up,up,0.5821901999988768,0.5547945954177271,,tutorial,cRDM,,,,,340.2750765000019,1015,28,male,True,3401,3407,False,False,inspiration,peak
6,0.9,25,up,up,0.6872332999992068,0.9858359405702106,,tutorial,cRDM,,,,,342.1250103999992,1015,28,male,True,3420,3427,False,False,expiration,inspiration
7,0.9,25,down,down,0.7246228000003612,0.9026791283843908,,tutorial,cRDM,,,,,343.99162050000086,1015,28,male,True,3439,3446,False,False,expiration,expiration
8,0.9,25,down,up,0.5284396000024572,1.7391948996236588,,tutorial,cRDM,,,,,346.7248380000019,1015,28,male,True,3466,3471,False,False,inspiration,expiration
9,0.9,25,up,up,0.766853600001923,1.524569060515392,,tutorial,cRDM,,,,,349.0414077999995,1015,28,male,True,3489,3497,False,False,trough,inspiration
10,0.9,25,down,down,0.5949080999998841,0.4458103765250863,,tutorial,cRDM,,,,,350.5413779000009,1015,28,male,True,3504,3510,False,False,expiration,trough
11,0.9,25,up,up,0.7059827000011865,0.5288573708992452,,tutorial,cRDM,,,,,351.9412931000006,1015,28,male,True,3518,3525,False,False,inspiration,expiration
12,200.0,25,M,up,0.5935503000000608,0.7823932136713143,,tutorial,emotion,,,,,385.50674649999934,1015,28,male,True,3854,3860,False,False,inspiration,expiration
13,200.0,25,M,up,0.4492696000015712,0.3682913382631967,,tutorial,emotion,,,,,386.7400362000008,1015,28,male,True,3866,3870,False,False,expiration,expiration
14,200.0,25,F,up,0.3835008999994898,0.7348900854193422,,tutorial,emotion,,,,,388.2233077000019,1015,28,male,True,3881,3885,False,False,inspiration,expiration
15,0.0,25,F,down,0.531066200001078,1.9611775356282308,,tutorial,emotion,,,,,390.9232101000016,1015,28,male,True,3908,3913,False,False,inspiration,expiration
16,0.0,25,M,down,0.4438625000002503,1.75238977036802,,tutorial,emotion,,,,,393.50644309999916,1015,28,male,True,3934,3938,False,False,inspiration,expiration
17,200.0,25,F,up,0.5319576000001689,1.1189598839608124,,tutorial,emotion,,,,,395.356377600001,1015,28,male,True,3952,3957,False,False,expiration,inspiration
18,0.0,25,M,down,0.6583146000011766,1.2438141348531986,,tutorial,emotion,,,,,397.4229699999996,1015,28,male,True,3973,3980,False,False,expiration,expiration
19,200.0,25,M,up,0.4650202000011632,1.2027566029872006,,tutorial,emotion,,,,,399.55624030000035,1015,28,male,True,3994,3999,False,False,inspiration,expiration
20,0.0,25,F,down,0.6990881999990961,1.888207417881825,,tutorial,emotion,,,,,402.18941049999916,1015,28,male,True,4021,4028,False,False,inspiration,expiration
21,0.0,25,F,up,0.44587820000015205,0.7602677179183117,,tutorial,emotion,,,,,403.93939550000135,1015,28,male,True,4038,4042,False,False,expiration,inspiration
22,0.29,25,up,up,0.6841328000009526,1.6770762745304866,,psi_staircase_training,cRDM,,0.25,0.25693124029946324,0.10500000000000002,419.42215560000113,1015,28,male,True,4193,4200,False,False,trough,inspiration
23,0.25,25,up,down,1.2444864999997662,0.9056936677650648,,psi_staircase_training,cRDM,,0.21910266653183127,0.2260132002683493,0.10468632033873933,421.2887959,1015,28,male,True,4212,4224,False,False,expiration,inspiration
24,0.36,25,down,down,1.2145749000010255,0.5294920426995937,,psi_staircase_training,cRDM,,0.3202997408361979,0.3276103223604739,0.1107465658214764,423.33869039999985,1015,28,male,True,4232,4244,False,False,inspiration,expiration
25,0.33,25,down,up,0.7107117000014114,1.7945550110303263,,psi_staircase_training,cRDM,,0.2990372097977385,0.30641398280716875,0.1117492876491608,426.63856909999964,1015,28,male,True,4265,4272,False,False,peak,expiration
26,0.4,25,up,up,0.6431010999986029,1.6006202070394009,,psi_staircase_training,cRDM,,0.3699276726653445,0.3772964946370089,0.11162883893733662,429.20514340000227,1015,28,male,True,4291,4297,False,False,inspiration,inspiration
27,0.39,25,down,down,0.6766542999976082,1.8674349868834412,,psi_staircase_training,cRDM,,0.35536704640590017,0.3628259524843164,0.11299350540398292,431.97168100000266,1015,28,male,True,4318,4325,False,False,expiration,inspiration
28,0.38,25,up,up,0.5119518999999855,1.023883322147212,,psi_staircase_training,cRDM,,0.34153019127238304,0.3489728411533976,0.11274724345757313,433.9383001000024,1015,28,male,True,4338,4343,False,False,expiration,inspiration
29,0.38,25,down,down,2.06272700000045,1.3050519796143694,,psi_staircase_training,cRDM,,0.32855475853161625,0.33591242355917594,0.11145982457910088,436.0215540000026,1015,28,male,True,4359,4380,False,False,expiration,inspiration
30,0.36,25,down,up,1.2752256999992824,0.6497048437243902,,psi_staircase_training,cRDM,,0.3173625158059068,0.3245406052546637,0.10873946935267026,438.9880107000026,1015,28,male,True,4389,4402,False,False,expiration,inspiration
31,0.4,25,up,up,0.7909341999984463,1.186438876807913,,psi_staircase_training,cRDM,,0.3641098089922937,0.3715037249243027,0.11200898242137873,441.72134860000006,1015,28,male,True,4416,4424,False,False,expiration,expiration
32,0.4,25,down,down,0.8779518000010285,0.4832256860955827,,psi_staircase_training,cRDM,,0.35506309564418115,0.36223185099303773,0.1085980689038066,443.2712735999994,1015,28,male,True,4431,4440,False,False,inspiration,expiration
33,0.4,25,down,up,0.8436820999995689,1.4257993759559888,,psi_staircase_training,cRDM,,0.34747113732529,0.3543399052336446,0.10405361799865487,445.8545301000013,1015,28,male,True,4457,4465,False,False,inspiration,inspiration
34,0.42,25,down,down,0.9011377999995602,0.3918414194005179,,psi_staircase_training,cRDM,,0.3821990894317439,0.39100113431860606,0.1333404518080401,447.3711398000014,1015,28,male,True,4472,4481,False,False,expiration,expiration
35,0.42,25,up,down,1.2982592000007571,1.136019941433278,,psi_staircase_training,cRDM,,0.37350264288220825,0.3822799729411637,0.13296605172694614,449.68798660000175,1015,28,male,True,4496,4509,False,False,inspiration,expiration
36,0.45,25,up,up,1.5309947999994618,1.2861427272343493,,psi_staircase_training,cRDM,,0.4055660575475861,0.41478087882266573,0.13959352036291345,452.5542889000026,1015,28,male,True,4524,4539,False,False,inspiration,expiration
37,0.45,25,down,down,0.8084424000007857,1.3533801093910616,,psi_staircase_training,cRDM,,0.39868986299996223,0.4079652547795157,0.1405110910566082,455.7208391999993,1015,28,male,True,4556,4564,False,False,inspiration,expiration
38,0.41,25,down,up,0.9348417000001064,0.5369900619611865,,psi_staircase_training,cRDM,,0.3922495846765644,0.4015126323482929,0.14032409258798986,457.33744379999916,1015,28,male,True,4572,4581,False,False,expiration,inspiration
39,0.46,25,up,up,0.907913799997914,0.6236087735780207,,psi_staircase_training,cRDM,,0.4160890913651945,0.4248210632835359,0.1322789301500394,459.17070640000014,1015,28,male,True,4590,4599,False,False,expiration,expiration
40,0.46,25,up,up,0.9929540999983146,0.3827987780633822,,psi_staircase_training,cRDM,,0.4113581939431001,0.41998613884567015,0.13070304528902446,460.7373224000002,1015,28,male,True,4606,4616,False,False,inspiration,expiration
41,0.46,25,up,up,0.9017550999997184,1.6728994448212982,,psi_staircase_training,cRDM,,0.40706419774278996,0.4155281388063831,0.12821858329541574,463.6705318000022,1015,28,male,True,4635,4644,False,False,inspiration,expiration
42,0.46,25,up,up,0.7572005000001809,1.7262650097058263,,psi_staircase_training,cRDM,,0.4032078954818256,0.4114614603600199,0.12503163572001788,466.587019300001,1015,28,male,True,4665,4673,False,False,inspiration,peak
43,0.4,25,down,down,0.6819557999988319,0.5963078462244795,,psi_staircase_training,cRDM,,0.3997936797175683,0.4078013991442772,0.1213073711886083,468.2203786999999,1015,28,male,True,4681,4688,False,False,expiration,expiration
44,0.4,25,down,up,1.013940899996669,0.3924994201429444,,psi_staircase_training,cRDM,,0.3918841229616733,0.4004413567963455,0.12963185718870007,469.5702985000026,1015,28,male,True,4694,4704,False,False,inspiration,expiration
45,0.47,25,down,up,1.5980716999983997,0.7962729531202979,,psi_staircase_training,cRDM,,0.4118993719850237,0.4193743641788527,0.1132371908116966,471.67024460000175,1015,28,male,True,4715,4731,False,False,expiration,inspiration
46,0.47,25,up,up,0.8261366000006092,0.3338777378834606,,psi_staircase_training,cRDM,,0.4247324152547855,0.4342591676170028,0.14431890322865829,473.8701513000015,1015,28,male,True,4737,4745,False,False,expiration,expiration
47,0.47,25,up,up,0.8228381000008085,0.4439151568903641,,psi_staircase_training,cRDM,,0.4210015322695832,0.4304462027174501,0.14307546040537816,475.40344440000257,1015,28,male,True,4753,4761,False,False,inspiration,inspiration
48,0.47,25,down,down,1.1376660000023548,0.7878876766053224,,psi_staircase_training,cRDM,,0.4174281828777894,0.4267564738943947,0.14131245122455316,477.2866207000006,1015,28,male,True,4772,4783,False,False,expiration,inspiration
49,0.47,25,down,down,1.3773142999998529,1.7791442113980152,,psi_staircase_training,cRDM,,0.4140267070791,0.4232089791267382,0.1391004384996829,480.46994110000014,1015,28,male,True,4803,4817,False,False,expiration,inspiration
50,0.47,25,up,up,0.7377632999996422,1.615722875110848,,psi_staircase_training,cRDM,,0.4108181822959205,0.4198282213515705,0.13649131468093906,483.7364899000022,1015,28,male,True,4836,4843,False,False,expiration,inspiration
51,0.47,25,up,up,0.7692447999979777,1.196089266181099,,psi_staircase_training,cRDM,,0.4078274615082104,0.4166417567244309,0.13352602964505814,485.9530397000017,1015,28,male,True,4858,4866,False,False,expiration,inspiration
52,100.0,25,M,down,1.73992139999973,1.7834389181279218,,psi_staircase_training,emotion,,100.0,100.0,25.00050000000001,505.75231720000016,1015,28,male,True,5056,5073,False,False,expiration,inspiration
53,145.0,25,M,up,1.0020678000000771,1.3136170074897546,,psi_staircase_training,emotion,,145.25719053245996,145.25719053245996,25.000500000000283,509.15219730000166,1015,28,male,True,5090,5100,False,False,expiration,inspiration
54,121.0,25,F,up,0.8698563999969338,1.2196407704346353,,psi_staircase_training,emotion,,120.36392901436103,120.36392901436103,25.71326925488699,511.7354388000022,1015,28,male,True,5116,5125,False,False,trough,inspiration
55,97.0,25,F,up,0.8729377000017848,1.7687199265867144,,psi_staircase_training,emotion,,102.38876106084959,102.38876106084959,26.14633372628729,514.7353547999992,1015,28,male,True,5146,5155,False,False,inspiration,peak
56,73.0,25,M,down,0.9212991999993392,0.4298937429150697,,psi_staircase_training,emotion,,82.84358992132628,82.84358992132628,31.43229144782805,516.4019550000012,1015,28,male,True,5163,5172,False,False,expiration,inspiration
57,84.0,25,F,down,0.8777100000006612,0.8249353057027684,,psi_staircase_training,emotion,,94.9613577591715,94.9613577591715,29.694064005486627,518.5185411999992,1015,28,male,True,5184,5193,False,False,expiration,expiration
58,112.0,25,M,up,1.8348456000021545,1.5161400204061986,,psi_staircase_training,emotion,,101.83848744414509,101.83848744414509,27.875884705401482,521.2684351000025,1015,28,male,True,5212,5230,False,False,peak,expiration
59,84.0,25,F,down,0.8354529999996885,0.8373225645673303,,psi_staircase_training,emotion,,96.52149301196151,96.52149301196151,26.16750556784959,524.2848343000005,1015,28,male,True,5242,5250,False,False,inspiration,expiration
60,112.0,25,F,down,1.0821991999982856,1.8168442008195127,,psi_staircase_training,emotion,,100.4399405768832,100.4399405768832,24.06105184598652,527.2680868000025,1015,28,male,True,5272,5283,False,False,inspiration,expiration
61,126.0,25,M,up,1.3807750999985728,0.9693381173900429,,psi_staircase_training,emotion,,108.08016106191091,108.08016106191091,29.041294677715946,529.6847944000001,1015,28,male,True,5296,5310,False,False,inspiration,expiration
62,124.0,25,F,up,1.2539575999981023,1.9502151362327749,,psi_staircase_training,emotion,,105.08896926771185,105.08896926771185,27.331179953635807,533.4013180000002,1015,28,male,True,5333,5346,False,False,inspiration,expiration
63,86.0,25,F,down,0.8043612000001303,1.1859250979265794,,psi_staircase_training,emotion,,102.87868822781492,102.87868822781492,25.805267019112872,536.2178784999996,1015,28,male,True,5361,5369,False,False,inspiration,expiration
64,123.0,25,F,up,0.8971464000023843,0.5911087319895818,,psi_staircase_training,emotion,,105.05490575820892,105.05490575820892,24.098324117648808,538.0011574000018,1015,28,male,True,5379,5388,False,False,expiration,inspiration
65,87.0,25,M,down,0.8605433000011544,0.5970744783608639,,psi_staircase_training,emotion,,103.44958261412407,103.44958261412407,22.562252742933172,539.8677467000016,1015,28,male,True,5398,5407,False,False,expiration,expiration
66,121.0,25,M,up,1.673266199999489,1.4522670239671955,,psi_staircase_training,emotion,,105.04140753129036,105.04140753129036,20.93499630065948,542.5509677000008,1015,28,male,True,5424,5441,False,False,inspiration,expiration
67,90.0,25,F,down,0.8733496999993804,0.7599366907816059,,psi_staircase_training,emotion,,103.80075420188804,103.80075420188804,19.497438487041144,545.3508952000011,1015,28,male,True,5452,5461,False,False,inspiration,expiration
68,92.0,25,F,down,1.0841762999989442,1.639473634066217,,psi_staircase_training,emotion,,105.11278632786819,105.11278632786819,18.029343602120694,548.2341062000014,1015,28,male,True,5481,5492,False,False,inspiration,expiration
69,119.0,25,M,up,0.964950500001578,1.3785007618865677,,psi_staircase_training,emotion,,106.18558110903022,106.18558110903022,16.777412019767038,551.0673224999991,1015,28,male,True,5509,5519,False,False,inspiration,inspiration
70,107.0,25,M,down,0.8104794999999285,0.6020468397324021,,psi_staircase_training,emotion,,105.19325297460615,105.19325297460615,15.51125433040679,552.9838223000006,1015,28,male,True,5529,5537,False,False,expiration,expiration
71,105.0,25,M,down,1.6230925999989267,0.6008441916455007,,psi_staircase_training,emotion,,107.46837842830112,107.46837842830112,15.711362091496039,554.767186000001,1015,28,male,True,5546,5562,False,False,inspiration,expiration
72,106.0,25,M,down,1.4452438000007533,1.6231535933919097,,psi_staircase_training,emotion,,109.0687684379773,109.0687684379773,15.006065882492775,558.3840068000027,1015,28,male,True,5583,5597,False,False,inspiration,expiration
73,106.0,25,F,up,1.5893711999997322,1.3206704254782002,,psi_staircase_training,emotion,,110.45740324016907,110.45740324016907,14.166431496102033,561.4838913000021,1015,28,male,True,5614,5630,False,False,inspiration,expiration
74,123.0,25,F,up,0.8840681000001496,1.3520958615809024,,psi_staircase_training,emotion,,108.40183342076806,108.40183342076806,16.12504542251224,564.8001659000001,1015,28,male,True,5647,5656,False,False,inspiration,expiration
75,122.0,25,F,up,0.8812054000009084,1.7327574986935619,,psi_staircase_training,emotion,,107.79005417931204,107.79005417931204,14.955729274151453,567.8000714000009,1015,28,male,True,5677,5686,False,False,inspiration,expiration
76,95.0,25,M,down,0.8052870000028634,1.1896989605733783,,psi_staircase_training,emotion,,107.31712600359587,107.31712600359587,13.975806538168984,570.2499559000025,1015,28,male,True,5701,5709,False,False,inspiration,inspiration
77,97.0,25,M,up,1.2083297999997742,0.9418541342898206,,psi_staircase_training,emotion,,107.83240592079396,107.83240592079396,13.07675377444735,572.3499068000019,1015,28,male,True,5722,5734,False,False,expiration,inspiration
78,123.0,25,F,up,0.7780821999986074,0.35349780233250905,,psi_staircase_training,emotion,,105.8472718060288,105.8472718060288,16.327817658378002,574.2331534000003,1015,28,male,True,5741,5749,False,False,peak,expiration
79,90.0,25,F,down,1.062474000002112,0.3095001393381169,,psi_staircase_training,emotion,,105.46357568516329,105.46357568516329,15.463956750416225,575.6997783000006,1015,28,male,True,5756,5767,False,False,expiration,inspiration
80,121.0,25,M,up,0.8025906000002578,0.4296341499389799,,psi_staircase_training,emotion,,105.87322182188144,105.87322182188144,14.64783793871845,577.549705100002,1015,28,male,True,5774,5782,False,False,expiration,expiration
81,91.0,25,M,down,1.0890705999991042,1.8383601158963785,,psi_staircase_training,emotion,,105.52537006083556,105.52537006083556,13.942807874281009,580.5662407000018,1015,28,male,True,5804,5815,False,False,peak,expiration
82,0.29,25,up,up,0.7853606999997282,1.0742116290976331,,psi_staircase,cRDM,,0.25,0.25693124029946324,0.10500000000000002,599.5988937000002,1015,28,male,True,5995,6003,False,False,inspiration,peak
83,0.25,25,up,up,0.8757691999999224,1.0667695948563385,,psi_staircase,cRDM,,0.21910266653183127,0.2260132002683493,0.10468632033873933,601.7154871000022,1015,28,male,True,6016,6025,False,False,expiration,inspiration
84,0.21,25,down,down,0.7095764999976382,0.7380274038752879,,psi_staircase,cRDM,,0.1900540959403307,0.19684979615540016,0.10294672984249993,603.5987354999997,1015,28,male,True,6035,6042,False,False,expiration,expiration
85,0.18,25,down,up,1.1576267000018559,1.3745417781434024,,psi_staircase,cRDM,,0.1635257589279754,0.1701521334256793,0.100381647756865,605.9486541000006,1015,28,male,True,6058,6070,False,False,peak,expiration
86,0.28,25,up,up,1.105415599999105,1.9318751257097777,,psi_staircase,cRDM,,0.2462894156509761,0.25367687443104303,0.11191116429293203,609.2818905000022,1015,28,male,True,6092,6103,False,False,expiration,inspiration
87,0.26,25,down,down,0.8848552000017662,0.3163440688921177,,psi_staircase,cRDM,,0.2240209245171441,0.23127202108978026,0.10984543995477343,610.9653894000003,1015,28,male,True,6109,6118,False,False,inspiration,inspiration
88,0.23,25,up,up,0.8735735000009299,1.6296386753272016,,psi_staircase,cRDM,,0.2047781477371872,0.21182460465655809,0.10674539397966608,613.7317188000015,1015,28,male,True,6136,6145,False,False,expiration,inspiration
89,0.23,25,down,down,0.6930029000031936,1.7290209031577857,,psi_staircase,cRDM,,0.1874201716315257,0.19431844658589745,0.10450061445209473,616.5982958000022,1015,28,male,True,6165,6172,False,False,expiration,expiration
90,0.21,25,down,down,1.063390100000106,1.3509680489196634,,psi_staircase,cRDM,,0.17345971586379055,0.18012712878884973,0.10100333084475896,618.9148642000001,1015,28,male,True,6188,6199,False,False,inspiration,inspiration
91,0.17,25,up,up,0.8658335000000079,0.9903670918700658,,psi_staircase,cRDM,,0.16045966703622236,0.16702796679355406,0.09950188490409588,621.2314557999998,1015,28,male,True,6211,6220,False,False,expiration,inspiration
92,0.17,25,down,down,0.8668691999992006,0.9084598605334028,,psi_staircase,cRDM,,0.14444951683624788,0.15146531287032866,0.10628091824136077,623.2813951999998,1015,28,male,True,6232,6241,False,False,inspiration,expiration
93,0.16,25,down,up,1.6049922999991395,1.119513899963127,,psi_staircase,cRDM,,0.129450188150751,0.13674374107005438,0.11048860282425356,625.531270800002,1015,28,male,True,6254,6270,False,False,expiration,expiration
94,0.22,25,down,down,1.0877426000006378,1.86972124757568,,psi_staircase,cRDM,,0.17396020279295998,0.1807572427427678,0.10296702522131353,629.2645493000017,1015,28,male,True,6292,6303,False,False,inspiration,peak
95,0.19,25,up,up,0.7825426999988849,0.822918421379264,,psi_staircase,cRDM,,0.16555630165178742,0.1720733007365464,0.09872474107594877,631.4477191000005,1015,28,male,True,6313,6321,False,False,expiration,expiration
96,0.16,25,up,down,1.0436097999991034,0.5030252551110307,,psi_staircase,cRDM,,0.15513670656628065,0.1618351803618357,0.10147386588050387,632.9976731999997,1015,28,male,True,6329,6339,False,False,inspiration,expiration
97,0.21,25,down,down,1.0148047000002407,0.772862717512486,,psi_staircase,cRDM,,0.18313687507792384,0.1883987685763001,0.07971139268859187,635.0645433999998,1015,28,male,True,6350,6360,False,False,expiration,inspiration
98,0.2,25,down,down,1.1483569000010905,0.5334283870954089,,psi_staircase,cRDM,,0.17701906521450692,0.18195298668163135,0.07474300870627501,636.8809145000014,1015,28,male,True,6368,6379,False,False,inspiration,expiration
99,0.2,25,up,up,0.8218301000015344,0.5076913570700426,,psi_staircase,cRDM,,0.17148011842521416,0.17621578354498946,0.07173966218065053,638.7974663999994,1015,28,male,True,6387,6395,False,False,expiration,inspiration
100,0.19,25,up,down,1.145908700000291,1.8063537267366103,,psi_staircase,cRDM,,0.1672692845887794,0.17177396322301305,0.0682404932103077,641.6973543000022,1015,28,male,True,6416,6427,False,False,expiration,expiration
101,0.22,25,up,up,1.2670557000019471,1.8902691480033016,,psi_staircase,cRDM,,0.18619654925358184,0.1908221936482352,0.07007297979211824,644.9972309000004,1015,28,male,True,6449,6462,False,False,expiration,expiration
102,0.22,25,up,up,1.2051927000029536,1.2671449878259031,,psi_staircase,cRDM,,0.18286193681045995,0.18706603335891306,0.06368703414044903,647.7971299000019,1015,28,male,True,6477,6489,False,False,inspiration,expiration
103,0.21,25,down,down,1.120869100002892,0.5246735096437076,,psi_staircase,cRDM,,0.18072729061862408,0.1845434379523512,0.057810067567903224,649.7804198000013,1015,28,male,True,6497,6508,False,False,expiration,inspiration
104,0.2,25,down,down,0.9986637000001792,1.0578372151001525,,psi_staircase,cRDM,,0.17881293063724862,0.18233623007447236,0.05337377221464069,652.2136314000018,1015,28,male,True,6521,6531,False,False,expiration,expiration
105,0.19,25,down,down,0.7323972000012873,1.629893939209189,,psi_staircase,cRDM,,0.1761880773966453,0.1796011375337841,0.051703778676858686,655.0968792999993,1015,28,male,True,6550,6557,False,False,inspiration,expiration
106,0.18,25,up,up,0.8800983000000997,1.769998448784883,,psi_staircase,cRDM,,0.1719824267015436,0.17556260286750303,0.05423538662407185,657.8801138000017,1015,28,male,True,6578,6587,False,False,inspiration,peak
107,0.17,25,up,down,1.7679067999997642,0.4919165161501715,,psi_staircase,cRDM,,0.16566329585826106,0.16974248149246396,0.061794783196951614,659.5133616000021,1015,28,male,True,6594,6612,False,False,expiration,inspiration
108,0.19,25,down,down,0.8316765999989002,0.5005190400100092,,psi_staircase,cRDM,,0.18056768170301332,0.1832533378589848,0.0406844784185074,662.0465867000021,1015,28,male,True,6619,6627,False,False,inspiration,expiration
109,0.19,25,down,down,0.82142009999734,1.728711887569134,,psi_staircase,cRDM,,0.17773035485810576,0.18047144887057426,0.041524295634574784,664.8798678000021,1015,28,male,True,6648,6656,False,False,inspiration,inspiration
110,0.19,25,up,up,0.7035222999984398,1.5206348267158127,,psi_staircase,cRDM,,0.17518713959373305,0.17795492924848086,0.04192870268413909,667.4797577000028,1015,28,male,True,6674,6681,False,False,expiration,trough
111,0.19,25,up,up,0.9476103000015428,1.0364782821602359,,psi_staircase,cRDM,,0.17296349274436765,0.17573191542971778,0.04193829234058909,669.479686900002,1015,28,male,True,6694,6703,False,False,inspiration,expiration
112,0.19,25,down,down,1.0966666000022087,1.69637146068857,,psi_staircase,cRDM,,0.1710622430606358,0.17380887690858926,0.041608217515910484,672.3796007000019,1015,28,male,True,6723,6734,False,False,inspiration,inspiration
113,0.18,25,up,up,0.7514572000000044,1.2742319111234013,,psi_staircase,cRDM,,0.16947025546746827,0.17217667629843986,0.040999038407891104,675.0128096000008,1015,28,male,True,6749,6757,False,False,expiration,inspiration
114,0.16,25,down,down,0.9155869000023812,1.587521361347251,,psi_staircase,cRDM,,0.16591171885249745,0.1688520674753386,0.044542764650971456,677.6127039999992,1015,28,male,True,6775,6784,False,False,expiration,expiration
115,0.16,25,up,up,1.0300444999993488,1.3395376352420445,,psi_staircase,cRDM,,0.1587688482766191,0.16248675388794925,0.056321822981652,680.1292785000005,1015,28,male,True,6800,6810,False,False,inspiration,expiration
116,0.16,25,down,down,0.777625499998976,1.6438172440909076,,psi_staircase,cRDM,,0.150052793340539,0.15466580209113973,0.06988156489836063,683.0626360999995,1015,28,male,True,6830,6838,False,False,inspiration,inspiration
117,0.15,25,up,up,0.7271398999982921,1.5884472934128522,,psi_staircase,cRDM,,0.14021926886754996,0.14577900703013688,0.08422338309592751,685.6791392000014,1015,28,male,True,6856,6863,False,False,expiration,inspiration
118,0.15,25,down,up,1.0731067999986408,0.9933188668321192,,psi_staircase,cRDM,,0.1295075483505984,0.13604971230205462,0.09910595870642312,687.6621836000012,1015,28,male,True,6876,6887,False,False,inspiration,expiration
119,0.16,25,up,up,1.1007073000000671,1.256184752751404,,psi_staircase,cRDM,,0.15298472019312234,0.1575626858992016,0.06935070468925274,690.245578500002,1015,28,male,True,6901,6912,False,False,inspiration,peak
120,0.15,25,up,down,0.9787875000001804,0.6234038409443141,,psi_staircase,cRDM,,0.14420100846425699,0.14969236679756084,0.08318751047219525,692.2455030000018,1015,28,male,True,6921,6931,False,False,expiration,inspiration
121,0.16,25,down,down,0.7631744999998773,1.1191800150753044,,psi_staircase,cRDM,,0.16235314826529704,0.1660316949951242,0.055725583004496614,694.6120762999999,1015,28,male,True,6945,6953,False,False,expiration,expiration
122,0.16,25,down,up,1.342957999997452,1.9101151257197797,,psi_staircase,cRDM,,0.15551318793655605,0.16000582730848528,0.068058112786697,697.5453063000023,1015,28,male,True,6974,6987,False,False,inspiration,expiration
123,0.18,25,down,down,1.4314320999983463,0.9608115232276312,,psi_staircase,cRDM,,0.169185866301088,0.17215699275179025,0.0450090119293501,700.1118637,1015,28,male,True,7000,7014,False,False,inspiration,expiration
124,0.18,25,up,up,1.114187099999981,1.0336617663736674,,psi_staircase,cRDM,,0.16658706442355145,0.16968208582540714,0.0468858722471384,702.8451148000023,1015,28,male,True,7027,7038,False,False,expiration,inspiration
125,0.17,25,up,up,1.0229872000018077,0.5538714955085101,,psi_staircase,cRDM,,0.16418215364864094,0.16736917818038965,0.04827960961900643,704.7782747000018,1015,28,male,True,7047,7057,False,False,expiration,expiration
126,0.15,25,down,down,0.8329703000017616,0.6146119154593803,,psi_staircase,cRDM,,0.15988873985665733,0.16349990155960845,0.05470478044733619,706.6783289000014,1015,28,male,True,7066,7074,False,False,inspiration,expiration
127,0.15,25,down,down,0.891326900000422,0.4614709886721221,,psi_staircase,cRDM,,0.1533241660397616,0.15780171982852015,0.06782958424570207,708.2449363000014,1015,28,male,True,7081,7090,False,False,expiration,expiration
128,0.15,25,down,down,0.7698343999982171,1.658427314794383,,psi_staircase,cRDM,,0.14570694074266996,0.1511212027279734,0.08201959301582502,711.0614704,1015,28,male,True,7110,7118,False,False,expiration,expiration
129,0.15,25,up,up,0.9052374000020792,1.2184681259865575,,psi_staircase,cRDM,,0.13751462775553358,0.1438606417273535,0.09613452113219782,713.3280560999992,1015,28,male,True,7132,7141,False,False,inspiration,peak
130,0.15,25,up,down,1.1363134000021091,0.5201897128132029,,psi_staircase,cRDM,,0.12932575552814662,0.1365240106092866,0.10904495456292654,715.0279880000016,1015,28,male,True,7149,7160,False,False,expiration,expiration
131,0.15,25,up,up,1.1200521999999182,0.8350936090401149,,psi_staircase,cRDM,,0.14785753552244862,0.1533166744065448,0.08269942435475625,717.2612388000017,1015,28,male,True,7171,7182,False,False,inspiration,expiration
132,100.0,25,M,,,1.149952069153549,,psi_staircase,emotion,,100.0,100.0,25.00050000000001,739.2604195000023,1015,28,male,True,7391,0,False,False,inspiration,0
133,100.0,25,F,down,2.393652399998245,1.149952069153549,,psi_staircase,emotion,,100.0,100.0,25.00050000000001,743.0936672000024,1015,28,male,True,7430,7454,False,False,inspiration,inspiration
134,145.0,25,M,up,0.6484240999998292,1.3669789928679956,,psi_staircase,emotion,,145.25719053245996,145.25719053245996,25.000500000000283,747.2268265000022,1015,28,male,True,7471,7477,False,False,expiration,expiration
135,121.0,25,F,up,0.8881999000004726,0.3422507226719278,,psi_staircase,emotion,,120.36392901436103,120.36392901436103,25.71326925488699,748.6101068999997,1015,28,male,True,7485,7494,False,False,expiration,inspiration
136,97.0,25,F,up,1.1820138000002771,1.0364508769276617,,psi_staircase,emotion,,102.38876106084959,102.38876106084959,26.14633372628729,750.8933524999992,1015,28,male,True,7508,7520,False,False,expiration,expiration
137,73.0,25,M,down,0.7920511999982409,1.1960113773984973,,psi_staircase,emotion,,82.84358992132628,82.84358992132628,31.43229144782805,753.6432562000009,1015,28,male,True,7535,7543,False,False,inspiration,expiration
138,84.0,25,F,down,1.2351409000002604,1.5948833394582222,,psi_staircase,emotion,,94.9613577591715,94.9613577591715,29.694064005486627,756.3931650000012,1015,28,male,True,7563,7575,False,False,inspiration,expiration
139,112.0,25,M,up,0.9012720999999146,0.9371212319301716,,psi_staircase,emotion,,101.83848744414509,101.83848744414509,27.875884705401482,758.9430339999999,1015,28,male,True,7588,7597,False,False,expiration,inspiration
140,84.0,25,F,down,0.872341399997822,0.3013217532487719,,psi_staircase,emotion,,96.52149301196151,96.52149301196151,26.16750556784959,760.476332000002,1015,28,male,True,7604,7613,False,False,inspiration,expiration
141,112.0,25,F,up,1.1069663999987824,0.5958328901014817,,psi_staircase,emotion,,100.4399405768832,100.4399405768832,24.06105184598652,762.2762928000011,1015,28,male,True,7622,7633,False,False,expiration,inspiration
142,86.0,25,M,down,1.0408146000008855,1.3647688609491353,,psi_staircase,emotion,,97.27117883264343,97.27117883264343,21.995508974138584,765.1094903000012,1015,28,male,True,7650,7660,False,False,expiration,expiration
143,109.0,25,F,down,2.3113106999990123,1.3675504643887002,,psi_staircase,emotion,,99.8380683730314,99.8380683730314,19.86449481087272,767.8759815000012,1015,28,male,True,7678,7701,False,False,expiration,inspiration
144,122.0,25,F,up,0.8780368000007002,0.6263218884145398,,psi_staircase,emotion,,105.43836432857859,105.43836432857859,24.84197731350716,771.1592596000011,1015,28,male,True,7710,7719,False,False,inspiration,expiration
145,120.0,25,F,up,0.984719199997926,1.632093495998978,,psi_staircase,emotion,,103.38022921821836,103.38022921821836,22.923532153473786,774.0425300999997,1015,28,male,True,7739,7749,False,False,inspiration,expiration
146,87.0,25,M,down,0.8335076000003028,0.5678711672687913,,psi_staircase,emotion,,101.87619686219128,101.87619686219128,21.234865453809064,775.9757654000023,1015,28,male,True,7759,7767,False,False,expiration,expiration
147,119.0,25,M,up,1.5652530000006664,0.7294374898920011,,psi_staircase,emotion,,103.41406914535943,103.41406914535943,19.464001104867027,777.9090255000011,1015,28,male,True,7778,7794,False,False,inspiration,inspiration
148,90.0,25,F,down,0.6849684000007983,0.4701131851799062,,psi_staircase,emotion,,102.35248138501274,102.35248138501274,17.91999800365311,780.2922682999997,1015,28,male,True,7802,7809,False,False,expiration,expiration
149,107.0,25,F,up,1.0074973000009777,0.9236536124224156,,psi_staircase,emotion,,103.59820597756584,103.59820597756584,16.354817177320438,782.2588146000016,1015,28,male,True,7822,7832,False,False,expiration,expiration
150,89.0,25,M,down,1.0396419999997306,0.3104211042295071,,psi_staircase,emotion,,101.77206124296131,101.77206124296131,15.952108897688316,783.9586663000009,1015,28,male,True,7839,7849,False,False,expiration,inspiration
151,115.0,25,M,up,1.6432396999989578,0.9195681133153384,,psi_staircase,emotion,,102.6299926115223,102.6299926115223,14.632363277627066,786.2920482000009,1015,28,male,True,7862,7878,False,False,expiration,expiration
152,92.0,25,M,down,0.927380400000402,0.5235473288483293,,psi_staircase,emotion,,101.94402894525416,101.94402894525416,13.502877289361727,788.8419362999994,1015,28,male,True,7887,7896,False,False,inspiration,expiration
153,94.0,25,M,down,1.2750468000012916,0.78591149394418,,psi_staircase,emotion,,102.71352602172705,102.71352602172705,12.456379965247455,790.9252310000011,1015,28,male,True,7908,7921,False,False,expiration,inspiration
154,113.0,25,F,up,0.8932190999985323,1.8980286212453037,,psi_staircase,emotion,,103.40377340561692,103.40377340561692,11.602715167451219,794.4750875000027,1015,28,male,True,7944,7953,False,False,inspiration,expiration
155,103.0,25,F,down,1.129278799999156,1.1727188740492946,,psi_staircase,emotion,,102.81402217092398,102.81402217092398,10.755355198321245,796.9249893000015,1015,28,male,True,7968,7979,False,False,inspiration,inspiration
156,98.0,25,F,down,1.3847062999993796,1.0485665409817193,,psi_staircase,emotion,,104.16917777071023,104.16917777071023,10.754450368570764,799.4915686999992,1015,28,male,True,7994,8008,False,False,expiration,inspiration
157,114.0,25,M,up,0.8895148000010522,1.7223128605754612,,psi_staircase,emotion,,104.81344581915778,104.81344581915778,10.0873862382636,802.9747898000023,1015,28,male,True,8029,8038,False,False,expiration,expiration
158,102.0,25,M,down,1.0352935000009893,0.7734493253384234,,psi_staircase,emotion,,104.40268275234459,104.40268275234459,9.387702473860882,805.0080129000016,1015,28,male,True,8049,8059,False,False,inspiration,expiration
159,102.0,25,F,down,1.0540516000000937,1.4766639613162191,,psi_staircase,emotion,,105.23813621592184,105.23813621592184,8.94157322110639,807.8412544999992,1015,28,male,True,8077,8088,False,False,inspiration,expiration
160,103.0,25,F,down,1.0912273000030837,1.7053172566547532,,psi_staircase,emotion,,105.92797684779363,105.92797684779363,8.428174526416445,810.9411309999997,1015,28,male,True,8108,8119,False,False,inspiration,peak
161,103.0,25,M,,,0.5627152023959545,,psi_staircase,emotion,,106.57794261912636,106.57794261912636,7.9209408132114945,812.9244206000003,1015,28,male,True,8128,0,False,False,expiration,0
162,103.0,25,F,down,0.9229828999996244,0.5627152023959545,,psi_staircase,emotion,,106.57794261912636,106.57794261912636,7.9209408132114945,816.1742909000022,1015,28,male,True,8161,8170,False,False,expiration,expiration
163,104.0,25,M,down,1.4994162000002689,1.8290916592669704,,psi_staircase,emotion,,107.10740793964472,107.10740793964472,7.366129421137947,819.2908578999995,1015,28,male,True,8192,8207,False,False,expiration,trough
164,104.0,25,F,up,2.2822077000018908,1.8362619099988364,,psi_staircase,emotion,,107.61379348702029,107.61379348702029,6.830156538261683,822.9740864000014,1015,28,male,True,8229,8252,False,False,expiration,inspiration
165,114.0,25,M,up,0.8503961999995227,1.1173704394094128,,psi_staircase,emotion,,106.55142750669943,106.55142750669943,8.335990606251384,826.7239050999997,1015,28,male,True,8266,8275,False,False,expiration,expiration
166,113.0,25,F,up,1.0247681000000741,0.6937512785569909,,psi_staircase,emotion,,106.23469066329382,106.23469066329382,7.7352357398103635,828.6404775000011,1015,28,male,True,8285,8295,False,False,inspiration,expiration
167,101.0,25,M,up,1.7172852000003331,1.7050261859568447,,psi_staircase,emotion,,105.96803699495086,105.96803699495086,7.233964454082676,831.7570176000007,1015,28,male,True,8317,8334,False,False,inspiration,expiration
168,114.0,25,F,up,1.1920312000002014,1.9659583125428293,,psi_staircase,emotion,,105.02660894245493,105.02660894245493,8.637257934454793,835.7902400999992,1015,28,male,True,8357,8369,False,False,expiration,expiration
169,97.0,25,M,down,0.8864514999986568,0.3168780713908016,,psi_staircase,emotion,,104.82611828017208,104.82611828017208,8.207890008307048,837.6568336000017,1015,28,male,True,8376,8385,False,False,trough,inspiration
170,113.0,25,F,down,1.0058533000010357,0.8087278759579861,,psi_staircase,emotion,,105.02489846790445,105.02489846790445,7.83394061229625,839.6734361000017,1015,28,male,True,8396,8406,False,False,expiration,expiration
171,117.0,25,M,up,1.0375950999987251,0.8777415722923587,,psi_staircase,emotion,,106.0327722214768,106.0327722214768,9.725153671684678,841.9066798999993,1015,28,male,True,8418,8428,False,False,inspiration,expiration
172,116.0,25,M,up,1.958685500001593,1.015652299630364,,psi_staircase,emotion,,105.84945034644636,105.84945034644636,9.291996254776764,844.3065812999994,1015,28,male,True,8442,8462,False,False,trough,expiration
173,96.0,25,F,down,1.7051484000003256,1.1824825871075877,,psi_staircase,emotion,,105.68401408676095,105.68401408676095,8.919789176331136,847.8231191000012,1015,28,male,True,8477,8494,False,False,inspiration,expiration
174,97.0,25,F,,,0.682108835710016,,psi_staircase,emotion,,105.84834341825443,105.84834341825443,8.588425713110617,850.5896905000009,1015,28,male,True,8505,0,False,False,expiration,0
175,97.0,25,M,down,1.1311542999974336,0.682108835710016,,psi_staircase,emotion,,105.84834341825443,105.84834341825443,8.588425713110617,853.9561529999993,1015,28,male,True,8539,8550,False,False,expiration,inspiration
176,115.0,25,F,up,1.0532180999980485,1.5848489741605565,,psi_staircase,emotion,,106.00912552000393,106.00912552000393,8.291199430679818,857.0560848000023,1015,28,male,True,8570,8581,False,False,inspiration,inspiration
177,98.0,25,M,down,1.0253594999994675,1.7161638906905736,,psi_staircase,emotion,,105.85483339932016,105.85483339932016,8.012469338650787,860.2060071000013,1015,28,male,True,8601,8611,False,False,expiration,inspiration
178,114.0,25,M,up,1.6594630999970832,1.3443226806532158,,psi_staircase,emotion,,106.01751163703669,106.01751163703669,7.760765757906422,862.9558116000007,1015,28,male,True,8629,8646,False,False,expiration,inspiration
179,99.0,25,F,down,1.8538291000004392,0.5812614940400542,,psi_staircase,emotion,,105.86591897421692,105.86591897421692,7.525180283084684,865.572479800001,1015,28,male,True,8655,8674,False,False,expiration,inspiration
180,113.0,25,F,up,0.8089622000006784,1.6422005585370862,,psi_staircase,emotion,,106.0338785117885,106.0338785117885,7.306122417686152,869.422334400002,1015,28,male,True,8693,8701,False,False,expiration,expiration
181,99.0,25,F,down,1.3136862999999719,1.7465750794336607,,psi_staircase,emotion,,105.87967883262087,105.87967883262087,7.1015587553190676,872.3055821000016,1015,28,male,True,8722,8735,False,False,peak,expiration
182,100.0,25,M,down,1.4261264000015217,0.9410774120801736,,psi_staircase,emotion,,106.02863317684056,106.02863317684056,6.910936370938486,874.9221505000023,1015,28,male,True,8748,8762,False,False,inspiration,expiration
183,113.0,25,M,up,1.8483358999983464,1.3022290983160578,,psi_staircase,emotion,,106.18742773694584,106.18742773694584,6.732841546426026,877.9720281000009,1015,28,male,True,8779,8797,False,False,inspiration,expiration
184,100.0,25,M,down,1.6161471000013992,1.9033269002792108,,psi_staircase,emotion,,106.05281697406656,106.05281697406656,6.562035450745273,882.0551209000005,1015,28,male,True,8820,8836,False,False,inspiration,expiration
185,0.14035536291080053,25,down,up,0.9993571000013616,1.0859096861399655,,experiment,cRDM,0.0,,,,916.2538649000016,1015,28,male,True,9162,9172,False,False,expiration,expiration
186,0.14035536291080053,25,down,up,0.9854959999975108,1.1419763244912815,,experiment,cRDM,0.0,,,,918.653780200002,1015,28,male,True,9186,9196,False,False,inspiration,expiration
187,0.14035536291080053,25,down,down,0.5914999000015086,0.8914237365283281,,experiment,cRDM,0.0,,,,920.8037779000006,1015,28,male,True,9207,9213,False,False,expiration,trough
188,0.14035536291080053,25,up,up,0.9522579000004044,0.6955966405246001,,experiment,cRDM,0.0,,,,922.3370544999997,1015,28,male,True,9222,9232,False,False,inspiration,expiration
189,0.14035536291080053,25,up,up,1.8359406000017768,0.4588666853226594,,experiment,cRDM,0.0,,,,924.0203369000011,1015,28,male,True,9239,9257,False,False,expiration,inspiration
190,0.14035536291080053,25,up,down,1.1163744000004954,0.5687553194360955,,experiment,cRDM,0.0,,,,926.6869014000004,1015,28,male,True,9266,9277,False,False,expiration,expiration
191,0.14035536291080053,25,up,down,1.3130662000003213,0.7100303488128771,,experiment,cRDM,0.0,,,,928.7701988000008,1015,28,male,True,9287,9300,False,False,inspiration,inspiration
192,0.14035536291080053,25,up,up,1.1280272000003606,1.7926970636028816,,experiment,cRDM,0.0,,,,932.1532490999997,1015,28,male,True,9321,9332,False,False,expiration,inspiration
193,0.14035536291080053,25,down,down,0.9013056000003415,1.9370891268870023,,experiment,cRDM,0.0,,,,935.4699454,1015,28,male,True,9354,9363,False,False,expiration,expiration
194,0.14035536291080053,25,down,down,1.641467500001454,1.135694620434731,,experiment,cRDM,0.0,,,,937.7698111999997,1015,28,male,True,9377,9393,False,False,inspiration,expiration
195,0.14035536291080053,25,up,up,0.9385450999980094,0.5494324704309597,,experiment,cRDM,0.0,,,,940.2197503000025,1015,28,male,True,9401,9410,False,False,expiration,expiration
196,0.14035536291080053,25,down,down,0.8499105000009877,1.032556965434437,,experiment,cRDM,0.0,,,,942.4363426000017,1015,28,male,True,9423,9431,False,False,inspiration,inspiration
197,0.14035536291080053,25,down,down,1.0538601000007477,1.323245504243533,,experiment,cRDM,0.0,,,,944.8694157999997,1015,28,male,True,9448,9459,False,False,expiration,inspiration
198,0.14035536291080053,25,up,up,0.7456808999995701,1.8217687762602528,,experiment,cRDM,0.0,,,,948.0027740000003,1015,28,male,True,9479,9486,False,False,expiration,expiration
199,0.14035536291080053,25,down,down,0.7418498000006366,0.6452245126752327,,experiment,cRDM,0.0,,,,949.6694289000006,1015,28,male,True,9496,9503,False,False,inspiration,peak
200,0.14035536291080053,25,down,up,0.7019875000005413,1.3475259757064628,,experiment,cRDM,0.0,,,,952.019290700002,1015,28,male,True,9519,9526,False,False,expiration,inspiration
201,0.14035536291080053,25,up,down,0.8527272999999695,1.8807165758696576,,experiment,cRDM,0.0,,,,954.8525515,1015,28,male,True,9548,9557,False,False,expiration,expiration
202,0.14035536291080053,25,up,up,0.9363474999991012,0.35239453019737393,,experiment,cRDM,0.0,,,,956.3191594000017,1015,28,male,True,9562,9571,False,False,inspiration,inspiration
203,0.14035536291080053,25,down,down,0.7845675999997184,1.0758726667459768,,experiment,cRDM,0.0,,,,958.5857366000017,1015,28,male,True,9585,9593,False,False,expiration,expiration
204,0.14035536291080053,25,up,up,0.8326171000007889,0.5701695733838608,,experiment,cRDM,0.0,,,,960.1856837000014,1015,28,male,True,9601,9609,False,False,inspiration,expiration
205,0.14035536291080053,25,down,down,0.5954910000000382,1.2766647237552615,,experiment,cRDM,0.0,,,,962.5687873000024,1015,28,male,True,9625,9631,False,False,expiration,inspiration
206,0.14035536291080053,25,down,up,0.6327517000027001,0.6535565611268266,,experiment,cRDM,0.0,,,,964.0855673000003,1015,28,male,True,9640,9646,False,False,expiration,expiration
207,0.14035536291080053,25,up,up,0.7601684000001114,1.0175025474235528,,experiment,cRDM,0.0,,,,966.0021296000014,1015,28,male,True,9659,9667,False,False,inspiration,inspiration
208,0.14035536291080053,25,down,down,0.7048620999994455,0.4114336601798411,,experiment,cRDM,0.0,,,,967.4354571000003,1015,28,male,True,9673,9680,False,False,peak,expiration
209,0.14035536291080053,25,up,up,0.748905399999785,0.492328780646024,,experiment,cRDM,0.0,,,,968.8853952000028,1015,28,male,True,9688,9695,False,False,expiration,inspiration
210,0.14035536291080053,25,up,up,0.6717096000029414,0.42524473398092655,,experiment,cRDM,0.0,,,,970.3186339000023,1015,28,male,True,9702,9709,False,False,inspiration,expiration
211,0.14035536291080053,25,down,down,0.6746841999993194,0.4683488111558903,,experiment,cRDM,0.0,,,,971.7185959000017,1015,28,male,True,9716,9723,False,False,expiration,expiration
212,0.14035536291080053,25,up,up,0.6388139000009687,1.0244175116974892,,experiment,cRDM,0.0,,,,973.668462900001,1015,28,male,True,9736,9742,False,False,inspiration,expiration
213,0.14035536291080053,25,down,down,0.6349611000005098,1.0547140767758167,,experiment,cRDM,0.0,,,,975.6184771000007,1015,28,male,True,9755,9761,False,False,expiration,inspiration
214,0.14035536291080053,25,up,up,0.8588588999991771,0.3021866199463016,,experiment,cRDM,0.0,,,,976.8184179000017,1015,28,male,True,9767,9776,False,False,inspiration,expiration
215,0.14035536291080053,25,up,up,0.6816428000020096,1.365602169556092,,experiment,cRDM,0.0,,,,979.3016371000012,1015,28,male,True,9792,9799,False,False,inspiration,inspiration
216,0.14035536291080053,25,down,down,0.518071600003168,1.928461579838031,,experiment,cRDM,0.0,,,,982.1682359000006,1015,28,male,True,9821,9826,False,False,expiration,expiration
217,0.14035536291080053,25,down,up,1.3205063999994309,1.03936303768563,,experiment,cRDM,0.0,,,,983.984794,1015,28,male,True,9839,9852,False,False,inspiration,expiration
218,0.14035536291080053,25,down,down,0.5813401000013982,1.2003488215579037,,experiment,cRDM,0.0,,,,986.7679490000011,1015,28,male,True,9867,9873,False,False,inspiration,inspiration
219,0.14035536291080053,25,down,down,0.6449962000006053,0.6849256861681712,,experiment,cRDM,0.0,,,,988.3013090999992,1015,28,male,True,9882,9888,False,False,expiration,expiration
220,0.14035536291080053,25,up,up,0.5353628999982902,0.9106160775324954,,experiment,cRDM,0.0,,,,990.1179045999997,1015,28,male,True,9900,9905,False,False,inspiration,inspiration
221,0.14035536291080053,25,up,up,0.6927654999999504,0.7126345913801524,,experiment,cRDM,0.0,,,,991.6345314000027,1015,28,male,True,9915,9922,False,False,expiration,expiration
222,0.14035536291080053,25,up,up,0.6402038999985962,1.7111278894753603,,experiment,cRDM,0.0,,,,994.3010825000019,1015,28,male,True,9942,9948,False,False,inspiration,peak
223,0.14035536291080053,25,down,down,1.1122653000020364,0.7345395900073975,,experiment,cRDM,0.0,,,,995.9510201000012,1015,28,male,True,9958,9969,False,False,expiration,expiration
224,0.14035536291080053,25,up,up,0.4973755999999412,0.3287893515461445,,experiment,cRDM,0.0,,,,997.6509507000011,1015,28,male,True,9975,9980,False,False,inspiration,inspiration
225,0.14035536291080053,25,down,down,0.5178151000000071,1.9513309720740477,,experiment,cRDM,0.0,,,,1000.3674523000008,1015,28,male,True,10003,10008,False,False,expiration,inspiration
226,0.14035536291080053,25,down,down,0.6758121999992,0.966448100507706,,experiment,cRDM,0.0,,,,1002.1174748000012,1015,28,male,True,10020,10027,False,False,expiration,expiration
227,0.14035536291080053,25,up,up,0.4435582000005525,1.6302077380482465,,experiment,cRDM,0.0,,,,1004.7007076000008,1015,28,male,True,10046,10050,False,False,inspiration,inspiration
228,0.14035536291080053,25,down,down,0.522352600000886,1.7745306890228318,,experiment,cRDM,0.0,,,,1007.1839604000016,1015,28,male,True,10071,10076,False,False,inspiration,inspiration
229,0.14035536291080053,25,up,up,0.7031738999976369,1.809602930813578,,experiment,cRDM,0.0,,,,1009.767109700002,1015,28,male,True,10097,10104,False,False,expiration,expiration
230,0.14035536291080053,25,up,up,0.9138268999995488,0.31351091621977123,,experiment,cRDM,0.0,,,,1011.0504581000024,1015,28,male,True,10110,10119,False,False,inspiration,inspiration
231,0.14035536291080053,25,up,up,0.7036269000018365,1.7205645685150115,,experiment,cRDM,0.0,,,,1013.9337043000014,1015,28,male,True,10138,10145,False,False,expiration,inspiration
232,0.14035536291080053,25,up,up,0.6202919999996084,1.0124316084102871,,experiment,cRDM,0.0,,,,1015.9169699000013,1015,28,male,True,10158,10164,False,False,expiration,expiration
233,0.14035536291080053,25,down,down,0.5427122000000963,1.6221094230841235,,experiment,cRDM,0.0,,,,1018.4335729000012,1015,28,male,True,10183,10188,False,False,inspiration,inspiration
234,0.14035536291080053,25,down,down,0.6332962999986194,0.7049737403494271,,experiment,cRDM,0.0,,,,1019.9501390000003,1015,28,male,True,10198,10204,False,False,expiration,expiration
235,0.14035536291080053,25,down,down,0.671140700000251,0.3622136521540229,,experiment,cRDM,0.0,,,,1021.2001073999999,1015,28,male,True,10211,10218,False,False,inspiration,inspiration
236,0.14035536291080053,25,down,down,0.5771970999994664,0.5265700453629869,,experiment,cRDM,0.0,,,,1022.6501024999997,1015,28,male,True,10226,10232,False,False,expiration,expiration
237,0.14035536291080053,25,up,up,0.5912435999998706,0.5671625128664586,,experiment,cRDM,0.0,,,,1024.0500491999992,1015,28,male,True,10240,10246,False,False,trough,inspiration
238,0.14035536291080053,25,up,up,0.890334100000473,1.2559827085208517,,experiment,cRDM,0.0,,,,1026.1499435000003,1015,28,male,True,10261,10270,False,False,expiration,expiration
239,0.14035536291080053,25,up,up,0.6747992000018712,1.810820005604748,,experiment,cRDM,0.0,,,,1029.1164825000014,1015,28,male,True,10290,10297,False,False,expiration,expiration
240,0.14035536291080053,25,up,up,0.5825923000011244,0.3962100488523826,,experiment,cRDM,0.0,,,,1030.4497319000004,1015,28,male,True,10304,10310,False,False,expiration,inspiration
241,0.14035536291080053,25,down,down,0.5322269000025699,0.4025870214027425,,experiment,cRDM,0.0,,,,1031.6830757999996,1015,28,male,True,10316,10321,False,False,inspiration,inspiration
242,0.14035536291080053,25,down,down,0.6469131999983802,0.9849079876777964,,experiment,cRDM,0.0,,,,1033.4663701000027,1015,28,male,True,10334,10340,False,False,expiration,expiration
243,0.14035536291080053,25,down,down,0.6754035000012664,1.606529434964264,,experiment,cRDM,0.0,,,,1035.9828856000022,1015,28,male,True,10359,10366,False,False,inspiration,expiration
244,0.14035536291080053,25,up,up,0.6788369999994757,1.7232742501868523,,experiment,cRDM,0.0,,,,1038.6494493000027,1015,28,male,True,10386,10393,False,False,inspiration,inspiration
245,0.14035536291080053,25,up,up,0.6402181999983441,1.7721496779123966,,experiment,cRDM,0.0,,,,1041.366043500002,1015,28,male,True,10413,10419,False,False,expiration,expiration
246,0.14035536291080053,25,down,down,0.5766283999982988,1.023288816212302,,experiment,cRDM,0.0,,,,1043.2826497000024,1015,28,male,True,10432,10438,False,False,inspiration,expiration
247,0.14035536291080053,25,up,up,0.6204472999997961,1.8958562573441449,,experiment,cRDM,0.0,,,,1046.0158417999992,1015,28,male,True,10459,10465,False,False,inspiration,inspiration
248,0.14035536291080053,25,down,down,0.5555227000004379,1.9804050834473568,,experiment,cRDM,0.0,,,,1048.8657519000008,1015,28,male,True,10488,10494,False,False,expiration,expiration
249,0.14035536291080053,25,up,up,0.6519842000016071,1.7420691690879293,,experiment,cRDM,0.0,,,,1051.4323141000025,1015,28,male,True,10514,10521,False,False,inspiration,inspiration
250,0.14035536291080053,25,up,up,0.5541035999995074,1.639931332486738,,experiment,cRDM,0.0,,,,1053.9822418000003,1015,28,male,True,10539,10545,False,False,expiration,expiration
251,0.14035536291080053,25,down,down,0.6421153000010236,1.7419119014760076,,experiment,cRDM,0.0,,,,1056.532132700002,1015,28,male,True,10565,10571,False,False,expiration,expiration
252,0.14035536291080053,25,up,up,0.5918987000004563,0.975161932100973,,experiment,cRDM,0.0,,,,1058.4153848999997,1015,28,male,True,10583,10589,False,False,inspiration,inspiration
253,0.14035536291080053,25,down,down,0.6465999000029115,1.1840533345385242,,experiment,cRDM,0.0,,,,1060.4486859999997,1015,28,male,True,10604,10610,False,False,expiration,expiration
254,0.14035536291080053,25,down,up,1.6990154000013715,0.9129855831389432,,experiment,cRDM,0.0,,,,1062.2652710000002,1015,28,male,True,10622,10639,False,False,inspiration,expiration
255,0.14035536291080053,25,down,down,1.5028042999983882,1.7101796584132842,,experiment,cRDM,0.0,,,,1065.9485048000024,1015,28,male,True,10659,10674,False,False,peak,expiration
256,0.14035536291080053,25,down,down,0.6713302999996813,0.8408681448515072,,experiment,cRDM,0.0,,,,1068.564957300001,1015,28,male,True,10685,10692,False,False,inspiration,inspiration
257,0.14035536291080053,25,up,up,0.5766890000013518,1.9799748946267608,,experiment,cRDM,0.0,,,,1071.481598000002,1015,28,male,True,10714,10720,False,False,expiration,inspiration
258,0.14035536291080053,25,down,down,0.6667739999975311,0.8095538851719288,,experiment,cRDM,0.0,,,,1073.1315156000019,1015,28,male,True,10731,10738,False,False,expiration,expiration
259,0.14035536291080053,25,down,down,0.8505264999985229,0.9594320536111084,,experiment,cRDM,0.0,,,,1075.0147885000006,1015,28,male,True,10749,10758,False,False,trough,inspiration
260,0.14035536291080053,25,down,down,0.565908100001252,1.1460229052321496,,experiment,cRDM,0.0,,,,1077.2813836000025,1015,28,male,True,10772,10778,False,False,expiration,expiration
261,0.14035536291080053,25,up,up,0.6119502000001376,0.5888586267385114,,experiment,cRDM,0.0,,,,1078.6813355000013,1015,28,male,True,10786,10792,False,False,inspiration,inspiration
262,0.14035536291080053,25,up,up,0.9504161000004387,0.3909042917719929,,experiment,cRDM,0.0,,,,1079.9478923000024,1015,28,male,True,10799,10809,False,False,expiration,expiration
263,0.14035536291080053,25,up,up,0.6425274000030186,1.086509597819988,,experiment,cRDM,0.0,,,,1082.2477596000026,1015,28,male,True,10822,10828,False,False,inspiration,inspiration
264,0.14035536291080053,25,up,up,0.7218080999991798,0.5696172121994969,,experiment,cRDM,0.0,,,,1083.7144902,1015,28,male,True,10836,10843,False,False,expiration,expiration
265,108.0,25,M,up,1.445014699998865,0.9920845411812806,,experiment,emotion,0.0,,,,1107.2802775000016,1015,28,male,True,11072,11086,False,False,expiration,trough
266,105.0,25,M,up,1.1257879999975555,1.3909808605660972,,experiment,emotion,0.0,,,,1110.4134962000026,1015,28,male,True,11103,11114,False,False,expiration,expiration
267,107.0,25,F,up,1.3028865999986008,0.3380666866174268,,experiment,emotion,0.0,,,,1112.1634433,1015,28,male,True,11121,11134,False,False,inspiration,expiration
268,103.0,25,F,down,0.9446327000005112,1.415941832827773,,experiment,emotion,0.0,,,,1115.1966620000019,1015,28,male,True,11151,11160,False,False,inspiration,inspiration
269,103.0,25,M,down,1.194401499997184,1.3161539003291085,,experiment,emotion,0.0,,,,1117.729891400002,1015,28,male,True,11176,11188,False,False,expiration,inspiration
270,107.0,25,F,down,1.0164618999988306,0.3759728954794645,,experiment,emotion,0.0,,,,1119.579827900001,1015,28,male,True,11195,11205,False,False,expiration,expiration
271,105.0,25,M,down,0.7881534999978612,0.6922661282633329,,experiment,emotion,0.0,,,,1121.546369300002,1015,28,male,True,11215,11223,False,False,inspiration,inspiration
272,108.0,25,M,down,1.1406294999978854,0.7363388354031686,,experiment,emotion,0.0,,,,1123.3796734000025,1015,28,male,True,11233,11244,False,False,expiration,inspiration
273,103.0,25,F,down,0.8327398000001267,1.6496684526464895,,experiment,emotion,0.0,,,,1126.4295505000011,1015,28,male,True,11263,11271,False,False,expiration,expiration
274,107.0,25,F,down,0.7248030999980983,1.0951747041536222,,experiment,emotion,0.0,,,,1128.6294744000004,1015,28,male,True,11286,11293,False,False,inspiration,expiration
275,107.0,25,F,down,0.6698943000010331,1.1955950400674091,,experiment,emotion,0.0,,,,1130.829397000001,1015,28,male,True,11308,11315,False,False,expiration,inspiration
276,103.0,25,F,down,0.7674108000028355,0.5721969753187491,,experiment,emotion,0.0,,,,1132.3459159000013,1015,28,male,True,11323,11331,False,False,inspiration,expiration
277,105.0,25,F,down,1.4667795999994269,0.6896565052884884,,experiment,emotion,0.0,,,,1134.0626549000008,1015,28,male,True,11340,11355,False,False,expiration,inspiration
278,105.0,25,F,up,0.966740400002891,0.9565581240309402,,experiment,emotion,0.0,,,,1136.7625444000005,1015,28,male,True,11367,11377,False,False,expiration,inspiration
279,108.0,25,M,down,0.9495878000016093,0.4207602749670327,,experiment,emotion,0.0,,,,1138.4457331000012,1015,28,male,True,11384,11393,False,False,inspiration,expiration
280,108.0,25,M,up,1.4319138999999268,1.1514433315164727,,experiment,emotion,0.0,,,,1140.8123856999991,1015,28,male,True,11407,11421,False,False,trough,inspiration
281,107.0,25,M,up,1.0396497000001546,0.948117051829836,,experiment,emotion,0.0,,,,1143.4456554999995,1015,28,male,True,11434,11444,False,False,expiration,inspiration
282,107.0,25,M,down,1.929107899999508,0.4981323273435729,,experiment,emotion,0.0,,,,1145.2622088000026,1015,28,male,True,11452,11471,False,False,inspiration,expiration
283,103.0,25,F,down,1.0138955000002172,1.1821672822807583,,experiment,emotion,0.0,,,,1148.6954275000026,1015,28,male,True,11486,11496,False,False,inspiration,expiration
284,108.0,25,M,down,1.3371392999979437,1.964815398302972,,experiment,emotion,0.0,,,,1151.945148900002,1015,28,male,True,11519,11532,False,False,inspiration,expiration
285,105.0,25,M,down,1.5020554999973683,1.094761621815013,,experiment,emotion,0.0,,,,1154.6952349000019,1015,28,male,True,11546,11561,False,False,inspiration,expiration
286,108.0,25,F,down,0.9785205000007408,1.2538849317054461,,experiment,emotion,0.0,,,,1157.7117681000018,1015,28,male,True,11576,11586,False,False,inspiration,inspiration
287,105.0,25,M,down,0.9082549000013388,1.09039814630643,,experiment,emotion,0.0,,,,1160.045043500002,1015,28,male,True,11600,11609,False,False,expiration,inspiration
288,103.0,25,F,down,0.8927542999990692,1.206938325449716,,experiment,emotion,0.0,,,,1162.4615938000024,1015,28,male,True,11624,11633,False,False,expiration,expiration
289,108.0,25,F,down,0.8745439999984228,1.3060029210753568,,experiment,emotion,0.0,,,,1164.9447631000005,1015,28,male,True,11649,11658,False,False,inspiration,expiration
290,103.0,25,M,down,1.0508605999966676,0.6839562929651968,,experiment,emotion,0.0,,,,1166.7614341000008,1015,28,male,True,11667,11678,False,False,expiration,inspiration
291,103.0,25,M,down,0.8792575000006764,0.3954607062203263,,experiment,emotion,0.0,,,,1168.478031900002,1015,28,male,True,11684,11693,False,False,inspiration,expiration
292,108.0,25,F,down,1.007367999998678,0.808353420532002,,experiment,emotion,0.0,,,,1170.4279410000015,1015,28,male,True,11703,11713,False,False,expiration,inspiration
293,107.0,25,M,down,1.136394400000427,0.3753991566232234,,experiment,emotion,0.0,,,,1172.1278834000004,1015,28,male,True,11720,11731,False,False,peak,expiration
294,107.0,25,F,down,0.984957000000577,0.8990814266687703,,experiment,emotion,0.0,,,,1174.4444737000013,1015,28,male,True,11744,11754,False,False,inspiration,expiration
295,105.0,25,F,down,1.1719196000012744,1.7550160080219213,,experiment,emotion,0.0,,,,1177.494400200001,1015,28,male,True,11774,11786,False,False,inspiration,expiration
296,105.0,25,F,up,1.0623816000006627,1.925529367808424,,experiment,emotion,0.0,,,,1180.8609112000013,1015,28,male,True,11808,11819,False,False,expiration,inspiration
297,107.0,25,M,up,1.8507940999988928,1.0764256689275842,,experiment,emotion,0.0,,,,1183.2774924000005,1015,28,male,True,11832,11851,False,False,expiration,inspiration
298,108.0,25,M,up,1.5972738999989815,0.6717026401213626,,experiment,emotion,0.0,,,,1186.094054000001,1015,28,male,True,11860,11876,False,False,inspiration,expiration
299,105.0,25,M,down,1.3684100999998918,0.4872565443661169,,experiment,emotion,0.0,,,,1188.4439160000004,1015,28,male,True,11884,11898,False,False,inspiration,expiration
300,107.0,25,F,down,1.1500926000007894,1.1975183836708392,,experiment,emotion,0.0,,,,1191.2771917000027,1015,28,male,True,11912,11924,False,False,expiration,inspiration
301,108.0,25,F,down,1.0218363999993016,1.1508947180139375,,experiment,emotion,0.0,,,,1193.8604572000004,1015,28,male,True,11938,11948,False,False,expiration,expiration
302,105.0,25,M,down,1.1202708000018902,0.6266884572910792,,experiment,emotion,0.0,,,,1195.7770262000013,1015,28,male,True,11957,11968,False,False,inspiration,expiration
303,103.0,25,F,down,1.0988405000025523,0.6559155880669681,,experiment,emotion,0.0,,,,1197.8435250000002,1015,28,male,True,11978,11989,False,False,expiration,inspiration
304,103.0,25,M,down,1.0760541000017838,0.3882963128147586,,experiment,emotion,0.0,,,,1199.6102428000013,1015,28,male,True,11995,12006,False,False,inspiration,expiration
305,107.0,25,M,down,0.9168300999990606,0.4817086190710611,,experiment,emotion,0.0,,,,1201.4434302000009,1015,28,male,True,12014,12023,False,False,expiration,inspiration
306,108.0,25,M,down,1.2912710999989943,1.7752795985747525,,experiment,emotion,0.0,,,,1204.4100414999996,1015,28,male,True,12043,12056,False,False,expiration,inspiration
307,107.0,25,F,down,1.0496958000003358,1.1629178755844425,,experiment,emotion,0.0,,,,1207.1266040000012,1015,28,male,True,12070,12080,False,False,expiration,expiration
308,103.0,25,F,down,0.9977418999988004,0.3263572257526109,,experiment,emotion,0.0,,,,1208.7765519000022,1015,28,male,True,12087,12097,False,False,inspiration,expiration
309,108.0,25,M,down,1.0964958999975352,1.267524153607076,,experiment,emotion,0.0,,,,1211.3098035000005,1015,28,male,True,12112,12123,False,False,expiration,inspiration
310,105.0,25,F,down,0.8976127999994787,1.9386389367984835,,experiment,emotion,0.0,,,,1214.6596848000008,1015,28,male,True,12146,12155,False,False,expiration,inspiration
311,103.0,25,F,,,0.6005857633952061,,experiment,emotion,0.0,,,,1216.4262641000025,1015,28,male,True,12163,0,False,False,inspiration,0
312,105.0,25,M,down,1.0545697000015934,1.727535852047855,,experiment,emotion,0.0,,,,1220.8427267000004,1015,28,male,True,12208,12219,False,False,expiration,expiration
313,105.0,25,M,down,0.9336690000018281,0.5854098305732285,,experiment,emotion,0.0,,,,1222.7426278999992,1015,28,male,True,12227,12236,False,False,inspiration,inspiration
314,105.0,25,F,down,0.8783057000000554,1.1308127901148943,,experiment,emotion,0.0,,,,1225.0759443999996,1015,28,male,True,12250,12259,False,False,expiration,inspiration
315,103.0,25,M,down,0.9307632000018202,0.3301723623252292,,experiment,emotion,0.0,,,,1226.5425165000015,1015,28,male,True,12265,12274,False,False,inspiration,expiration
316,107.0,25,F,up,1.3135529000028328,1.949213415938848,,experiment,emotion,0.0,,,,1229.7257658000015,1015,28,male,True,12296,12309,False,False,inspiration,expiration
317,108.0,25,F,up,0.9779291000013473,0.4349852343925068,,experiment,emotion,0.0,,,,1231.7923862999996,1015,28,male,True,12317,12327,False,False,expiration,inspiration
318,107.0,25,F,up,0.9603891000006116,1.8756601639113992,,experiment,emotion,0.0,,,,1234.9089253999991,1015,28,male,True,12348,12358,False,False,expiration,inspiration
319,103.0,25,M,up,1.6410667999989528,1.0951495815426469,,experiment,emotion,0.0,,,,1237.242227300001,1015,28,male,True,12372,12388,False,False,peak,expiration
320,108.0,25,M,up,1.3040087999979733,1.180519399120086,,experiment,emotion,0.0,,,,1240.325385600001,1015,28,male,True,12402,12415,False,False,inspiration,expiration
321,103.0,25,F,down,1.311034500002279,1.6183014879175766,,experiment,emotion,0.0,,,,1243.5252653000025,1015,28,male,True,12434,12447,False,False,inspiration,expiration
322,108.0,25,F,up,0.7937722999995458,1.4583493656587052,,experiment,emotion,0.0,,,,1246.5585198000008,1015,28,male,True,12465,12473,False,False,inspiration,inspiration
323,108.0,25,M,down,1.6928661999991164,1.5520798573839814,,experiment,emotion,0.0,,,,1249.1584292000007,1015,28,male,True,12491,12508,False,False,expiration,inspiration
324,105.0,25,M,down,1.7550602000010258,1.8636016438621568,,experiment,emotion,0.0,,,,1253.008264600001,1015,28,male,True,12529,12547,False,False,expiration,expiration
325,103.0,25,M,down,1.4174755999993067,1.082753942618421,,experiment,emotion,0.0,,,,1256.1248234000013,1015,28,male,True,12560,12574,False,False,inspiration,expiration
326,105.0,25,M,down,1.5989007999996832,1.664120660459378,,experiment,emotion,0.0,,,,1259.4913725000004,1015,28,male,True,12594,12610,False,False,inspiration,expiration
327,107.0,25,M,down,1.0797243999986676,1.3662052633476969,,experiment,emotion,0.0,,,,1262.7745778999995,1015,28,male,True,12627,12638,False,False,inspiration,expiration
328,107.0,25,F,up,1.1335097000010137,1.6871323517841783,,experiment,emotion,0.0,,,,1265.8077894000016,1015,28,male,True,12657,12668,False,False,inspiration,peak
329,105.0,25,F,down,1.4619595000003756,1.210653941920618,,experiment,emotion,0.0,,,,1268.4243586000011,1015,28,male,True,12683,12698,False,False,expiration,inspiration
330,103.0,25,M,up,2.1293446999989096,0.7094744250597678,,experiment,emotion,0.0,,,,1270.8909593000024,1015,28,male,True,12708,12729,False,False,expiration,inspiration
331,108.0,25,F,up,0.8254785999997694,1.1682485114638783,,experiment,emotion,0.0,,,,1274.4908185000022,1015,28,male,True,12744,12752,False,False,expiration,expiration
332,108.0,25,F,up,0.6542052999975567,0.9823722666282828,,experiment,emotion,0.0,,,,1276.5740888,1015,28,male,True,12765,12772,False,False,inspiration,peak
333,107.0,25,F,up,0.8906596000015269,1.2511704822142815,,experiment,emotion,0.0,,,,1278.7406298000024,1015,28,male,True,12787,12796,False,False,expiration,inspiration
334,103.0,25,M,,,0.6642449231657761,,experiment,emotion,0.0,,,,1280.5572648000016,1015,28,male,True,12805,0,False,False,expiration,0
335,107.0,25,F,up,0.8022127999975055,1.9467769946530264,,experiment,emotion,0.0,,,,1285.207083100002,1015,28,male,True,12851,12859,False,False,expiration,expiration
336,105.0,25,F,up,0.9091360999991592,0.3362533978067121,,experiment,emotion,0.0,,,,1286.6402111999996,1015,28,male,True,12866,12875,False,False,inspiration,expiration
337,107.0,25,F,up,0.8637299000001804,1.6152589948854188,,experiment,emotion,0.0,,,,1289.4235924999996,1015,28,male,True,12893,12902,False,False,inspiration,inspiration
338,105.0,25,M,down,0.8984302999997453,0.4062884476530965,,experiment,emotion,0.0,,,,1290.9568929000015,1015,28,male,True,12909,12918,False,False,expiration,expiration
339,108.0,25,M,down,0.9425269999992452,1.8398741892806427,,experiment,emotion,0.0,,,,1294.0067774000015,1015,28,male,True,12939,12948,False,False,peak,expiration
340,103.0,25,F,down,0.8653568999980052,1.9435141884693432,,experiment,emotion,0.0,,,,1297.1899718000022,1015,28,male,True,12971,12980,False,False,inspiration,expiration
341,103.0,25,M,down,0.7681888000006438,0.5562850408773915,,experiment,emotion,0.0,,,,1298.8732689000024,1015,28,male,True,12988,12996,False,False,expiration,inspiration
342,107.0,25,F,down,0.8698129999975208,0.5529662749516628,,experiment,emotion,0.0,,,,1300.506534600001,1015,28,male,True,13004,13013,False,False,inspiration,expiration
343,105.0,25,M,down,0.7919221000011021,1.4023522213110289,,experiment,emotion,0.0,,,,1303.0564479000022,1015,28,male,True,13030,13038,False,False,inspiration,inspiration
344,108.0,25,M,down,0.7412981000015861,1.0110064362653823,,experiment,emotion,0.0,,,,1305.1230004999998,1015,28,male,True,13050,13057,False,False,expiration,expiration
345,0.14035536291080053,25,up,up,0.6383100999992166,1.3195657433619383,,experiment,cRDM,1.0,,,,1332.7219970000006,1015,28,male,True,13326,13332,False,False,expiration,expiration
346,0.14035536291080053,25,up,up,1.1240259999976845,1.746984242138898,,experiment,cRDM,1.0,,,,1335.3552756999998,1015,28,male,True,13353,13364,False,False,expiration,inspiration
347,0.14035536291080053,25,down,down,0.8194683000001532,0.5150973413874793,,experiment,cRDM,1.0,,,,1337.2718449000022,1015,28,male,True,13372,13380,False,False,inspiration,expiration
348,0.14035536291080053,25,down,down,1.2055646999979217,1.4583989729383484,,experiment,cRDM,1.0,,,,1339.8217699000015,1015,28,male,True,13398,13410,False,False,inspiration,expiration
349,0.14035536291080053,25,up,up,0.5952987999989999,1.4082891570593146,,experiment,cRDM,1.0,,,,1342.7049909000016,1015,28,male,True,13426,13432,False,False,expiration,inspiration
350,0.14035536291080053,25,down,down,0.6127773000007437,1.2619654879439899,,experiment,cRDM,1.0,,,,1344.821545400002,1015,28,male,True,13447,13453,False,False,expiration,expiration
351,0.14035536291080053,25,up,up,0.6384448000026168,0.8244871364800046,,experiment,cRDM,1.0,,,,1346.5048677000011,1015,28,male,True,13464,13470,False,False,expiration,inspiration
352,0.14035536291080053,25,up,up,0.7081366999991587,1.8799246724097367,,experiment,cRDM,1.0,,,,1349.2880791999996,1015,28,male,True,13492,13499,False,False,expiration,expiration
353,0.14035536291080053,25,down,down,0.6363836000018637,1.9315648138398689,,experiment,cRDM,1.0,,,,1352.1879647000023,1015,28,male,True,13521,13527,False,False,expiration,expiration
354,0.14035536291080053,25,down,down,1.2517671999994489,1.618750660077522,,experiment,cRDM,1.0,,,,1354.7045362000024,1015,28,male,True,13546,13559,False,False,expiration,inspiration
355,0.14035536291080053,25,down,up,0.7095938999991631,1.3813506910100486,,experiment,cRDM,1.0,,,,1357.5877808000005,1015,28,male,True,13575,13582,False,False,expiration,expiration
356,0.14035536291080053,25,down,down,0.7216144999983953,1.4248810425195926,,experiment,cRDM,1.0,,,,1359.9876901000025,1015,28,male,True,13599,13606,False,False,inspiration,expiration
357,0.14035536291080053,25,down,down,0.6943118000017421,0.30209187103712865,,experiment,cRDM,1.0,,,,1361.2709988999995,1015,28,male,True,13612,13619,False,False,expiration,expiration
358,0.14035536291080053,25,down,down,0.8978449999995064,1.5139534930443517,,experiment,cRDM,1.0,,,,1363.7374603000023,1015,28,male,True,13637,13646,False,False,inspiration,expiration
359,0.14035536291080053,25,up,up,0.681911300001957,1.0933453986251078,,experiment,cRDM,1.0,,,,1365.987456900002,1015,28,male,True,13659,13666,False,False,expiration,inspiration
360,0.14035536291080053,25,up,up,0.7382528999987699,1.4159334376298425,,experiment,cRDM,1.0,,,,1368.3540829000012,1015,28,male,True,13683,13690,False,False,expiration,expiration
361,0.14035536291080053,25,up,up,0.9676935999996203,0.5708589881428845,,experiment,cRDM,1.0,,,,1369.920628300002,1015,28,male,True,13698,13708,False,False,trough,inspiration
362,0.14035536291080053,25,up,up,0.7921109999988403,1.8361310279859333,,experiment,cRDM,1.0,,,,1372.9871932000024,1015,28,male,True,13729,13737,False,False,expiration,inspiration
363,0.14035536291080053,25,down,down,0.7031817999995837,0.34367868625437115,,experiment,cRDM,1.0,,,,1374.387157000001,1015,28,male,True,13743,13750,False,False,inspiration,expiration
364,0.14035536291080053,25,up,up,0.6538772000021709,0.8100164360981129,,experiment,cRDM,1.0,,,,1376.1704157999993,1015,28,male,True,13761,13768,False,False,expiration,expiration
365,0.14035536291080053,25,up,up,0.6939612999995006,0.5737377588600173,,experiment,cRDM,1.0,,,,1377.6703784000022,1015,28,male,True,13776,13783,False,False,inspiration,inspiration
366,0.14035536291080053,25,down,down,0.6269745000026887,0.4445131969827895,,experiment,cRDM,1.0,,,,1379.0703317000007,1015,28,male,True,13790,13796,False,False,expiration,expiration
367,0.14035536291080053,25,up,up,0.6683607000013579,1.479837499214542,,experiment,cRDM,1.0,,,,1381.4369259000016,1015,28,male,True,13814,13821,False,False,inspiration,expiration
368,0.14035536291080053,25,down,up,1.5428098000011232,1.1205497786256362,,experiment,cRDM,1.0,,,,1383.5034789000022,1015,28,male,True,13834,13849,False,False,expiration,inspiration
369,0.14035536291080053,25,down,down,0.7339084999985062,1.0495680872572024,,experiment,cRDM,1.0,,,,1386.3533752000005,1015,28,male,True,13863,13870,False,False,expiration,expiration
370,0.14035536291080053,25,up,up,0.7224076999991667,1.1730871356795374,,experiment,cRDM,1.0,,,,1388.5198980000025,1015,28,male,True,13885,13892,False,False,inspiration,expiration
371,0.14035536291080053,25,up,up,0.6821058999994419,1.536533320824404,,experiment,cRDM,1.0,,,,1391.0531996999996,1015,28,male,True,13910,13917,False,False,inspiration,inspiration
372,0.14035536291080053,25,down,down,0.6061845000003814,1.5527716482261318,,experiment,cRDM,1.0,,,,1393.5531207999993,1015,28,male,True,13935,13941,False,False,expiration,expiration
373,0.14035536291080053,25,up,up,0.5336053999999422,1.501235942800924,,experiment,cRDM,1.0,,,,1395.9196852999994,1015,28,male,True,13959,13964,False,False,inspiration,expiration
374,0.14035536291080053,25,down,down,0.4739463999976578,0.7817336335516638,,experiment,cRDM,1.0,,,,1397.4863079000024,1015,28,male,True,13974,13979,False,False,expiration,expiration
375,0.14035536291080053,25,down,down,0.6911132999994152,1.2544195398803897,,experiment,cRDM,1.0,,,,1399.4862281999995,1015,28,male,True,13994,14001,False,False,inspiration,expiration
376,0.14035536291080053,25,down,down,0.5591580000000249,1.5960092901669953,,experiment,cRDM,1.0,,,,1402.036175100002,1015,28,male,True,14020,14026,False,False,inspiration,inspiration
377,0.14035536291080053,25,up,up,0.5415456999980961,0.8467717743858933,,experiment,cRDM,1.0,,,,1403.7027614,1015,28,male,True,14036,14041,False,False,expiration,expiration
378,0.14035536291080053,25,up,up,0.601641400000517,0.6488829400193328,,experiment,cRDM,1.0,,,,1405.152726100001,1015,28,male,True,14051,14057,False,False,trough,inspiration
379,0.14035536291080053,25,up,up,0.5493158999997831,0.5594253761679011,,experiment,cRDM,1.0,,,,1406.5859867000001,1015,28,male,True,14065,14070,False,False,peak,expiration
380,0.14035536291080053,25,down,down,0.5377248000004329,1.0482749004370662,,experiment,cRDM,1.0,,,,1408.4525976000007,1015,28,male,True,14084,14089,False,False,expiration,inspiration
381,0.14035536291080053,25,down,down,0.6154998000019987,1.377219159342383,,experiment,cRDM,1.0,,,,1410.6358073000008,1015,28,male,True,14106,14112,False,False,expiration,expiration
382,0.14035536291080053,25,up,up,1.1039195000012114,1.5300452750617974,,experiment,cRDM,1.0,,,,1413.0524186000002,1015,28,male,True,14130,14141,False,False,inspiration,expiration
383,0.14035536291080053,25,down,down,0.5820229999990261,1.3773915670717134,,experiment,cRDM,1.0,,,,1415.8022888000016,1015,28,male,True,14157,14163,False,False,inspiration,inspiration
384,0.14035536291080053,25,up,up,0.5477535999998508,1.6295603534803575,,experiment,cRDM,1.0,,,,1418.2855498000024,1015,28,male,True,14182,14187,False,False,expiration,inspiration
385,0.14035536291080053,25,up,up,0.5444783999992069,0.7629023996600324,,experiment,cRDM,1.0,,,,1419.8688183000013,1015,28,male,True,14198,14203,False,False,inspiration,peak
386,0.14035536291080053,25,up,up,0.5819396999977471,1.7589834044481418,,experiment,cRDM,1.0,,,,1422.4353551999993,1015,28,male,True,14224,14230,False,False,trough,inspiration
387,0.14035536291080053,25,down,down,0.5442671999990125,1.7186142167634813,,experiment,cRDM,1.0,,,,1425.0020207000016,1015,28,male,True,14249,14254,False,False,expiration,expiration
388,0.14035536291080053,25,down,up,0.7307586000024457,1.3014447641708955,,experiment,cRDM,1.0,,,,1427.1185471000024,1015,28,male,True,14270,14277,False,False,inspiration,expiration
389,0.14035536291080053,25,up,up,0.6214413999987299,0.3517536576813929,,experiment,cRDM,1.0,,,,1428.4518649000022,1015,28,male,True,14284,14290,False,False,expiration,expiration
390,0.14035536291080053,25,down,down,0.5978692999997293,0.4715037865595394,,experiment,cRDM,1.0,,,,1429.8184366999994,1015,28,male,True,14297,14303,False,False,inspiration,inspiration
391,0.14035536291080053,25,down,down,1.6416342000011357,1.2403386730564274,,experiment,cRDM,1.0,,,,1431.9017126,1015,28,male,True,14318,14334,False,False,expiration,inspiration
392,0.14035536291080053,25,up,up,0.8837000999992597,0.6819840501104248,,experiment,cRDM,1.0,,,,1434.5016025000007,1015,28,male,True,14344,14353,False,False,peak,expiration
393,0.14035536291080053,25,up,up,0.6977403000018967,1.1020742661193106,,experiment,cRDM,1.0,,,,1436.7515722000023,1015,28,male,True,14367,14374,False,False,inspiration,inspiration
394,0.14035536291080053,25,down,down,0.6522374999985914,1.9039323853463916,,experiment,cRDM,1.0,,,,1439.6180698999995,1015,28,male,True,14395,14402,False,False,expiration,inspiration
395,0.14035536291080053,25,up,up,0.7239346000023943,1.305112008658257,,experiment,cRDM,1.0,,,,1441.8513783000014,1015,28,male,True,14418,14425,False,False,expiration,expiration
396,0.14035536291080053,25,down,down,0.6867139999994833,1.3364357166870613,,experiment,cRDM,1.0,,,,1444.1845918,1015,28,male,True,14441,14448,False,False,inspiration,inspiration
397,0.14035536291080053,25,down,down,0.6444926999974996,1.9808153485625308,,experiment,cRDM,1.0,,,,1447.1178108000022,1015,28,male,True,14471,14477,False,False,expiration,inspiration
398,0.14035536291080053,25,down,down,0.7685617999995884,0.5378479524578699,,experiment,cRDM,1.0,,,,1448.5677409000018,1015,28,male,True,14485,14493,False,False,inspiration,expiration
399,0.14035536291080053,25,up,up,0.9739110999980768,0.6192922581169356,,experiment,cRDM,1.0,,,,1450.234392800001,1015,28,male,True,14502,14512,False,False,expiration,expiration
400,0.14035536291080053,25,up,up,1.1388761999987764,1.6516552669875724,,experiment,cRDM,1.0,,,,1453.1174618000007,1015,28,male,True,14531,14542,False,False,expiration,expiration
401,0.14035536291080053,25,down,down,0.6770008000021335,1.0958483808493424,,experiment,cRDM,1.0,,,,1455.6173928999995,1015,28,male,True,14556,14563,False,False,inspiration,peak
402,0.14035536291080053,25,down,down,0.6765644999977667,0.7584192760882567,,experiment,cRDM,1.0,,,,1457.3007682999994,1015,28,male,True,14572,14579,False,False,expiration,expiration
403,0.14035536291080053,25,up,up,0.7532761999973445,1.0506596800299368,,experiment,cRDM,1.0,,,,1459.284036600002,1015,28,male,True,14592,14600,False,False,inspiration,expiration
404,0.14035536291080053,25,up,up,0.9741056000020762,1.812062874088905,,experiment,cRDM,1.0,,,,1462.1171869000027,1015,28,male,True,14621,14631,False,False,inspiration,expiration
405,0.14035536291080053,25,up,up,0.9098220000014408,0.5620548815458687,,experiment,cRDM,1.0,,,,1463.900521300002,1015,28,male,True,14638,14647,False,False,expiration,expiration
406,0.14035536291080053,25,up,up,0.7052050000020245,1.7544823434605137,,experiment,cRDM,1.0,,,,1466.8170998999994,1015,28,male,True,14668,14675,False,False,expiration,expiration
407,0.14035536291080053,25,up,up,0.6649767000017164,0.7263862674390191,,experiment,cRDM,1.0,,,,1468.5003240000005,1015,28,male,True,14684,14691,False,False,trough,inspiration
408,0.14035536291080053,25,down,down,0.5906993999997212,0.9008464162365426,,experiment,cRDM,1.0,,,,1470.3336679000022,1015,28,male,True,14703,14709,False,False,expiration,expiration
409,0.14035536291080053,25,down,down,0.6264133999975456,0.4853952939824476,,experiment,cRDM,1.0,,,,1471.6669146000022,1015,28,male,True,14716,14722,False,False,expiration,inspiration
410,0.14035536291080053,25,up,up,0.6371448000027158,1.3475186591162385,,experiment,cRDM,1.0,,,,1473.9001673999994,1015,28,male,True,14738,14744,False,False,expiration,expiration
411,0.14035536291080053,25,down,down,0.5285524000028089,0.974766440224072,,experiment,cRDM,1.0,,,,1475.7667618000016,1015,28,male,True,14757,14762,False,False,inspiration,inspiration
412,0.14035536291080053,25,down,up,0.6776251000010234,0.8938443658614705,,experiment,cRDM,1.0,,,,1477.4666902999998,1015,28,male,True,14774,14781,False,False,expiration,expiration
413,0.14035536291080053,25,down,down,0.6287254000017128,1.8651322134936517,,experiment,cRDM,1.0,,,,1480.2666042000021,1015,28,male,True,14802,14808,False,False,expiration,expiration
414,0.14035536291080053,25,up,up,0.5714593999982753,0.5281481437509771,,experiment,cRDM,1.0,,,,1481.6998936000018,1015,28,male,True,14816,14822,False,False,expiration,inspiration
415,0.14035536291080053,25,down,down,0.5792423999992025,1.8559220946446335,,experiment,cRDM,1.0,,,,1484.3831081000023,1015,28,male,True,14843,14849,False,False,expiration,expiration
416,0.14035536291080053,25,down,down,0.6395995999992011,1.8236499313511432,,experiment,cRDM,1.0,,,,1487.0497140000007,1015,28,male,True,14870,14876,False,False,peak,expiration
417,0.14035536291080053,25,down,down,0.5106900999999198,0.34427340820924474,,experiment,cRDM,1.0,,,,1488.299624700001,1015,28,male,True,14882,14887,False,False,expiration,expiration
418,0.14035536291080053,25,up,up,0.5878101000016613,1.6778427689596442,,experiment,cRDM,1.0,,,,1490.7495455999995,1015,28,male,True,14907,14913,False,False,expiration,expiration
419,0.14035536291080053,25,up,up,0.6652225999969232,1.2145864101493973,,experiment,cRDM,1.0,,,,1492.8161515999998,1015,28,male,True,14927,14934,False,False,inspiration,inspiration
420,0.14035536291080053,25,down,down,0.5929256000017631,1.1942829780999131,,experiment,cRDM,1.0,,,,1494.9494424000006,1015,28,male,True,14949,14955,False,False,expiration,expiration
421,0.14035536291080053,25,up,up,0.6604019999977027,1.3174258001598271,,experiment,cRDM,1.0,,,,1497.1159641000013,1015,28,male,True,14970,14977,False,False,inspiration,expiration
422,0.14035536291080053,25,down,down,0.5158292999985861,1.840257138348003,,experiment,cRDM,1.0,,,,1499.8825365000012,1015,28,male,True,14998,15003,False,False,inspiration,inspiration
423,0.14035536291080053,25,up,up,0.6898560000008729,1.71548483180022,,experiment,cRDM,1.0,,,,1502.3824511999994,1015,28,male,True,15023,15030,False,False,expiration,trough
424,0.14035536291080053,25,up,up,0.8376257000018086,1.0814922076905715,,experiment,cRDM,1.0,,,,1504.4156871000016,1015,28,male,True,15043,15051,False,False,inspiration,expiration
425,108.0,25,M,up,1.9298090999982376,0.726645826440265,,experiment,emotion,1.0,,,,1519.0985065999994,1015,28,male,True,15190,15209,False,False,expiration,inspiration
426,105.0,25,M,up,0.8108957000004011,0.6131938735736921,,experiment,emotion,1.0,,,,1521.9484169999994,1015,28,male,True,15219,15227,False,False,inspiration,expiration
427,107.0,25,F,down,1.5313084999979765,1.7502429211720814,,experiment,emotion,1.0,,,,1524.8149995000022,1015,28,male,True,15248,15263,False,False,inspiration,expiration
428,103.0,25,F,down,1.2021144999998796,0.826561448166766,,experiment,emotion,1.0,,,,1527.4482005000027,1015,28,male,True,15274,15286,False,False,trough,peak
429,103.0,25,M,down,0.9438861999988148,1.3148534270716885,,experiment,emotion,1.0,,,,1530.2314246999995,1015,28,male,True,15302,15311,False,False,expiration,inspiration
430,107.0,25,F,down,0.9330636000013328,0.9457286089420648,,experiment,emotion,1.0,,,,1532.3813582000002,1015,28,male,True,15323,15332,False,False,expiration,expiration
431,105.0,25,M,down,0.9634202000015648,1.70782154540849,,experiment,emotion,1.0,,,,1535.2978976000013,1015,28,male,True,15352,15362,False,False,peak,expiration
432,108.0,25,M,down,0.8198588999985077,1.11226606311311,,experiment,emotion,1.0,,,,1537.664484500001,1015,28,male,True,15376,15384,False,False,inspiration,peak
433,103.0,25,F,down,1.601945099999284,0.6719600687548087,,experiment,emotion,1.0,,,,1539.4143600000025,1015,28,male,True,15394,15410,False,False,expiration,inspiration
434,107.0,25,F,down,1.0327026000013575,1.9679854257770464,,experiment,emotion,1.0,,,,1543.2476414000012,1015,28,male,True,15432,15442,False,False,expiration,inspiration
435,107.0,25,F,down,0.8560728000011295,0.9225237662520444,,experiment,emotion,1.0,,,,1545.4642301000022,1015,28,male,True,15454,15463,False,False,expiration,expiration
436,103.0,25,F,down,1.0422005000000354,1.1740838263684223,,experiment,emotion,1.0,,,,1547.7641177000005,1015,28,male,True,15477,15487,False,False,inspiration,inspiration
437,105.0,25,F,down,0.7439822000014829,1.1540772631326486,,experiment,emotion,1.0,,,,1550.2473594000005,1015,28,male,True,15502,15509,False,False,expiration,trough
438,105.0,25,F,down,0.8416985999974713,1.210496620242104,,experiment,emotion,1.0,,,,1552.4806138999993,1015,28,male,True,15524,15532,False,False,expiration,expiration
439,108.0,25,M,down,0.8264760000020033,0.6805761939904493,,experiment,emotion,1.0,,,,1554.3138645,1015,28,male,True,15543,15551,False,False,trough,inspiration
440,108.0,25,M,up,0.8507427000004101,0.3931404100671241,,experiment,emotion,1.0,,,,1555.8138263,1015,28,male,True,15557,15566,False,False,peak,expiration
441,107.0,25,M,down,1.2029589999983727,1.4523958418943117,,experiment,emotion,1.0,,,,1558.4303177000004,1015,28,male,True,15584,15596,False,False,inspiration,expiration
442,107.0,25,M,up,1.057428299998719,1.9982969731595648,,experiment,emotion,1.0,,,,1561.8969408000012,1015,28,male,True,15618,15629,False,False,inspiration,expiration
443,103.0,25,F,up,1.194258700001228,1.7543796152248652,,experiment,emotion,1.0,,,,1565.0300951999998,1015,28,male,True,15650,15662,False,False,inspiration,inspiration
444,108.0,25,M,up,1.0386894999974174,1.6594657238754018,,experiment,emotion,1.0,,,,1568.1967041000025,1015,28,male,True,15681,15691,False,False,expiration,inspiration
445,105.0,25,M,up,0.8256752999986929,0.8100508867881568,,experiment,emotion,1.0,,,,1570.3466358000005,1015,28,male,True,15703,15711,False,False,inspiration,expiration
446,108.0,25,F,up,1.286082800001168,0.7666815479112887,,experiment,emotion,1.0,,,,1572.2132165000005,1015,28,male,True,15721,15734,False,False,expiration,inspiration
447,105.0,25,M,down,0.9334789000022284,0.4045949870616439,,experiment,emotion,1.0,,,,1574.1798393999998,1015,28,male,True,15741,15750,False,False,expiration,expiration
448,103.0,25,F,down,1.2724439000012353,1.132117341400768,,experiment,emotion,1.0,,,,1576.5128685000018,1015,28,male,True,15765,15778,False,False,inspiration,expiration
449,108.0,25,F,down,1.1526241999999909,1.019326183731727,,experiment,emotion,1.0,,,,1579.0796499999994,1015,28,male,True,15790,15802,False,False,inspiration,inspiration
450,103.0,25,M,down,0.9211224999999104,0.5073313349736872,,experiment,emotion,1.0,,,,1580.9962314000006,1015,28,male,True,15809,15818,False,False,expiration,expiration
451,103.0,25,M,down,1.0225454999999783,1.6343192289604038,,experiment,emotion,1.0,,,,1583.8127703000027,1015,28,male,True,15837,15847,False,False,expiration,expiration
452,108.0,25,F,down,0.8049272999996901,1.2263894463298195,,experiment,emotion,1.0,,,,1586.3293716000005,1015,28,male,True,15863,15871,False,False,inspiration,expiration
453,107.0,25,M,down,0.7964165999983379,1.2049503315412162,,experiment,emotion,1.0,,,,1588.6459701999993,1015,28,male,True,15886,15894,False,False,trough,inspiration
454,107.0,25,F,down,0.9127919999991718,0.7607942243550236,,experiment,emotion,1.0,,,,1590.4625646000022,1015,28,male,True,15904,15913,False,False,expiration,expiration
455,105.0,25,F,down,1.4042232000028891,1.689473031959496,,experiment,emotion,1.0,,,,1593.3791152000013,1015,28,male,True,15933,15947,False,False,expiration,expiration
456,105.0,25,F,down,1.2710234000005585,1.6044111125826868,,experiment,emotion,1.0,,,,1596.6623226000008,1015,28,male,True,15966,15979,False,False,peak,expiration
457,107.0,25,M,down,1.0618065999988175,1.04763552432263,,experiment,emotion,1.0,,,,1599.2455678000006,1015,28,male,True,15992,16003,False,False,inspiration,expiration
458,108.0,25,M,up,1.8526508999966609,0.5372538445604342,,experiment,emotion,1.0,,,,1601.1288596000013,1015,28,male,True,16011,16030,False,False,expiration,inspiration
459,105.0,25,M,up,1.1585911000001945,0.8266396864300198,,experiment,emotion,1.0,,,,1604.0787225000022,1015,28,male,True,16040,16052,False,False,expiration,trough
460,107.0,25,F,up,1.3810518000027514,1.5438772760171682,,experiment,emotion,1.0,,,,1607.0452692,1015,28,male,True,16070,16084,False,False,expiration,expiration
461,108.0,25,F,up,1.152194300000701,1.1903378076469344,,experiment,emotion,1.0,,,,1609.895161700002,1015,28,male,True,16098,16110,False,False,inspiration,expiration
462,105.0,25,M,down,0.8738616000009642,0.3153529734513563,,experiment,emotion,1.0,,,,1611.6284536999995,1015,28,male,True,16116,16125,False,False,expiration,inspiration
463,103.0,25,F,down,1.3622808000000075,0.9629820271049534,,experiment,emotion,1.0,,,,1613.7450356000006,1015,28,male,True,16137,16151,False,False,expiration,inspiration
464,103.0,25,M,down,1.3690796000009868,1.5901597527065103,,experiment,emotion,1.0,,,,1616.9782392000016,1015,28,male,True,16169,16183,False,False,expiration,expiration
465,107.0,25,M,up,1.4284780000016326,0.5887655595349073,,experiment,emotion,1.0,,,,1619.1948379999994,1015,28,male,True,16191,16205,False,False,inspiration,expiration
466,108.0,25,M,up,1.3456513999990418,1.4492698834612063,,experiment,emotion,1.0,,,,1622.3947145000022,1015,28,male,True,16223,16236,False,False,inspiration,expiration
467,107.0,25,F,up,1.4856558999999834,0.42158737829486936,,experiment,emotion,1.0,,,,1624.4446606000022,1015,28,male,True,16244,16259,False,False,expiration,inspiration
468,103.0,25,F,down,0.8451160000004165,0.71076614083499,,experiment,emotion,1.0,,,,1626.911201400002,1015,28,male,True,16268,16276,False,False,expiration,expiration
469,108.0,25,M,,,1.5785498691117044,,experiment,emotion,1.0,,,,1629.5944581000006,1015,28,male,True,16295,0,False,False,expiration,0
470,105.0,25,F,down,0.9956738000000768,0.6492647229990615,,experiment,emotion,1.0,,,,1632.9776493999998,1015,28,male,True,16329,16339,False,False,inspiration,expiration
471,103.0,25,F,down,1.2840532999980496,0.3903667493051712,,experiment,emotion,1.0,,,,1634.6442592000021,1015,28,male,True,16346,16359,False,False,expiration,inspiration
472,105.0,25,M,down,0.9439610000008544,0.4349479742133119,,experiment,emotion,1.0,,,,1636.6273944000022,1015,28,male,True,16366,16375,False,False,expiration,expiration
473,105.0,25,M,down,1.0572186999997941,1.8523935205199988,,experiment,emotion,1.0,,,,1639.6941024000007,1015,28,male,True,16396,16407,False,False,peak,expiration
474,105.0,25,F,down,0.9816781000008632,1.1978043344670797,,experiment,emotion,1.0,,,,1642.2106305000016,1015,28,male,True,16421,16431,False,False,inspiration,expiration
475,103.0,25,M,down,1.0861246999993457,1.6194445061612908,,experiment,emotion,1.0,,,,1645.0771965999993,1015,28,male,True,16450,16461,False,False,expiration,inspiration
476,107.0,25,F,down,1.0293558999983359,1.8570304907042656,,experiment,emotion,1.0,,,,1648.3269691000025,1015,28,male,True,16483,16493,False,False,expiration,inspiration
477,108.0,25,F,down,0.9946731999989424,0.952208743542641,,experiment,emotion,1.0,,,,1650.5936674000006,1015,28,male,True,16505,16515,False,False,inspiration,expiration
478,107.0,25,F,down,1.3701017000021238,1.9983694895892399,,experiment,emotion,1.0,,,,1653.8602283,1015,28,male,True,16538,16552,False,False,inspiration,expiration
479,103.0,25,M,down,1.2572181999967142,0.7149536149287509,,experiment,emotion,1.0,,,,1656.2101344000002,1015,28,male,True,16562,16575,False,False,inspiration,expiration
480,108.0,25,M,up,1.1653427000019292,1.9179935981608882,,experiment,emotion,1.0,,,,1659.6600247000024,1015,28,male,True,16596,16608,False,False,inspiration,expiration
481,103.0,25,F,down,1.1070859999999811,1.5051998268130333,,experiment,emotion,1.0,,,,1662.5932218000016,1015,28,male,True,16625,16636,False,False,inspiration,expiration
482,108.0,25,F,down,1.3957951000011235,1.0710661830230186,,experiment,emotion,1.0,,,,1665.0264903999994,1015,28,male,True,16650,16664,False,False,trough,peak
483,108.0,25,M,down,0.8870833000000857,0.4186056135999863,,experiment,emotion,1.0,,,,1667.1264076000007,1015,28,male,True,16671,16680,False,False,expiration,expiration
484,105.0,25,M,down,1.231025600001885,1.9941776247937908,,experiment,emotion,1.0,,,,1670.3262966000002,1015,28,male,True,16703,16715,False,False,expiration,expiration
485,103.0,25,M,down,1.027775799997471,0.8336801398768041,,experiment,emotion,1.0,,,,1672.6595447,1015,28,male,True,16726,16736,False,False,inspiration,expiration
486,105.0,25,M,down,1.0818862000014633,1.70571767782888,,experiment,emotion,1.0,,,,1675.659450700001,1015,28,male,True,16756,16767,False,False,inspiration,expiration
487,107.0,25,M,down,0.968008899999404,1.5099170753811813,,experiment,emotion,1.0,,,,1678.5593140000021,1015,28,male,True,16785,16795,False,False,inspiration,peak
488,107.0,25,F,down,1.0964368999993894,0.9880558417674798,,experiment,emotion,1.0,,,,1680.7759045999994,1015,28,male,True,16807,16818,False,False,expiration,inspiration
489,105.0,25,F,down,1.6618575000029523,1.8891037102502424,,experiment,emotion,1.0,,,,1684.0424676000002,1015,28,male,True,16840,16857,False,False,expiration,inspiration
490,103.0,25,M,down,1.1416876999974193,0.8777853311787571,,experiment,emotion,1.0,,,,1686.875685400002,1015,28,male,True,16868,16879,False,False,expiration,inspiration
491,108.0,25,F,down,0.9467884000005142,1.9369087509232985,,experiment,emotion,1.0,,,,1690.2755450000006,1015,28,male,True,16902,16911,False,False,expiration,inspiration
492,108.0,25,F,up,1.0579830999995463,0.8308528678373055,,experiment,emotion,1.0,,,,1692.3253751000009,1015,28,male,True,16923,16934,False,False,expiration,expiration
493,107.0,25,F,up,0.9766531999994186,1.0541671980003624,,experiment,emotion,1.0,,,,1694.7087192000001,1015,28,male,True,16946,16956,False,False,inspiration,expiration
494,103.0,25,M,up,2.106333200001245,0.9886034161170519,,experiment,emotion,1.0,,,,1696.9419873000006,1015,28,male,True,16969,16990,False,False,expiration,expiration
495,107.0,25,F,up,1.2921669999996084,1.5110918507403484,,experiment,emotion,1.0,,,,1700.8251134999994,1015,28,male,True,17008,17021,False,False,inspiration,expiration
496,105.0,25,F,down,1.1322366999993392,0.6640668213847549,,experiment,emotion,1.0,,,,1703.0750900999994,1015,28,male,True,17030,17041,False,False,expiration,inspiration
497,107.0,25,F,down,1.202312700002949,1.6404548851694811,,experiment,emotion,1.0,,,,1706.1082951000024,1015,28,male,True,17060,17072,False,False,expiration,inspiration
498,105.0,25,M,down,1.2735611999996763,1.500627689484998,,experiment,emotion,1.0,,,,1709.0748660999998,1015,28,male,True,17090,17103,False,False,expiration,expiration
499,108.0,25,M,down,1.003881700002239,0.9521584070169422,,experiment,emotion,1.0,,,,1711.5914515000006,1015,28,male,True,17115,17125,False,False,inspiration,expiration
500,103.0,25,F,down,0.9646138999996764,0.8752900116914779,,experiment,emotion,1.0,,,,1713.774718100001,1015,28,male,True,17137,17147,False,False,expiration,inspiration
501,103.0,25,M,down,0.9113724999988336,1.6432215188742558,,experiment,emotion,1.0,,,,1716.6579259000027,1015,28,male,True,17166,17175,False,False,expiration,trough
502,107.0,25,F,down,0.952673199997662,1.7267706158973706,,experiment,emotion,1.0,,,,1719.6076687999994,1015,28,male,True,17196,17206,False,False,expiration,expiration
503,105.0,25,M,up,1.2352725000018836,0.5973747952988786,,experiment,emotion,1.0,,,,1721.4410835000015,1015,28,male,True,17214,17226,False,False,inspiration,expiration
504,108.0,25,M,up,0.9280140999981086,1.3194366224442582,,experiment,emotion,1.0,,,,1724.2742997000025,1015,28,male,True,17242,17251,False,False,inspiration,inspiration
505,0.14035536291080053,25,up,up,0.846937499998603,0.7816704283613294,,experiment,cRDM,2.0,,,,1747.5734520000005,1015,28,male,True,17475,17483,False,False,expiration,expiration
506,0.14035536291080053,25,up,up,0.6069810000008147,1.287012550105127,,experiment,cRDM,2.0,,,,1749.9733664000016,1015,28,male,True,17499,17505,False,False,inspiration,inspiration
507,0.14035536291080053,25,down,down,0.6450957000015478,1.828660923708153,,experiment,cRDM,2.0,,,,1752.6732764000005,1015,28,male,True,17526,17532,False,False,expiration,inspiration
508,0.14035536291080053,25,down,down,0.912481499999558,1.3405843844635326,,experiment,cRDM,2.0,,,,1754.9398457000025,1015,28,male,True,17549,17558,False,False,expiration,inspiration
509,0.14035536291080053,25,up,up,0.7212371999994502,0.9597017164973868,,experiment,cRDM,2.0,,,,1757.0731226999994,1015,28,male,True,17570,17577,False,False,inspiration,inspiration
510,0.14035536291080053,25,down,down,0.7482426999995369,0.3802394951364503,,experiment,cRDM,2.0,,,,1758.4230862000006,1015,28,male,True,17584,17591,False,False,expiration,expiration
511,0.14035536291080053,25,up,up,0.6867055000002438,1.9512409952887155,,experiment,cRDM,2.0,,,,1761.3895929000028,1015,28,male,True,17613,17620,False,False,inspiration,expiration
512,0.14035536291080053,25,up,up,0.6840970999983256,0.9799883601235256,,experiment,cRDM,2.0,,,,1763.3062009000025,1015,28,male,True,17633,17640,False,False,expiration,expiration
513,0.14035536291080053,25,down,down,0.5681602000004204,0.8709979829565009,,experiment,cRDM,2.0,,,,1765.1061642999994,1015,28,male,True,17651,17657,False,False,inspiration,inspiration
514,0.14035536291080053,25,down,down,0.63991100000203,0.4111585044423248,,experiment,cRDM,2.0,,,,1766.3394322999993,1015,28,male,True,17663,17669,False,False,expiration,expiration
515,0.14035536291080053,25,down,up,0.7413538000000699,0.36388468987854944,,experiment,cRDM,2.0,,,,1767.6059707000022,1015,28,male,True,17676,17683,False,False,expiration,inspiration
516,0.14035536291080053,25,down,up,1.1887242000011609,0.9573911248807884,,experiment,cRDM,2.0,,,,1769.5726505999994,1015,28,male,True,17695,17707,False,False,expiration,expiration
517,0.14035536291080053,25,down,down,0.5741357999977481,1.2620760527025454,,experiment,cRDM,2.0,,,,1772.2892132000015,1015,28,male,True,17722,17728,False,False,inspiration,inspiration
518,0.14035536291080053,25,down,down,0.6291468000017629,1.120350558633887,,experiment,cRDM,2.0,,,,1774.2391860000025,1015,28,male,True,17742,17748,False,False,expiration,expiration
519,0.14035536291080053,25,up,up,0.5712380000004487,0.8167054469334949,,experiment,cRDM,2.0,,,,1775.9390912000015,1015,28,male,True,17759,17765,False,False,inspiration,inspiration
520,0.14035536291080053,25,up,up,0.685307699997793,0.7025893704079413,,experiment,cRDM,2.0,,,,1777.4890248000008,1015,28,male,True,17774,17781,False,False,expiration,expiration
521,0.14035536291080053,25,up,up,0.6933901000011247,1.0026519305197812,,experiment,cRDM,2.0,,,,1779.4389625000006,1015,28,male,True,17794,17801,False,False,inspiration,inspiration
522,0.14035536291080053,25,up,up,1.1944734999997308,1.1886514202739031,,experiment,cRDM,2.0,,,,1781.5888718999993,1015,28,male,True,17815,17827,False,False,expiration,expiration
523,0.14035536291080053,25,down,down,0.528920200002176,1.0263374849395497,,experiment,cRDM,2.0,,,,1784.0554503000021,1015,28,male,True,17840,17845,False,False,inspiration,expiration
524,0.14035536291080053,25,up,up,0.5892685999970126,0.5240030945145198,,experiment,cRDM,2.0,,,,1785.372067100001,1015,28,male,True,17853,17859,False,False,expiration,expiration
525,0.14035536291080053,25,up,up,0.9156598000008672,1.901853742794224,,experiment,cRDM,2.0,,,,1788.1387015,1015,28,male,True,17881,17890,False,False,expiration,expiration
526,0.14035536291080053,25,down,down,0.6381303000016487,1.1303049847221065,,experiment,cRDM,2.0,,,,1790.4552105000002,1015,28,male,True,17904,17910,False,False,inspiration,inspiration
527,0.14035536291080053,25,up,up,0.5638051999994786,0.6783779731657056,,experiment,cRDM,2.0,,,,1792.0385234000025,1015,28,male,True,17920,17926,False,False,peak,expiration
528,0.14035536291080053,25,down,down,0.5483100999990711,1.3911785751231067,,experiment,cRDM,2.0,,,,1794.2550714000024,1015,28,male,True,17942,17947,False,False,trough,inspiration
529,0.14035536291080053,25,down,down,0.610691300000326,0.9068048767615732,,experiment,cRDM,2.0,,,,1795.9717085000011,1015,28,male,True,17959,17965,False,False,inspiration,expiration
530,0.14035536291080053,25,up,up,0.622086200000922,1.6348811926303783,,experiment,cRDM,2.0,,,,1798.4882538000022,1015,28,male,True,17984,17990,False,False,inspiration,inspiration
531,0.14035536291080053,25,up,up,0.7558380999980727,1.591671319916479,,experiment,cRDM,2.0,,,,1800.9714908000024,1015,28,male,True,18009,18017,False,False,expiration,expiration
532,0.14035536291080053,25,down,down,0.6749119000014616,1.837181421165448,,experiment,cRDM,2.0,,,,1803.8214179000024,1015,28,male,True,18038,18045,False,False,expiration,expiration
533,0.14035536291080053,25,up,up,0.7119858999976714,1.6748928184588487,,experiment,cRDM,2.0,,,,1806.4213495000006,1015,28,male,True,18064,18071,False,False,inspiration,expiration
534,0.14035536291080053,25,down,down,0.6984821999976703,0.6229206358549181,,experiment,cRDM,2.0,,,,1808.0379156000015,1015,28,male,True,18080,18087,False,False,expiration,expiration
535,0.14035536291080053,25,down,down,0.8489488999985042,1.1143017665560095,,experiment,cRDM,2.0,,,,1810.1043635000024,1015,28,male,True,18101,18109,False,False,inspiration,expiration
