,stimLvl,stimTime,rand,response,rt,precedingITI,trialNumber,trialType,stimuli,block,estIntens,estThres,estSlope,trialStart,subject,age,gender,headRest,onset,responsI,manBadOnset,manBadRespons,onset_phase,respons_phase
0,0.9,100,down,,,1.7150762767298977,,introTrial,cRDM,,,,,319.0806733999998,1016,26,female,True,3190,0,False,False,expiration,0
1,150.0,100,F,,,1.2039892370203515,,introTrial,emotion,,,,,324.26382920000106,1016,26,female,True,3241,0,False,False,inspiration,0
2,200.0,25,M,up,0.6443275999990874,0.8876641362813913,,tutorial,emotion,,,,,352.3961406000017,1016,26,female,True,3523,3529,False,False,inspiration,expiration
3,200.0,25,M,up,0.6863588000014715,0.7301360344557328,,tutorial,emotion,,,,,354.0460684999998,1016,26,female,True,3539,3546,False,False,expiration,inspiration
4,200.0,25,M,up,0.4857237999967765,0.3335289529046874,,tutorial,emotion,,,,,355.36270109999896,1016,26,female,True,3553,3558,False,False,inspiration,expiration
5,0.0,25,F,down,0.42947369999819773,1.070009130488894,,tutorial,emotion,,,,,357.2459577000008,1016,26,female,True,3571,3575,False,False,expiration,inspiration
6,0.0,25,M,down,0.3835363999969559,0.6328934133510526,,tutorial,emotion,,,,,358.57926640000005,1016,26,female,True,3585,3589,False,False,peak,expiration
7,200.0,25,F,up,1.0362821999988228,1.8544698669620332,,tutorial,emotion,,,,,361.1291794999997,1016,26,female,True,3610,3620,False,False,inspiration,expiration
8,0.0,25,F,down,0.3334614999985206,1.1974009625648483,,tutorial,emotion,,,,,363.62909159999987,1016,26,female,True,3635,3638,False,False,expiration,trough
9,200.0,25,M,up,0.4002687000029255,0.6324693029097546,,tutorial,emotion,,,,,364.96228770000016,1016,26,female,True,3649,3653,False,False,inspiration,expiration
10,0.0,25,F,down,0.8361162000001059,1.2536198772748064,,tutorial,emotion,,,,,366.9122849000014,1016,26,female,True,3668,3676,False,False,expiration,inspiration
11,0.0,25,F,down,0.7312867000000551,1.3353336677514385,,tutorial,emotion,,,,,369.3621786000003,1016,26,female,True,3693,3700,False,False,expiration,inspiration
12,0.9,25,up,up,0.7464791999991576,0.7605803431482716,,tutorial,cRDM,,,,,377.41188770000014,1016,26,female,True,3773,3780,False,False,trough,inspiration
13,0.9,25,up,up,0.8319001000018034,1.4425133984560528,,tutorial,cRDM,,,,,379.87850660000186,1016,26,female,True,3798,3806,False,False,expiration,inspiration
14,0.9,25,down,down,0.3837942999998632,0.6152244985867512,,tutorial,cRDM,,,,,381.611757900002,1016,26,female,True,3815,3819,False,False,expiration,expiration
15,0.9,25,down,down,0.38384249999944586,1.16109112312365,,tutorial,cRDM,,,,,383.478372900001,1016,26,female,True,3834,3838,False,False,inspiration,expiration
16,0.9,25,up,up,0.6070601999999781,0.8771306108653512,,tutorial,cRDM,,,,,385.0615700999988,1016,26,female,True,3850,3856,False,False,inspiration,inspiration
17,0.9,25,down,down,1.047165899999527,0.7404257583209951,,tutorial,cRDM,,,,,386.6782114000016,1016,26,female,True,3866,3876,False,False,expiration,expiration
18,0.9,25,up,up,0.5352979999988747,1.568177840216797,,tutorial,cRDM,,,,,389.5781257000017,1016,26,female,True,3895,3900,False,False,expiration,expiration
19,0.9,25,up,down,1.7088909999984023,0.35414829499183115,,tutorial,cRDM,,,,,390.744729500002,1016,26,female,True,3906,3923,False,False,expiration,expiration
20,0.9,25,down,down,0.940434500000265,0.3962639467758191,,tutorial,cRDM,,,,,393.1279955999999,1016,26,female,True,3930,3939,False,False,expiration,expiration
21,0.9,25,down,down,0.8568947999992815,1.0197488560987664,,tutorial,cRDM,,,,,395.36149120000124,1016,26,female,True,3953,3962,False,False,inspiration,expiration
22,100.0,25,M,down,0.4682615999990958,0.4688877517430259,,psi_staircase_training,emotion,,100.0,100.0,25.00050000000001,406.0441720999988,1016,26,female,True,4059,4064,False,False,expiration,expiration
23,145.0,25,M,up,0.3835132000021986,0.8851237598389623,,psi_staircase_training,emotion,,145.25719053245996,145.25719053245996,25.000500000000283,407.7440869999992,1016,26,female,True,4076,4080,False,False,inspiration,expiration
24,121.0,25,F,down,0.40022989999852143,1.2873289728007915,,psi_staircase_training,emotion,,120.36392901436103,120.36392901436103,25.71326925488699,409.81069840000055,1016,26,female,True,4097,4101,False,False,expiration,inspiration
25,137.0,25,F,up,0.5138756999986072,1.7093565866593141,,psi_staircase_training,emotion,,137.8359832966118,137.8359832966118,25.292325986285494,412.3106085,1016,26,female,True,4122,4127,False,False,inspiration,inspiration
26,127.0,25,M,up,0.7302925000003597,1.7342362451319508,,psi_staircase_training,emotion,,126.46069055808249,126.46069055808249,23.649751085611292,414.9271668000002,1016,26,female,True,4148,4155,False,False,expiration,inspiration
27,113.0,25,F,up,0.6063066000024264,1.0544498346351785,,psi_staircase_training,emotion,,117.5164469811675,117.5164469811675,24.576174135130763,417.0771246000004,1016,26,female,True,4170,4176,False,False,expiration,inspiration
28,94.0,25,M,up,0.5597758000003523,0.7130764226828401,,psi_staircase_training,emotion,,106.52678028801836,106.52678028801836,30.115701177201284,418.7606312999997,1016,26,female,True,4187,4193,False,False,peak,expiration
29,78.0,25,F,up,0.7165029999996477,1.785891612755451,,psi_staircase_training,emotion,,93.61561347624937,93.61561347624937,35.11755585279455,421.4769425999984,1016,26,female,True,4214,4221,False,False,inspiration,expiration
30,64.0,25,F,down,0.7668737000021792,0.8374931118591641,,psi_staircase_training,emotion,,80.35838940514174,80.35838940514174,38.13964601809597,423.3935485000002,1016,26,female,True,4233,4241,False,False,expiration,inspiration
31,73.0,25,M,down,0.7433402999995451,1.2312285781196133,,psi_staircase_training,emotion,,87.38897362763403,87.38897362763403,37.35806654241887,425.7600966999999,1016,26,female,True,4257,4264,False,False,expiration,trough
32,78.0,25,F,down,0.9736799000020256,1.6865138936879531,,psi_staircase_training,emotion,,92.5790588024005,92.5790588024005,36.43170589082099,428.5267061000013,1016,26,female,True,4284,4294,False,False,expiration,expiration
33,81.0,25,F,up,1.2495385000001988,1.0962002511709583,,psi_staircase_training,emotion,,96.74950919618831,96.74950919618831,35.602598297495256,430.9599010999992,1016,26,female,True,4309,4321,False,False,peak,expiration
34,70.0,25,F,down,0.8588741000021399,0.4651117180187954,,psi_staircase_training,emotion,,89.90503647966648,89.90503647966648,37.09138798281382,433.02651749999865,1016,26,female,True,4329,4338,False,False,expiration,inspiration
35,108.0,25,M,up,0.6396858999978576,1.3731125717693655,,psi_staircase_training,emotion,,92.9000658998107,92.9000658998107,36.3290348682557,435.60975139999937,1016,26,female,True,4355,4361,False,False,expiration,expiration
36,66.0,25,M,down,0.6764990000010584,1.927349406786512,,psi_staircase_training,emotion,,89.95227605122813,89.95227605122813,35.73545238456805,438.54297840000066,1016,26,female,True,4384,4391,False,False,inspiration,inspiration
37,112.0,25,F,up,0.5555641999999352,0.8186328825836895,,psi_staircase_training,emotion,,92.14398429089508,92.14398429089508,34.87932700879046,440.39291589999993,1016,26,female,True,4403,4409,False,False,expiration,expiration
38,65.0,25,F,down,0.556902699998318,0.30189925221580033,,psi_staircase_training,emotion,,89.98039922559887,89.98039922559887,34.10569874047296,441.6095568000019,1016,26,female,True,4415,4421,False,False,inspiration,inspiration
39,113.0,25,M,up,0.4196026000026905,1.9223906364830308,,psi_staircase_training,emotion,,91.72441193648741,91.72441193648741,33.17483914373286,444.44274710000167,1016,26,female,True,4443,4447,False,False,inspiration,inspiration
40,64.0,25,M,down,0.5197423000026902,1.0306857335434458,,psi_staircase_training,emotion,,89.97724270711964,89.97724270711964,32.288573423506854,446.24268890000167,1016,26,female,True,4461,4466,False,False,expiration,expiration
41,113.0,25,M,up,0.40019080000274704,0.5855718021203757,,psi_staircase_training,emotion,,91.35995270210665,91.35995270210665,31.303032224605058,447.6759894999996,1016,26,female,True,4476,4480,False,False,inspiration,inspiration
42,64.0,25,M,down,0.31649409999954514,1.6417584827809923,,psi_staircase_training,emotion,,89.89243243965656,89.89243243965656,30.33136938574859,450.0762421,1016,26,female,True,4500,4503,False,False,inspiration,inspiration
43,111.0,25,F,up,0.5398848000004364,0.8453409408033887,,psi_staircase_training,emotion,,91.01631450668822,91.01631450668822,29.31223763207551,451.6925144000015,1016,26,female,True,4516,4521,False,False,expiration,expiration
44,64.0,25,F,down,0.6500001999993401,1.1639774825030351,,psi_staircase_training,emotion,,89.6798920839157,89.6798920839157,28.274254493417985,453.7424314000018,1016,26,female,True,4536,4543,False,False,inspiration,peak
45,108.0,25,F,up,0.4331089000006614,0.4856367430889222,,psi_staircase_training,emotion,,90.583267195205,90.583267195205,27.248077327866998,455.24236960000053,1016,26,female,True,4551,4555,False,False,expiration,expiration
46,105.0,25,M,up,0.6091362000006484,1.3481466296325149,,psi_staircase_training,emotion,,89.29703453704296,89.29703453704296,26.15641389280973,457.3923012000014,1016,26,female,True,4573,4579,False,False,inspiration,expiration
47,100.0,25,M,up,0.6128850000022794,0.4647118664444597,,psi_staircase_training,emotion,,88.04517497559047,88.04517497559047,25.07784187773559,458.8255519999984,1016,26,female,True,4587,4593,False,False,expiration,inspiration
48,89.0,25,F,up,0.5170292000002519,1.4400932525161991,,psi_staircase_training,emotion,,86.68857447197027,86.68857447197027,24.01866395734797,461.22548380000086,1016,26,female,True,4611,4616,False,False,expiration,expiration
49,88.0,25,F,up,0.5566890000009153,0.9143076242573268,,psi_staircase_training,emotion,,84.74805947983876,84.74805947983876,23.273670506137897,463.0087444000019,1016,26,female,True,4629,4635,False,False,inspiration,peak
50,87.0,25,M,up,0.7010459999983141,0.6890755921521025,,psi_staircase_training,emotion,,82.93631952853606,82.93631952853606,22.17529582172185,464.6253493000004,1016,26,female,True,4645,4652,False,False,expiration,expiration
51,87.0,25,M,up,0.6150672000003397,1.657870528191152,,psi_staircase_training,emotion,,81.27459984928943,81.27459984928943,20.67692171722026,467.3252773999993,1016,26,female,True,4672,4678,False,False,expiration,expiration
52,0.29,25,up,down,1.3504026000009617,1.383012571031938,,psi_staircase_training,cRDM,,0.25,0.25693124029946324,0.10500000000000002,473.1250519999994,1016,26,female,True,4730,4744,False,False,inspiration,expiration
53,0.39,25,up,down,1.7414578999996593,1.2847023934008066,,psi_staircase_training,cRDM,,0.3546095744690497,0.36161092129536426,0.10606203002656786,476.02494049999945,1016,26,female,True,4759,4776,False,False,inspiration,expiration
54,0.45,25,down,down,0.7572653000024729,0.9676029871632514,,psi_staircase_training,cRDM,,0.4150689485921841,0.4216473382772667,0.09965473524084284,479.00817309999917,1016,26,female,True,4789,4797,False,False,expiration,inspiration
55,0.44,25,down,down,1.2575947000004817,0.5414966949363608,,psi_staircase_training,cRDM,,0.4054457120615717,0.4121127131824852,0.10099709250451644,480.5748323000007,1016,26,female,True,4805,4818,False,False,expiration,expiration
56,0.43,25,up,up,0.5621495000013965,1.1332761866909504,,psi_staircase_training,cRDM,,0.3958107273700079,0.4025120380008885,0.10151684054251513,483.2413258999986,1016,26,female,True,4832,4838,False,False,inspiration,expiration
57,0.43,25,down,down,0.61761480000132,1.9793066060664335,,psi_staircase_training,cRDM,,0.3860412409781549,0.3927592277984973,0.1017694648662767,486.0578491999986,1016,26,female,True,4860,4866,False,False,inspiration,expiration
58,0.41,25,up,up,0.5232570000007399,0.6865163850605647,,psi_staircase_training,cRDM,,0.3773036922633061,0.3839258072550191,0.10031712133594672,487.64117709999846,1016,26,female,True,4875,4880,False,False,expiration,expiration
59,0.38,25,down,down,0.4165259000001241,1.6169472619797274,,psi_staircase_training,cRDM,,0.3662921284843751,0.3730622515054828,0.10255926594715788,490.05806139999913,1016,26,female,True,4900,4904,False,False,expiration,expiration
60,0.37,25,down,up,0.3671437000011792,1.3733172152711006,,psi_staircase_training,cRDM,,0.351183834749024,0.3585332264236614,0.11133449317818156,492.14102999999886,1016,26,female,True,4920,4924,False,False,inspiration,inspiration
61,0.43,25,up,up,0.80044640000051,0.9157344316098897,,psi_staircase_training,cRDM,,0.3921695855442608,0.3982752268111683,0.0924931621653544,493.7409756999986,1016,26,female,True,4936,4944,False,False,expiration,expiration
62,0.42,25,down,down,0.3335555000012391,1.6337256542079908,,psi_staircase_training,cRDM,,0.3868979967949349,0.3927098287609732,0.08804230268589586,496.4577863999984,1016,26,female,True,4964,4967,False,False,inspiration,inspiration
63,0.42,25,down,down,0.5500671000008879,1.8003314756920137,,psi_staircase_training,cRDM,,0.3815626847117032,0.38714582259832003,0.084577860926298,498.95735789999884,1016,26,female,True,4989,4995,False,False,expiration,expiration
64,0.4,25,down,down,0.7917813999993086,1.2530650213051286,,psi_staircase_training,cRDM,,0.3771463081328215,0.3824591194174688,0.0804827362472421,501.04070919999873,1016,26,female,True,5010,5018,False,False,inspiration,inspiration
65,0.38,25,up,up,0.6397900999982085,0.5385782537391232,,psi_staircase_training,cRDM,,0.36979957419736703,0.3752707105811327,0.0828811721244001,502.64063270000037,1016,26,female,True,5026,5032,False,False,expiration,expiration
66,0.37,25,up,up,0.8702359999988403,0.3025733947047274,,psi_staircase_training,cRDM,,0.35878943476916714,0.3649478369817911,0.09329242738497844,503.85720299999963,1016,26,female,True,5038,5047,False,False,expiration,inspiration
67,0.37,25,down,down,0.3340514000010444,1.8293434315008843,,psi_staircase_training,cRDM,,0.3459564027994789,0.35289024413336445,0.10503940256037046,506.84046959999984,1016,26,female,True,5068,5071,False,False,inspiration,inspiration
68,0.36,25,down,down,0.5297159000001557,1.1358073689275268,,psi_staircase_training,cRDM,,0.332625508559828,0.3402156046216185,0.11498087673424387,508.6737763999991,1016,26,female,True,5086,5091,False,False,inspiration,inspiration
69,0.36,25,up,up,0.9100233999997728,0.8551508775917216,,psi_staircase_training,cRDM,,0.3187029038852541,0.32688592477769385,0.1239629787143156,510.34035570000196,1016,26,female,True,5102,5111,False,False,inspiration,expiration
70,0.35000000000000003,25,up,up,0.8105083000009472,1.144056234627965,,psi_staircase_training,cRDM,,0.3054035797687548,0.314020201051125,0.13053150598730967,512.6569325000019,1016,26,female,True,5126,5134,False,False,inspiration,inspiration
71,0.35000000000000003,25,up,down,1.6859070999998949,1.1957119557435767,,psi_staircase_training,cRDM,,0.29247997238456125,0.3014275952012513,0.13554578331748382,514.9235171,1016,26,female,True,5148,5165,False,False,expiration,inspiration
72,0.37,25,up,up,0.5613956999986839,1.3590150477409788,,psi_staircase_training,cRDM,,0.3358546451824286,0.3440565408141664,0.12424890843838685,518.2400841000017,1016,26,female,True,5181,5187,False,False,expiration,expiration
73,0.37,25,down,down,0.5696959999986575,0.5297624402638519,,psi_staircase_training,cRDM,,0.3256405960168475,0.3342177185911349,0.1299331478047185,519.6066844999987,1016,26,female,True,5195,5201,False,False,inspiration,inspiration
74,0.34,25,down,down,0.7424858999984281,0.5399873111531494,,psi_staircase_training,cRDM,,0.3161388421048942,0.3249719307837076,0.1338107281242615,520.9899608000014,1016,26,female,True,5209,5216,False,False,inspiration,expiration
75,0.34,25,down,up,0.5559017000014137,1.4114761360923829,,psi_staircase_training,cRDM,,0.30522666366044643,0.3144590387700784,0.1398594399600341,523.4065420000006,1016,26,female,True,5233,5239,False,False,expiration,expiration
76,0.38,25,up,up,0.6092231999973592,1.2556884802101027,,psi_staircase_training,cRDM,,0.3375288301529024,0.34584695661017084,0.1260096664201394,525.4731653000017,1016,26,female,True,5254,5260,False,False,peak,expiration
77,0.38,25,up,up,0.5553561000015179,1.4769349662800404,,psi_staircase_training,cRDM,,0.33067296106737315,0.33905961381901223,0.12704775781475894,527.8230538999996,1016,26,female,True,5277,5283,False,False,inspiration,inspiration
78,0.34,25,down,down,0.8844638999980816,1.9623685488457456,,psi_staircase_training,cRDM,,0.32456928888669995,0.3329479220326749,0.12692627038129112,530.6229473999991,1016,26,female,True,5305,5314,False,False,expiration,expiration
79,0.33,25,down,down,0.7275188999992679,1.2319981605491108,,psi_staircase_training,cRDM,,0.3153755780438865,0.3242345472501022,0.1342027871584084,533.0228650999999,1016,26,female,True,5329,5336,False,False,expiration,inspiration
80,0.33,25,up,up,0.8496646999992663,0.9542241290917516,,psi_staircase_training,cRDM,,0.30611240575413473,0.3153887344841913,0.14052528473603249,534.9728060999987,1016,26,female,True,5349,5357,False,False,expiration,expiration
81,0.33,25,up,up,0.7863708000004408,0.8148161402473346,,psi_staircase_training,cRDM,,0.29718438193462754,0.3067821080115929,0.14539407011460906,536.9060504000008,1016,26,female,True,5368,5376,False,False,expiration,inspiration
82,100.0,25,M,down,0.9866779999974824,0.569288140851963,,psi_staircase,emotion,,100.0,100.0,25.00050000000001,545.4057441000003,1016,26,female,True,5453,5463,False,False,inspiration,expiration
83,145.0,25,M,up,0.5674975000001723,1.6304854042267638,,psi_staircase,emotion,,145.25719053245996,145.25719053245996,25.000500000000283,548.388954500002,1016,26,female,True,5483,5489,False,False,inspiration,inspiration
84,121.0,25,F,up,0.567196400003013,0.8111068021790038,,psi_staircase,emotion,,120.36392901436103,120.36392901436103,25.71326925488699,550.122248300002,1016,26,female,True,5500,5506,False,False,expiration,expiration
85,97.0,25,F,down,0.6995543999983056,1.145059034317878,,psi_staircase,emotion,,102.38876106084959,102.38876106084959,26.14633372628729,552.1888098999989,1016,26,female,True,5521,5528,False,False,expiration,inspiration
86,113.0,25,M,up,0.4660915000022214,1.4946035386782006,,psi_staircase,emotion,,114.01123255420406,114.01123255420406,23.003056417783352,554.755363799999,1016,26,female,True,5547,5552,False,False,expiration,expiration
87,105.0,25,F,down,1.2841167000005953,1.0223333100233443,,psi_staircase,emotion,,104.94359593877377,104.94359593877377,22.15060322358215,556.6053159000003,1016,26,female,True,5565,5578,False,False,trough,inspiration
88,116.0,25,M,up,0.6909378000018478,1.6810451410241547,,psi_staircase,emotion,,111.58377353439043,111.58377353439043,20.59785325106301,559.9385127999994,1016,26,female,True,5598,5605,False,False,trough,inspiration
89,108.0,25,F,up,0.5923790999986522,1.5927561443935525,,psi_staircase,emotion,,107.51987113577816,107.51987113577816,17.54703484605283,562.6051004000002,1016,26,female,True,5625,5631,False,False,expiration,expiration
90,97.0,25,F,up,0.5897393999985071,1.3923372477874203,,psi_staircase,emotion,,103.10949253511677,103.10949253511677,18.870841324427946,564.921706699999,1016,26,female,True,5648,5654,False,False,expiration,expiration
91,82.0,25,M,down,0.7374526999992668,0.7718544662968976,,psi_staircase,emotion,,95.19123733822005,95.19123733822005,28.515774664503947,566.6549612999988,1016,26,female,True,5666,5673,False,False,inspiration,inspiration
92,84.0,25,F,down,0.7508448000007775,1.4402444607941485,,psi_staircase,emotion,,99.13673746206686,99.13673746206686,25.84385202419973,569.171542600001,1016,26,female,True,5691,5699,False,False,expiration,expiration
93,86.0,25,F,down,0.6726285000004282,0.5366693535904103,,psi_staircase,emotion,,101.7539016685007,101.7539016685007,23.477827453095717,570.8048030999997,1016,26,female,True,5707,5714,False,False,trough,inspiration
94,119.0,25,F,down,1.3037686000025133,0.8530065293130811,,psi_staircase,emotion,,103.55799943882715,103.55799943882715,21.393525348618574,572.7046788000008,1016,26,female,True,5726,5739,False,False,expiration,expiration
95,130.0,25,M,up,0.6898073000011209,0.7937933718028334,,psi_staircase,emotion,,108.72978075665493,108.72978075665493,28.621825125535068,575.1546257000008,1016,26,female,True,5751,5758,False,False,expiration,inspiration
96,129.0,25,M,up,0.6558412000013051,1.3034315222120243,,psi_staircase,emotion,,106.99667231108,106.99667231108,27.0614238152782,577.5045675000001,1016,26,female,True,5774,5781,False,False,expiration,expiration
97,85.0,25,F,down,0.7442636999985552,1.908046635823056,,psi_staircase,emotion,,105.66561786675248,105.66561786675248,25.626402074900714,580.4211099999992,1016,26,female,True,5803,5810,False,False,inspiration,inspiration
98,127.0,25,F,up,0.5356792999991741,0.7785857037376163,,psi_staircase,emotion,,106.93994629842086,106.93994629842086,24.119836404753798,582.2877186000005,1016,26,female,True,5822,5827,False,False,expiration,expiration
99,86.0,25,M,down,0.6651146000003791,0.7140947373966733,,psi_staircase,emotion,,105.87087146478972,105.87087146478972,22.71115030112251,583.9043173999999,1016,26,female,True,5838,5845,False,False,expiration,expiration
100,126.0,25,M,down,0.5393808999979228,1.5567676130365051,,psi_staircase,emotion,,106.84684736482592,106.84684736482592,21.30793696078986,586.5042248999998,1016,26,female,True,5864,5869,False,False,expiration,expiration
101,135.0,25,M,up,0.5115875999981654,1.2038254861893405,,psi_staircase,emotion,,110.66628637184652,110.66628637184652,27.20876676003149,588.6208102000019,1016,26,female,True,5885,5890,False,False,expiration,expiration
102,86.0,25,M,down,0.606634200001281,1.7600018736567526,,psi_staircase,emotion,,109.69250663046421,109.69250663046421,26.00572455225265,591.2207765999992,1016,26,female,True,5911,5917,False,False,expiration,expiration
103,134.0,25,F,up,0.4691725000011502,0.3517075253506438,,psi_staircase,emotion,,110.52706798704493,110.52706798704493,24.87629971915681,592.537316599999,1016,26,female,True,5924,5929,False,False,expiration,expiration
104,87.0,25,F,down,0.4166627999984485,1.045019147334335,,psi_staircase,emotion,,109.72855989787195,109.72855989787195,23.74119314388107,594.4207443000014,1016,26,female,True,5943,5947,False,False,inspiration,inspiration
105,132.0,25,F,up,0.4532008999995014,0.6963256247464935,,psi_staircase,emotion,,110.41800135871365,110.41800135871365,22.69238410215313,595.887180400001,1016,26,female,True,5958,5963,False,False,expiration,expiration
106,88.0,25,M,down,0.4167927000016789,0.5484338479448564,,psi_staircase,emotion,,109.72826064966131,109.72826064966131,21.650141633794526,597.237153099999,1016,26,female,True,5971,5975,False,False,expiration,expiration
107,131.0,25,M,up,0.3501953999984835,1.0806577843104637,,psi_staircase,emotion,,110.30491663083244,110.30491663083244,20.71217692765517,599.0870891999984,1016,26,female,True,5990,5994,False,False,inspiration,inspiration
108,90.0,25,F,down,0.865397400000802,1.3759104078861302,,psi_staircase,emotion,,109.72746205559696,109.72746205559696,19.800329288749047,601.2370107999997,1016,26,female,True,6011,6020,False,False,expiration,inspiration
109,129.0,25,F,up,0.7987919000006514,0.8997839379412815,,psi_staircase,emotion,,110.24759470771308,110.24759470771308,18.97392646930752,603.3535975999985,1016,26,female,True,6033,6041,False,False,expiration,expiration
110,92.0,25,M,down,1.1521429999993416,1.362685666398412,,psi_staircase,emotion,,109.7246862178182,109.7246862178182,18.18130917573507,605.8702072999986,1016,26,female,True,6058,6070,False,False,inspiration,expiration
111,127.0,25,M,up,0.4448363999981666,1.6058680903824818,,psi_staircase,emotion,,110.20852497223959,110.20852497223959,17.46567758318871,608.953667400001,1016,26,female,True,6089,6093,False,False,inspiration,peak
112,94.0,25,F,down,0.7444596999994246,1.7150236850718814,,psi_staircase,emotion,,109.71902072017376,109.71902072017376,16.784077722243186,611.4699824999989,1016,26,female,True,6114,6121,False,False,inspiration,peak
113,125.0,25,M,down,0.7528781000000891,0.6217871975032903,,psi_staircase,emotion,,110.18402578494408,110.18402578494408,16.169036366006534,613.1865801999992,1016,26,female,True,6131,6139,False,False,expiration,expiration
114,133.0,25,F,up,0.5839285999973072,0.4461798525166374,,psi_staircase,emotion,,112.32885551728542,112.32885551728542,18.817712337497913,614.7365103000011,1016,26,female,True,6146,6152,False,False,inspiration,inspiration
115,94.0,25,M,up,0.9729810999997426,1.4262701704272818,,psi_staircase,emotion,,111.95366269677214,111.95366269677214,18.17253183828798,617.0864330000004,1016,26,female,True,6170,6180,False,False,expiration,expiration
116,87.0,25,F,down,0.6043687999990652,0.569094098254093,,psi_staircase,emotion,,109.87971991533402,109.87971991533402,21.23572446311303,619.0030514999999,1016,26,female,True,6189,6195,False,False,inspiration,inspiration
117,133.0,25,M,up,0.5447768999983964,0.6365726442997888,,psi_staircase,emotion,,110.24823017807378,110.24823017807378,20.573327806542977,620.5696441,1016,26,female,True,6205,6210,False,False,expiration,expiration
118,88.0,25,F,down,0.7310460000007879,0.9663056678248679,,psi_staircase,emotion,,109.8921129649604,109.8921129649604,19.94628213937984,622.4195728000012,1016,26,female,True,6223,6230,False,False,expiration,inspiration
119,131.0,25,M,up,0.44133959999817307,1.9093398151580288,,psi_staircase,emotion,,110.2261648305592,110.2261648305592,19.371878495698454,625.4361331,1016,26,female,True,6253,6257,False,False,expiration,expiration
120,90.0,25,M,up,0.8929958999979135,1.1777276055777928,,psi_staircase,emotion,,109.88308401083022,109.88308401083022,18.82123150407147,627.4193960000011,1016,26,female,True,6273,6282,False,False,inspiration,expiration
121,84.0,25,F,down,0.7105086000010488,1.206734864493438,,psi_staircase,emotion,,108.01880483176878,108.01880483176878,21.68282304437761,629.885959700001,1016,26,female,True,6298,6305,False,False,expiration,inspiration
122,132.0,25,F,up,0.5658302000010735,1.41290198793634,,psi_staircase,emotion,,108.33810255421128,108.33810255421128,21.100241295086526,632.3525728999994,1016,26,female,True,6323,6329,False,False,expiration,expiration
123,85.0,25,F,up,1.1019518000030075,1.9616754525059183,,psi_staircase,emotion,,108.02922499228016,108.02922499228016,20.55496963827409,635.2524655999988,1016,26,female,True,6352,6363,False,False,expiration,expiration
124,79.0,25,M,down,0.5333610999987286,0.3179668782364213,,psi_staircase,emotion,,106.18425420629805,106.18425420629805,23.759486445868774,637.0190548999999,1016,26,female,True,6369,6374,False,False,expiration,expiration
125,132.0,25,M,up,0.6397660999973596,0.799778437208974,,psi_staircase,emotion,,106.49226517556886,106.49226517556886,23.16894141694464,638.6856341999992,1016,26,female,True,6386,6392,False,False,inspiration,expiration
126,80.0,25,F,down,0.658201199999894,1.1382995645775271,,psi_staircase,emotion,,106.18967370035713,106.18967370035713,22.61302528834839,640.8522408999997,1016,26,female,True,6408,6415,False,False,expiration,inspiration
127,131.0,25,F,up,0.5326478999995743,0.5146242679034837,,psi_staircase,emotion,,106.47157011845577,106.47157011845577,22.086894666889982,642.4188242000017,1016,26,female,True,6423,6428,False,False,inspiration,expiration
128,82.0,25,F,down,0.6014640000030339,0.5126510623967476,,psi_staircase,emotion,,106.18784896235272,106.18784896235272,21.590081558108754,643.8353637,1016,26,female,True,6438,6444,False,False,expiration,expiration
129,130.0,25,M,up,0.5670288000001165,1.369989217640726,,psi_staircase,emotion,,106.46430337427874,106.46430337427874,21.11478527946295,646.1853632999993,1016,26,female,True,6461,6467,False,False,inspiration,peak
130,83.0,25,M,down,0.5437506999987818,0.6470744783877058,,psi_staircase,emotion,,106.19512816499972,106.19512816499972,20.67179801679661,647.7686433999987,1016,26,female,True,6477,6482,False,False,expiration,expiration
131,128.0,25,M,up,0.5055621999999858,1.68860578987655,,psi_staircase,emotion,,106.45485836536287,106.45485836536287,20.251090054957483,650.3518751000009,1016,26,female,True,6503,6508,False,False,expiration,expiration
132,0.29,25,up,up,0.526421599999594,0.9444360149596472,,psi_staircase,cRDM,,0.25,0.25693124029946324,0.10500000000000002,655.4350187999988,1016,26,female,True,6553,6558,False,False,expiration,expiration
133,0.25,25,up,down,0.8188347000032081,1.191653345593496,,psi_staircase,cRDM,,0.21910266653183127,0.2260132002683493,0.10468632033873933,657.4016197000019,1016,26,female,True,6573,6581,False,False,expiration,expiration
134,0.36,25,down,up,0.705539200000203,0.40063653570116425,,psi_staircase,cRDM,,0.3202997408361979,0.3276103223604739,0.1107465658214764,658.8849086000008,1016,26,female,True,6588,6595,False,False,expiration,inspiration
135,0.43,25,down,down,0.7460283000000345,1.8975328881916915,,psi_staircase,cRDM,,0.3923744910111199,0.399460699682156,0.10734758546986332,661.7514698999985,1016,26,female,True,6617,6624,False,False,expiration,expiration
136,0.42,25,up,up,0.6674449000020104,1.1739497714034859,,psi_staircase,cRDM,,0.3798855818941703,0.3870986840618793,0.1092698701656739,663.9180349000018,1016,26,female,True,6638,6645,False,False,inspiration,inspiration
137,0.41,25,down,down,0.4174770999998145,1.3620931960399023,,psi_staircase,cRDM,,0.367671626369661,0.3749288789433721,0.10993869600779443,666.2179289000014,1016,26,female,True,6661,6665,False,False,expiration,expiration
138,0.4,25,up,up,0.4236316999995324,1.9360403809111124,,psi_staircase,cRDM,,0.3556959873710901,0.3629517119809007,0.10991554918231697,668.8348212000019,1016,26,female,True,6688,6692,False,False,inspiration,peak
139,0.38,25,down,down,0.532990299998346,1.072169376684866,,psi_staircase,cRDM,,0.3437947038291127,0.35104268903042285,0.10979830640073174,670.5844644999997,1016,26,female,True,6705,6710,False,False,expiration,expiration
140,0.35000000000000003,25,down,down,0.5167019000000437,0.6870348101592576,,psi_staircase,cRDM,,0.330039618891669,0.3374693330025544,0.11255128201274124,672.067751999999,1016,26,female,True,6720,6725,False,False,inspiration,inspiration
141,0.34,25,up,up,0.5648574999977427,1.8128505032439677,,psi_staircase,cRDM,,0.313043440250402,0.320950160439769,0.1197773535492376,674.6676551000019,1016,26,female,True,6746,6752,False,False,expiration,expiration
142,0.34,25,down,down,0.3672846000008576,0.7910596502723621,,psi_staircase,cRDM,,0.29574069640252965,0.3040092821723287,0.1252591842611678,676.2842393999998,1016,26,female,True,6762,6766,False,False,inspiration,inspiration
143,0.33,25,down,down,0.6788304000001517,1.1886911788049208,,psi_staircase,cRDM,,0.2794897370800733,0.2879603364124301,0.12831944810315465,678.167545100001,1016,26,female,True,6781,6788,False,False,expiration,expiration
144,0.31,25,down,down,0.7547644999976909,1.2401606208815332,,psi_staircase,cRDM,,0.2642713272860947,0.27282837260419895,0.12962900138818315,680.3506906000002,1016,26,female,True,6803,6811,False,False,inspiration,expiration
145,0.3,25,up,up,0.6034090999964974,1.3706572780846336,,psi_staircase,cRDM,,0.24960352479953415,0.25818880693925017,0.13005675546121045,682.7340359000009,1016,26,female,True,6826,6832,False,False,expiration,inspiration
146,0.3,25,up,up,0.720178899999155,1.627930980595105,,psi_staircase,cRDM,,0.2360060733606512,0.2445641054733937,0.1296439501466364,685.217270000001,1016,26,female,True,6851,6858,False,False,expiration,expiration
147,0.24,25,down,down,0.4492847000001348,0.7346701016790127,,psi_staircase,cRDM,,0.2241936577110704,0.2326473379382222,0.12806314389643658,686.9341256000008,1016,26,female,True,6869,6873,False,False,inspiration,inspiration
148,0.24,25,down,down,0.7433454999991227,1.002493504958302,,psi_staircase,cRDM,,0.2078440445291967,0.216675524290917,0.13378635495474586,688.6671549999992,1016,26,female,True,6886,6893,False,False,expiration,expiration
149,0.23,25,up,up,0.7100350000000617,0.3374799880175653,,psi_staircase,cRDM,,0.1921900686922554,0.20126210239589198,0.1374304594454193,690.000417899999,1016,26,female,True,6899,6906,False,False,expiration,inspiration
150,0.22,25,up,up,1.1329848000023048,0.528638040644174,,psi_staircase,cRDM,,0.17721730946723627,0.18642817973670106,0.13953366735369033,691.5003945999997,1016,26,female,True,6914,6925,False,False,peak,expiration
151,0.2,25,up,down,1.5421208999978262,0.7614935908177047,,psi_staircase,cRDM,,0.16319684090856773,0.17244699043892825,0.14012870117388168,693.6502985000006,1016,26,female,True,6936,6951,False,False,trough,expiration
152,0.24,25,up,down,1.3672757000022102,1.633156522596628,,psi_staircase,cRDM,,0.2100599514481432,0.2194198885220256,0.1417918511400854,697.1001810999987,1016,26,female,True,6970,6984,False,False,inspiration,expiration
153,0.31,25,down,down,0.6527663000015309,1.4894352935008086,,psi_staircase,cRDM,,0.2482365744038104,0.2570473279456019,0.13347237751369642,700.2167287000011,1016,26,female,True,7001,7008,False,False,expiration,trough
154,0.3,25,down,down,0.9462514000006196,0.5385602041849418,,psi_staircase,cRDM,,0.2405955028500107,0.24923113757700946,0.13081953693123013,701.6833417999987,1016,26,female,True,7016,7025,False,False,inspiration,expiration
155,0.25,25,down,down,0.6422656999966421,1.4472618028910682,,psi_staircase,cRDM,,0.2336594904475879,0.24211163528459756,0.12803988457227972,704.3331714000013,1016,26,female,True,7043,7049,False,False,expiration,inspiration
156,0.24,25,up,up,0.6430306000002021,1.012453691880192,,psi_staircase,cRDM,,0.22309226319684614,0.23194348334785636,0.13408539824077956,706.2334324000003,1016,26,female,True,7062,7068,False,False,inspiration,expiration
157,0.23,25,up,up,0.7010799000017869,1.2964546180262946,,psi_staircase,cRDM,,0.2124066741422088,0.2216491842809635,0.14001297352861872,708.4333418999995,1016,26,female,True,7084,7091,False,False,expiration,expiration
158,0.23,25,down,down,0.6512373000005027,1.428299396148961,,psi_staircase,cRDM,,0.20179692742015515,0.211388503250562,0.14530090123562803,710.8332599999994,1016,26,female,True,7108,7115,False,False,expiration,inspiration
159,0.23,25,down,down,0.7358116999967024,0.3948140246426348,,psi_staircase,cRDM,,0.1917606969449792,0.2016090763282289,0.14919116789549125,712.1496361999997,1016,26,female,True,7121,7128,False,False,inspiration,expiration
160,0.23,25,up,up,0.7822969000008015,1.7246591404115668,,psi_staircase,cRDM,,0.18241477203928846,0.19244255997268114,0.1519089928375099,714.8661816999993,1016,26,female,True,7148,7156,False,False,expiration,inspiration
161,0.22,25,up,up,1.0027597999978752,1.5367212427643329,,psi_staircase,cRDM,,0.1737956471170391,0.1839404679167184,0.1536819007773848,717.4326985000008,1016,26,female,True,7174,7184,False,False,expiration,expiration
162,0.19,25,down,down,0.7620999999999185,1.4987537875607475,,psi_staircase,cRDM,,0.16544279757558292,0.1756901678985218,0.15523540339409414,720.1993536000009,1016,26,female,True,7201,7209,False,False,inspiration,inspiration
163,0.18,25,up,up,0.9392159999988507,0.9803647153465812,,psi_staircase,cRDM,,0.15655788647815352,0.16696631595850442,0.15767525698416113,722.1992680000003,1016,26,female,True,7221,7230,False,False,expiration,expiration
164,0.18,25,down,down,0.5889939999979106,1.6847074347384408,,psi_staircase,cRDM,,0.14792080924786105,0.1584621195625263,0.15968824268371715,725.0824852000004,1016,26,female,True,7250,7256,False,False,inspiration,inspiration
165,0.17,25,up,up,0.6414411999976437,1.5583048934426016,,psi_staircase,cRDM,,0.1398076051867422,0.15043879741580865,0.1610498461780959,727.4990671000014,1016,26,female,True,7274,7280,False,False,expiration,expiration
166,0.17,25,down,down,0.6197919000005641,1.5611195671500984,,psi_staircase,cRDM,,0.13195765436842855,0.14265628183361553,0.16207140934525446,729.9656275999988,1016,26,female,True,7299,7305,False,False,inspiration,inspiration
167,0.15,25,up,up,0.7021679000026779,1.0899346418000222,,psi_staircase,cRDM,,0.1246226468941263,0.13535385118981053,0.1625649093617627,731.9322400000018,1016,26,female,True,7319,7326,False,False,expiration,expiration
168,0.14,25,down,down,1.218277100000705,0.5849747468072655,,psi_staircase,cRDM,,0.11728276582159546,0.12804469824398765,0.16303040372711985,733.4821674999985,1016,26,female,True,7334,7346,False,False,expiration,expiration
169,0.14,25,up,up,2.1400122999984887,0.3547946123562548,,psi_staircase,cRDM,,0.11018778533495867,0.12096185616354488,0.16321428606207086,735.3154183000006,1016,26,female,True,7352,7373,False,False,expiration,expiration
170,0.13,25,up,down,0.6367810999981884,1.7818744518074796,,psi_staircase,cRDM,,0.10356357260387862,0.1143125156135094,0.16283362966057155,739.4986347000013,1016,26,female,True,7394,7400,False,False,expiration,inspiration
171,0.17,25,down,down,0.6508648000017274,0.4417733388744297,,psi_staircase,cRDM,,0.12469521035412948,0.1355948686587964,0.16511678610805802,740.8485838999986,1016,26,female,True,7408,7415,False,False,inspiration,inspiration
172,0.17,25,down,down,0.5049117000016851,1.129083556386645,,psi_staircase,cRDM,,0.11872458074999012,0.12964012389901675,0.16535742250006144,742.8985251000012,1016,26,female,True,7428,7433,False,False,expiration,expiration
173,0.17,25,down,down,0.8113911000000371,1.443325896256425,,psi_staircase,cRDM,,0.11317197539890778,0.12408321062430508,0.1652921626098339,745.1150570999997,1016,26,female,True,7450,7458,False,False,inspiration,inspiration
174,0.17,25,up,down,0.5810668999984046,0.5749089684543036,,psi_staircase,cRDM,,0.10802233658033757,0.1189102253539569,0.1649384917903596,746.7483787000018,1016,26,female,True,7467,7473,False,False,expiration,expiration
175,0.17,25,up,down,0.6172044000013557,1.4046322576189487,,psi_staircase,cRDM,,0.12772899630852902,0.13878906363438126,0.16754679091192526,748.9982583000018,1016,26,female,True,7489,7495,False,False,expiration,expiration
176,0.19,25,down,down,0.6592057999987446,0.7778188759771991,,psi_staircase,cRDM,,0.14733268475374506,0.1582441229380768,0.16529523719492928,750.6482350000006,1016,26,female,True,7506,7513,False,False,expiration,inspiration
177,0.19,25,down,down,0.4909336000018811,0.6039918848897083,,psi_staircase,cRDM,,0.14178603511800347,0.15274642710657907,0.16603682877501086,752.1814746000017,1016,26,female,True,7521,7526,False,False,inspiration,expiration
178,0.15,25,down,down,0.33380749999923864,1.446063714170862,,psi_staircase,cRDM,,0.13653567221701635,0.14753367295988432,0.1666065564182734,754.3814081000019,1016,26,female,True,7543,7546,False,False,expiration,expiration
179,0.15,25,up,up,0.6301081999990856,1.6342720513820919,,psi_staircase,cRDM,,0.13071396106588512,0.14180936802859073,0.16808214414010494,756.6813356999992,1016,26,female,True,7566,7572,False,False,inspiration,inspiration
180,0.15,25,up,down,0.9045159999986936,0.31110613719226304,,psi_staircase,cRDM,,0.1251401493237953,0.1363199339189317,0.1693603643463676,757.8979359000003,1016,26,female,True,7578,7587,False,False,inspiration,expiration
181,0.15,25,up,up,0.6339765000011539,1.658798154617644,,psi_staircase,cRDM,,0.14192780623350906,0.1528788386640688,0.1658950426661467,760.7144832000013,1016,26,female,True,7606,7612,False,False,expiration,inspiration
182,113.0,25,F,up,0.8241917999985162,1.0146807574779635,,experiment,emotion,0.0,,,,767.7142310000016,1016,26,female,True,7676,7684,False,False,inspiration,peak
183,98.0,25,M,up,1.7849168000029751,0.473076623055995,,experiment,emotion,0.0,,,,769.2975120000011,1016,26,female,True,7692,7710,False,False,expiration,inspiration
184,108.0,25,F,up,0.6810224000000744,0.9604560637053484,,experiment,emotion,0.0,,,,772.3474348999989,1016,26,female,True,7723,7730,False,False,expiration,expiration
185,113.0,25,M,up,0.6317937999992864,1.0690424560938092,,experiment,emotion,0.0,,,,774.3806818000012,1016,26,female,True,7743,7749,False,False,inspiration,inspiration
186,108.0,25,F,up,0.5638489000011759,1.5022642947377722,,experiment,emotion,0.0,,,,776.7805780000017,1016,26,female,True,7767,7773,False,False,expiration,inspiration
187,103.0,25,F,up,1.314657699997042,0.7593825856037295,,experiment,emotion,0.0,,,,778.4138362000012,1016,26,female,True,7783,7796,False,False,inspiration,expiration
188,98.0,25,M,up,1.1979934000009962,0.9822667539511668,,experiment,emotion,0.0,,,,780.9804331999985,1016,26,female,True,7809,7821,False,False,expiration,inspiration
189,103.0,25,F,up,1.0884879999975965,1.7593081006193458,,experiment,emotion,0.0,,,,784.1969597999997,1016,26,female,True,7841,7852,False,False,expiration,expiration
190,113.0,25,M,down,1.1503048999984458,1.7725761239810107,,experiment,emotion,0.0,,,,787.3301148999999,1016,26,female,True,7873,7885,False,False,expiration,expiration
191,103.0,25,M,up,0.7784218999986479,1.8167301243015253,,experiment,emotion,0.0,,,,790.580071299999,1016,26,female,True,7905,7913,False,False,inspiration,expiration
192,108.0,25,F,up,0.6841315999990911,1.7974158626189891,,experiment,emotion,0.0,,,,793.4633276999994,1016,26,female,True,7934,7941,False,False,inspiration,inspiration
193,113.0,25,M,up,0.681187800000771,1.1443945918196647,,experiment,emotion,0.0,,,,795.5632422999988,1016,26,female,True,7955,7962,False,False,expiration,expiration
194,108.0,25,M,,,0.7555606625158369,,experiment,emotion,0.0,,,,797.2631572999999,1016,26,female,True,7972,0,False,False,expiration,0
195,98.0,25,M,up,1.1970243999967352,0.4646285257813182,,experiment,emotion,0.0,,,,800.4463839000017,1016,26,female,True,8004,8016,False,False,expiration,expiration
196,103.0,25,F,up,0.5961128999988432,1.181308061548139,,experiment,emotion,0.0,,,,803.0962992999994,1016,26,female,True,8030,8036,False,False,inspiration,expiration
197,98.0,25,F,up,0.5275765999977011,0.7955330019026814,,experiment,emotion,0.0,,,,804.7628779000006,1016,26,female,True,8047,8052,False,False,expiration,expiration
198,113.0,25,M,up,0.6126139000007242,1.4893154211484558,,experiment,emotion,0.0,,,,807.0628111000004,1016,26,female,True,8070,8076,False,False,expiration,expiration
199,98.0,25,M,up,0.9920568999987154,0.6362418549001999,,experiment,emotion,0.0,,,,808.5794065000009,1016,26,female,True,8085,8095,False,False,expiration,inspiration
200,108.0,25,F,up,0.7098566000022402,0.8319549496114986,,experiment,emotion,0.0,,,,810.712657799999,1016,26,female,True,8106,8113,False,False,expiration,expiration
201,108.0,25,F,up,0.5235461000011128,1.2000942675537576,,experiment,emotion,0.0,,,,812.8959309999991,1016,26,female,True,8128,8133,False,False,expiration,trough
202,103.0,25,M,up,0.8679236000025412,0.6265831952237195,,experiment,emotion,0.0,,,,814.312525100002,1016,26,female,True,8142,8151,False,False,inspiration,expiration
203,103.0,25,F,down,0.7929686000024958,0.8301993433747634,,experiment,emotion,0.0,,,,816.2624781000012,1016,26,female,True,8162,8170,False,False,expiration,expiration
204,98.0,25,M,down,0.7143277000031958,0.5179664908836972,,experiment,emotion,0.0,,,,817.8290913999989,1016,26,female,True,8178,8185,False,False,inspiration,expiration
205,113.0,25,F,down,0.6681270000008226,1.8386369381122587,,experiment,emotion,0.0,,,,820.6622993999989,1016,26,female,True,8206,8213,False,False,expiration,inspiration
206,108.0,25,F,down,1.3646636999983457,1.541555829209463,,experiment,emotion,0.0,,,,823.1287902000003,1016,26,female,True,8231,8245,False,False,expiration,expiration
207,98.0,25,M,down,2.0129941000013787,1.8939043961411155,,experiment,emotion,0.0,,,,826.6454249000017,1016,26,female,True,8266,8286,False,False,expiration,trough
208,113.0,25,M,down,0.7402256999994279,1.3665679100363963,,experiment,emotion,0.0,,,,830.2952608000014,1016,26,female,True,8302,8309,False,False,expiration,expiration
209,113.0,25,F,down,0.6832190999994054,1.755322700484112,,experiment,emotion,0.0,,,,833.045213100002,1016,26,female,True,8330,8337,False,False,inspiration,expiration
210,103.0,25,M,down,0.4502675000003365,0.6613736415867393,,experiment,emotion,0.0,,,,834.6951396000003,1016,26,female,True,8346,8351,False,False,expiration,inspiration
211,98.0,25,F,down,0.8607387000010931,1.6416509383742914,,experiment,emotion,0.0,,,,837.0617239999992,1016,26,female,True,8370,8379,False,False,expiration,expiration
212,103.0,25,M,down,0.5208344999991823,1.4245504290904445,,experiment,emotion,0.0,,,,839.6115935999987,1016,26,female,True,8395,8400,False,False,inspiration,expiration
213,108.0,25,F,down,1.5523479000003135,0.6011726955598633,,experiment,emotion,0.0,,,,841.0280902000012,1016,26,female,True,8410,8426,False,False,expiration,expiration
214,98.0,25,M,down,0.6159974999973201,0.5550725889418071,,experiment,emotion,0.0,,,,843.4114613999991,1016,26,female,True,8433,8439,False,False,inspiration,inspiration
215,113.0,25,F,down,0.8503163999994285,1.064681455180786,,experiment,emotion,0.0,,,,845.3780598000012,1016,26,female,True,8453,8462,False,False,expiration,expiration
216,108.0,25,M,down,0.7924397999995563,1.1679489706422386,,experiment,emotion,0.0,,,,847.6779865999997,1016,26,female,True,8476,8484,False,False,inspiration,expiration
217,113.0,25,F,down,0.5195777000008093,1.238663517445073,,experiment,emotion,0.0,,,,849.9778886999992,1016,26,female,True,8499,8504,False,False,expiration,inspiration
218,98.0,25,M,down,1.282271899999614,0.4408388607336749,,experiment,emotion,0.0,,,,851.2111928999983,1016,26,female,True,8511,8524,False,False,inspiration,expiration
219,108.0,25,F,down,1.00735700000223,1.2037987982507576,,experiment,emotion,0.0,,,,853.9610713000003,1016,26,female,True,8539,8549,False,False,expiration,inspiration
220,103.0,25,M,down,0.6450757999991765,0.42386475761415054,,experiment,emotion,0.0,,,,855.6943620999991,1016,26,female,True,8556,8562,False,False,inspiration,expiration
221,103.0,25,F,down,0.6939034999995783,1.9234536366295492,,experiment,emotion,0.0,,,,858.5275359000008,1016,26,female,True,8585,8592,False,False,expiration,inspiration
222,108.0,25,F,down,0.6622236999974119,0.7162891495188894,,experiment,emotion,0.0,,,,860.1941929999994,1016,26,female,True,8601,8608,False,False,peak,expiration
223,113.0,25,M,down,0.7680290999996942,1.497860641522202,,experiment,emotion,0.0,,,,862.6274114000007,1016,26,female,True,8626,8634,False,False,trough,inspiration
224,103.0,25,F,down,0.9327290999972321,1.155971253589595,,experiment,emotion,0.0,,,,864.8106969,1016,26,female,True,8647,8656,False,False,expiration,expiration
225,98.0,25,M,down,0.8207994000003964,0.7554014241354589,,experiment,emotion,0.0,,,,866.8106069999994,1016,26,female,True,8667,8675,False,False,expiration,inspiration
226,98.0,25,M,down,0.7209813000008578,1.3657160569519324,,experiment,emotion,0.0,,,,869.2605360000017,1016,26,female,True,8692,8699,False,False,expiration,expiration
227,103.0,25,F,down,0.6226831999993011,1.7271766609585626,,experiment,emotion,0.0,,,,871.9937434999993,1016,26,female,True,8719,8725,False,False,inspiration,peak
228,113.0,25,F,down,0.6920595999981742,0.32969433146269445,,experiment,emotion,0.0,,,,873.2103873999986,1016,26,female,True,8731,8738,False,False,expiration,expiration
229,108.0,25,M,up,1.2837837000006402,0.6255876770046545,,experiment,emotion,0.0,,,,874.7936431000016,1016,26,female,True,8747,8760,False,False,inspiration,expiration
230,98.0,25,F,down,1.2222050999989733,1.0071345019576698,,experiment,emotion,0.0,,,,877.3602422000004,1016,26,female,True,8773,8785,False,False,expiration,inspiration
231,113.0,25,M,down,0.7446181999985129,0.9982209048113824,,experiment,emotion,0.0,,,,879.8768117000001,1016,26,female,True,8798,8805,False,False,expiration,expiration
232,108.0,25,M,up,1.2497519000025932,0.6466820924391875,,experiment,emotion,0.0,,,,881.5267163999997,1016,26,female,True,8814,8826,False,False,expiration,inspiration
233,108.0,25,M,down,0.7934162999990804,0.4101370202768943,,experiment,emotion,0.0,,,,883.4600180999988,1016,26,female,True,8834,8842,False,False,expiration,expiration
234,98.0,25,M,down,0.8365312999994785,1.7904153208245548,,experiment,emotion,0.0,,,,886.3099026000017,1016,26,female,True,8862,8870,False,False,inspiration,expiration
235,103.0,25,M,down,0.6369797000006656,0.9039522642678269,,experiment,emotion,0.0,,,,888.3764859000003,1016,26,female,True,8883,8889,False,False,expiration,inspiration
236,113.0,25,F,down,1.5947044000022288,1.4261278357643408,,experiment,emotion,0.0,,,,890.7097205999999,1016,26,female,True,8906,8922,False,False,inspiration,expiration
237,103.0,25,F,down,0.6402503000026627,1.9697961487447195,,experiment,emotion,0.0,,,,894.5261797999992,1016,26,female,True,8945,8951,False,False,trough,inspiration
238,103.0,25,F,down,0.6525798999973631,0.9508248648968424,,experiment,emotion,0.0,,,,896.3928764000011,1016,26,female,True,8963,8970,False,False,expiration,expiration
239,103.0,25,M,down,0.6290016000020842,1.843640288091948,,experiment,emotion,0.0,,,,899.1594318999997,1016,26,female,True,8991,8997,False,False,inspiration,expiration
240,113.0,25,F,down,1.4084153000003423,0.9191735385481604,,experiment,emotion,0.0,,,,900.9760142999983,1016,26,female,True,9009,9023,False,False,expiration,inspiration
241,108.0,25,F,down,1.3074335999990578,0.6301757179417605,,experiment,emotion,0.0,,,,903.3259553999997,1016,26,female,True,9033,9046,False,False,expiration,expiration
242,98.0,25,F,down,0.5675964000001841,0.8892739345823137,,experiment,emotion,0.0,,,,905.825859200002,1016,26,female,True,9058,9064,False,False,inspiration,expiration
243,98.0,25,M,down,0.3835281000028772,1.7206973570272166,,experiment,emotion,0.0,,,,908.3757495999997,1016,26,female,True,9083,9087,False,False,inspiration,expiration
244,108.0,25,F,down,0.4580662999978813,1.5778077991420425,,experiment,emotion,0.0,,,,910.6423711999997,1016,26,female,True,9106,9111,False,False,expiration,expiration
245,113.0,25,M,up,0.7159538000014436,0.9077789687027376,,experiment,emotion,0.0,,,,912.2755830999997,1016,26,female,True,9122,9129,False,False,expiration,inspiration
246,113.0,25,M,up,0.6375406000006478,0.4556313079436588,,experiment,emotion,0.0,,,,913.7089133000007,1016,26,female,True,9136,9142,False,False,inspiration,inspiration
247,98.0,25,F,up,0.7602618999990227,1.0717831734021344,,experiment,emotion,0.0,,,,915.6921407000008,1016,26,female,True,9156,9164,False,False,expiration,expiration
248,113.0,25,M,up,0.7190675999991072,0.8369839759641555,,experiment,emotion,0.0,,,,917.5754311999989,1016,26,female,True,9175,9182,False,False,trough,inspiration
249,103.0,25,F,up,0.6235148000014306,1.0953777361530863,,experiment,emotion,0.0,,,,919.6919916000006,1016,26,female,True,9196,9202,False,False,expiration,expiration
250,108.0,25,M,up,0.5218670000031125,1.82742393060058,,experiment,emotion,0.0,,,,922.4085641999992,1016,26,female,True,9223,9228,False,False,inspiration,inspiration
251,103.0,25,F,up,0.7119272999989334,1.5614500139835357,,experiment,emotion,0.0,,,,924.7584750999997,1016,26,female,True,9247,9254,False,False,expiration,expiration
252,98.0,25,M,down,0.6570241999979771,1.3180188942382225,,experiment,emotion,0.0,,,,927.0584111999997,1016,26,female,True,9270,9277,False,False,inspiration,expiration
253,108.0,25,F,down,0.7024480000000041,0.6244213180064929,,experiment,emotion,0.0,,,,928.6249664999997,1016,26,female,True,9286,9293,False,False,expiration,expiration
254,103.0,25,F,down,1.0311793000000762,1.5518003815635573,,experiment,emotion,0.0,,,,931.1582622999997,1016,26,female,True,9311,9321,False,False,inspiration,expiration
255,108.0,25,F,down,0.7478871000021172,1.024798097972807,,experiment,emotion,0.0,,,,933.4915007999988,1016,26,female,True,9334,9341,False,False,expiration,inspiration
256,98.0,25,F,down,0.7573940000002042,0.8442530567724937,,experiment,emotion,0.0,,,,935.3581077000017,1016,26,female,True,9353,9361,False,False,peak,expiration
257,113.0,25,F,up,1.1627511000006052,1.1822121785984152,,experiment,emotion,0.0,,,,937.5746827000003,1016,26,female,True,9375,9387,False,True,expiration,inspiration
258,108.0,25,M,up,0.9718853999984276,1.3864653970165863,,experiment,emotion,0.0,,,,940.3745855000017,1016,26,female,True,9403,9413,True,True,inspiration,inspiration
259,113.0,25,M,up,0.6222748000000138,1.069567848093807,,experiment,emotion,0.0,,,,942.6911646000008,1016,26,female,True,9426,9432,True,True,expiration,inspiration
260,98.0,25,M,down,0.6960481999994954,1.4295100335248212,,experiment,emotion,0.0,,,,945.0243873,1016,26,female,True,9449,9456,True,True,inspiration,expiration
261,103.0,25,M,down,0.7841158999981417,0.9868855801145496,,experiment,emotion,0.0,,,,947.0243195000003,1016,26,female,True,9469,9477,True,True,inspiration,expiration
262,0.13635734394503926,25,up,up,0.4599459000019124,1.663103526003909,,experiment,cRDM,0.0,,,,952.2074943000008,1016,26,female,True,9521,9526,False,False,expiration,expiration
263,0.13635734394503926,25,up,up,0.5753930000028049,1.1884395191094912,,experiment,cRDM,0.0,,,,954.1240737000007,1016,26,female,True,9540,9546,False,False,expiration,inspiration
264,0.13635734394503926,25,down,down,0.4524467999981425,1.6616471783864986,,experiment,cRDM,0.0,,,,956.6239815000008,1016,26,female,True,9565,9570,False,False,expiration,expiration
265,0.13635734394503926,25,down,down,0.7962110000007669,1.3705165336092806,,experiment,cRDM,0.0,,,,958.7072198999997,1016,26,female,True,9586,9594,False,False,expiration,inspiration
266,0.13635734394503926,25,up,up,0.5896467999991728,1.6564903507702562,,experiment,cRDM,0.0,,,,961.4237958000012,1016,26,female,True,9614,9620,False,False,expiration,expiration
267,0.13635734394503926,25,down,down,0.3171502000004693,1.7362312311685306,,experiment,cRDM,0.0,,,,964.0237444000012,1016,26,female,True,9640,9643,False,False,inspiration,inspiration
268,0.13635734394503926,25,up,up,0.2671408999995037,1.0996462944541847,,experiment,cRDM,0.0,,,,965.8069747000008,1016,26,female,True,9657,9660,False,False,expiration,expiration
269,0.13635734394503926,25,up,down,0.35057700000106706,0.7119370250662459,,experiment,cRDM,0.0,,,,967.2068992999992,1016,26,female,True,9671,9675,False,False,expiration,expiration
270,0.13635734394503926,25,down,down,0.4610119999997551,0.7345689389015323,,experiment,cRDM,0.0,,,,968.6234182000007,1016,26,female,True,9686,9691,False,False,inspiration,inspiration
271,0.13635734394503926,25,down,down,0.5602996000015992,1.04599525979943,,experiment,cRDM,0.0,,,,970.3901414999999,1016,26,female,True,9703,9709,False,False,expiration,expiration
272,0.13635734394503926,25,down,down,0.6602329000015743,0.6168671702767312,,experiment,cRDM,0.0,,,,971.8232051000014,1016,26,female,True,9718,9725,False,False,expiration,expiration
273,0.13635734394503926,25,down,down,0.5558116000029258,1.0670918143586887,,experiment,cRDM,0.0,,,,973.8066724000017,1016,26,female,True,9737,9743,False,False,inspiration,inspiration
274,0.13635734394503926,25,down,up,0.70785160000014,1.6280054279910143,,experiment,cRDM,0.0,,,,976.2565920000017,1016,26,female,True,9762,9769,False,False,expiration,expiration
275,0.13635734394503926,25,down,down,0.4636104000019259,1.6583032096693449,,experiment,cRDM,0.0,,,,978.8898253000008,1016,26,female,True,9788,9793,False,False,inspiration,expiration
276,0.13635734394503926,25,up,down,0.7356810999990557,1.0898320949537332,,experiment,cRDM,0.0,,,,980.6897691000012,1016,26,female,True,9806,9813,False,False,inspiration,inspiration
277,0.13635734394503926,25,up,up,0.4831156000000192,1.6226520687888601,,experiment,cRDM,0.0,,,,983.3063126999988,1016,26,female,True,9832,9837,False,False,expiration,expiration
278,0.13635734394503926,25,up,up,0.5754981000027328,1.6147514327336063,,experiment,cRDM,0.0,,,,985.6729387000014,1016,26,female,True,9856,9862,False,False,inspiration,expiration
279,0.13635734394503926,25,up,down,1.0659673000009209,1.48206594845613,,experiment,cRDM,0.0,,,,987.989493600002,1016,26,female,True,9879,9890,False,False,expiration,inspiration
280,0.13635734394503926,25,down,down,0.6883894999991753,1.950145404606604,,experiment,cRDM,0.0,,,,991.2560543,1016,26,female,True,9912,9919,False,False,expiration,expiration
281,0.13635734394503926,25,up,up,0.957477400002972,1.357370094679314,,experiment,cRDM,0.0,,,,993.5559638000012,1016,26,female,True,9935,9945,False,False,inspiration,expiration
282,0.13635734394503926,25,up,up,0.6856005000008736,1.6214037983098006,,experiment,cRDM,0.0,,,,996.4058399999994,1016,26,female,True,9963,9970,False,False,expiration,inspiration
283,0.13635734394503926,25,down,down,0.4700363000010839,1.4045450695909634,,experiment,cRDM,0.0,,,,998.7724350999997,1016,26,female,True,9987,9992,False,False,expiration,expiration
284,0.13635734394503926,25,up,down,0.63773609999771,1.2392334590386016,,experiment,cRDM,0.0,,,,1000.7557014000013,1016,26,female,True,10007,10013,False,False,expiration,inspiration
285,0.13635734394503926,25,down,down,0.5981112000008579,0.7192035566283871,,experiment,cRDM,0.0,,,,1002.3723233999989,1016,26,female,True,10023,10029,False,False,expiration,expiration
286,0.13635734394503926,25,down,down,0.607568600000377,0.6942868454710398,,experiment,cRDM,0.0,,,,1003.9388404000019,1016,26,female,True,10039,10045,False,False,expiration,inspiration
287,0.13635734394503926,25,up,up,0.6732628000027034,1.0147904280314999,,experiment,cRDM,0.0,,,,1005.822160300002,1016,26,female,True,10057,10064,False,False,expiration,expiration
288,0.13635734394503926,25,up,down,0.5700127000018256,1.7474188184589732,,experiment,cRDM,0.0,,,,1008.5054275000003,1016,26,female,True,10084,10090,False,False,inspiration,expiration
289,0.13635734394503926,25,down,down,0.6763533000012103,0.4389323863812175,,experiment,cRDM,0.0,,,,1009.772035500002,1016,26,female,True,10097,10104,False,False,expiration,expiration
290,0.13635734394503926,25,up,down,0.6751645999975153,1.987633486964812,,experiment,cRDM,0.0,,,,1012.7052613999987,1016,26,female,True,10126,10133,False,False,expiration,expiration
291,0.13635734394503926,25,down,down,0.42163690000234055,1.9360854985379703,,experiment,cRDM,0.0,,,,1015.5718078999997,1016,26,female,True,10155,10159,False,False,inspiration,inspiration
292,0.13635734394503926,25,down,down,0.4276739000015368,0.8159951226776228,,experiment,cRDM,0.0,,,,1017.0717732000012,1016,26,female,True,10170,10174,False,False,expiration,expiration
293,0.13635734394503926,25,down,down,0.4917564999996102,0.5008946419311837,,experiment,cRDM,0.0,,,,1018.2717185,1016,26,female,True,10182,10187,False,False,expiration,trough
294,0.13635734394503926,25,up,down,0.300449700000172,1.5665064275164542,,experiment,cRDM,0.0,,,,1020.5883154000003,1016,26,female,True,10205,10208,False,False,inspiration,inspiration
295,0.13635734394503926,25,up,down,0.3004956999975548,1.8968702732914824,,experiment,cRDM,0.0,,,,1023.1548914000014,1016,26,female,True,10231,10234,False,False,expiration,inspiration
296,0.13635734394503926,25,up,down,0.5333637000003364,0.3063163916341498,,experiment,cRDM,0.0,,,,1024.1380949999984,1016,26,female,True,10241,10246,False,False,inspiration,expiration
297,0.13635734394503926,25,down,down,0.4002742999982729,1.8693167855190864,,experiment,cRDM,0.0,,,,1026.8047211000012,1016,26,female,True,10267,10271,False,False,trough,inspiration
298,0.13635734394503926,25,down,down,0.4001921000017319,1.1531342856312805,,experiment,cRDM,0.0,,,,1028.637971600001,1016,26,female,True,10286,10290,False,False,expiration,expiration
299,0.13635734394503926,25,up,down,0.3337658999989799,1.7345720692337272,,experiment,cRDM,0.0,,,,1031.0379514000017,1016,26,female,True,10310,10313,False,False,inspiration,inspiration
300,0.13635734394503926,25,down,down,0.5012087000031897,1.0384158370091925,,experiment,cRDM,0.0,,,,1032.7712474,1016,26,female,True,10327,10332,False,False,expiration,expiration
301,0.13635734394503926,25,up,up,0.7430262000016228,1.1631517537058682,,experiment,cRDM,0.0,,,,1034.7044437000004,1016,26,female,True,10346,10353,False,False,expiration,inspiration
302,0.13635734394503926,25,up,down,0.4870575000022654,1.5892748216509458,,experiment,cRDM,0.0,,,,1037.3043767000017,1016,26,female,True,10372,10377,False,False,expiration,expiration
303,0.13635734394503926,25,up,down,0.9531272999993234,1.3076087911720011,,experiment,cRDM,0.0,,,,1039.3543142999988,1016,26,female,True,10393,10403,False,False,inspiration,inspiration
304,0.13635734394503926,25,down,down,0.7442520000004151,1.1923026409480597,,experiment,cRDM,0.0,,,,1041.7542078000006,1016,26,female,True,10417,10424,False,False,expiration,expiration
305,0.13635734394503926,25,down,down,0.6897589000000153,1.3655562526184482,,experiment,cRDM,0.0,,,,1044.1206848000004,1016,26,female,True,10441,10448,False,False,inspiration,inspiration
306,0.13635734394503926,25,up,down,1.8740612000001418,1.3169384573722105,,experiment,cRDM,0.0,,,,1046.3873743000004,1016,26,female,True,10463,10482,False,False,expiration,expiration
307,0.13635734394503926,25,down,down,0.5492874000010488,1.953713521915796,,experiment,cRDM,0.0,,,,1050.4871812999988,1016,26,female,True,10504,10509,False,False,peak,expiration
308,0.13635734394503926,25,down,down,1.1992600999983551,0.34151281396923405,,experiment,cRDM,0.0,,,,1051.6372082000016,1016,26,female,True,10516,10528,False,False,expiration,trough
309,0.13635734394503926,25,up,up,0.6457622000016272,0.9984225189416424,,experiment,cRDM,0.0,,,,1054.1037203000014,1016,26,female,True,10540,10546,False,False,inspiration,expiration
310,0.13635734394503926,25,up,up,0.6447460999988834,0.5615752565630042,,experiment,cRDM,0.0,,,,1055.553676399999,1016,26,female,True,10555,10561,False,False,expiration,expiration
311,0.13635734394503926,25,down,down,0.4820379999982834,1.9864647398597264,,experiment,cRDM,0.0,,,,1058.4535575000011,1016,26,female,True,10584,10589,False,False,expiration,expiration
312,0.13635734394503926,25,up,up,0.5823012000000745,1.6729247943392032,,experiment,cRDM,0.0,,,,1060.8701464000003,1016,26,female,True,10608,10614,False,False,inspiration,inspiration
313,0.13635734394503926,25,down,down,0.4697258999985934,1.9944059639545424,,experiment,cRDM,0.0,,,,1063.6867174000001,1016,26,female,True,10636,10641,False,False,expiration,trough
314,0.13635734394503926,25,down,down,0.5134610999994038,1.1928161673929838,,experiment,cRDM,0.0,,,,1065.6199811000006,1016,26,female,True,10656,10661,False,False,expiration,expiration
315,0.13635734394503926,25,down,down,0.536847300001682,0.8959297789783052,,experiment,cRDM,0.0,,,,1067.2865997000008,1016,26,female,True,10672,10677,False,False,expiration,expiration
316,0.13635734394503926,25,up,up,0.9412561999997706,1.5729024586721752,,experiment,cRDM,0.0,,,,1069.6531842000004,1016,26,female,True,10696,10705,False,False,expiration,expiration
317,0.13635734394503926,25,up,up,0.5600206999988586,1.4863875218630769,,experiment,cRDM,0.0,,,,1072.3364355000012,1016,26,female,True,10723,10729,False,False,inspiration,inspiration
318,0.13635734394503926,25,down,down,0.44416590000037104,1.2724361558161723,,experiment,cRDM,0.0,,,,1074.4363110000013,1016,26,female,True,10744,10748,False,False,expiration,expiration
319,0.13635734394503926,25,down,down,0.553997499999241,0.5788652036563873,,experiment,cRDM,0.0,,,,1075.7195113000016,1016,26,female,True,10757,10763,False,False,expiration,inspiration
320,0.13635734394503926,25,up,up,0.6762080999978934,1.1612808174510858,,experiment,cRDM,0.0,,,,1077.6862327000017,1016,26,female,True,10776,10783,False,False,expiration,expiration
321,0.13635734394503926,25,up,up,0.7901010999994469,1.2050982216823738,,experiment,cRDM,0.0,,,,1079.8193389000007,1016,26,female,True,10798,10806,False,False,inspiration,expiration
322,0.13635734394503926,25,up,up,1.0247186999986295,0.7284754703890308,,experiment,cRDM,0.0,,,,1081.6027173000002,1016,26,female,True,10815,10825,False,False,expiration,inspiration
323,0.13635734394503926,25,up,down,1.2611333999993803,1.5850356972542097,,experiment,cRDM,0.0,,,,1084.4693058000012,1016,26,female,True,10844,10857,False,False,expiration,expiration
324,0.13635734394503926,25,up,up,0.548003100000642,1.0231614000585918,,experiment,cRDM,0.0,,,,1087.0025233000017,1016,26,female,True,10869,10874,False,False,inspiration,inspiration
325,0.13635734394503926,25,down,down,0.5383336999984749,1.7003607788895108,,experiment,cRDM,0.0,,,,1089.5191120000018,1016,26,female,True,10895,10900,False,False,expiration,expiration
326,0.13635734394503926,25,down,down,0.7994290999995428,1.3967430453684004,,experiment,cRDM,0.0,,,,1091.7190597000008,1016,26,female,True,10917,10925,False,False,expiration,expiration
327,0.13635734394503926,25,up,up,0.5581400000010035,1.0775368581969158,,experiment,cRDM,0.0,,,,1093.8523042000018,1016,26,female,True,10938,10944,False,False,inspiration,peak
328,0.13635734394503926,25,down,down,1.4742227999995519,0.6207097019164753,,experiment,cRDM,0.0,,,,1095.3022238000012,1016,26,female,True,10952,10967,False,False,expiration,expiration
329,0.13635734394503926,25,down,down,0.5676682999983313,0.6872599020783847,,experiment,cRDM,0.0,,,,1097.7187588000018,1016,26,female,True,10977,10983,False,False,peak,expiration
330,0.13635734394503926,25,down,down,0.5277267999990727,1.9187601160911711,,experiment,cRDM,0.0,,,,1100.4687009000008,1016,26,female,True,11004,11009,False,False,inspiration,inspiration
331,0.13635734394503926,25,up,up,0.4544993000017712,1.0299555846364563,,experiment,cRDM,0.0,,,,1102.3019642000002,1016,26,female,True,11022,11027,False,False,expiration,inspiration
332,0.13635734394503926,25,down,down,0.660572199998569,1.4752693055065933,,experiment,cRDM,0.0,,,,1104.5018889999992,1016,26,female,True,11044,11051,False,False,expiration,expiration
333,0.13635734394503926,25,down,down,0.6085462999981246,0.9244299329453171,,experiment,cRDM,0.0,,,,1106.3518465000018,1016,26,female,True,11063,11069,False,False,inspiration,inspiration
334,0.13635734394503926,25,down,down,0.5550651999983529,1.10734665551505,,experiment,cRDM,0.0,,,,1108.3184002000016,1016,26,female,True,11083,11089,False,False,expiration,expiration
335,0.13635734394503926,25,up,up,0.7177615000000515,0.9756957782301778,,experiment,cRDM,0.0,,,,1110.1016853,1016,26,female,True,11100,11107,False,False,inspiration,inspiration
336,0.13635734394503926,25,up,,,0.7518275962671922,,experiment,cRDM,0.0,,,,1111.834904700001,1016,26,female,True,11118,0,False,False,expiration,0
337,0.13635734394503926,25,down,down,0.5389482999999018,0.6307286912781065,,experiment,cRDM,0.0,,,,1115.151512700002,1016,26,female,True,11151,11156,False,False,expiration,expiration
338,0.13635734394503926,25,up,up,0.4533316000015475,0.6768745013687458,,experiment,cRDM,0.0,,,,1116.6181127000016,1016,26,female,True,11165,11170,False,False,expiration,inspiration
339,0.13635734394503926,25,down,down,0.41673789999913424,1.466066195214916,,experiment,cRDM,0.0,,,,1118.801365899999,1016,26,female,True,11187,11191,False,False,expiration,expiration
340,0.13635734394503926,25,up,up,0.3838308999984292,0.9033675704257992,,experiment,cRDM,0.0,,,,1120.3846563000006,1016,26,female,True,11203,11207,False,False,expiration,expiration
341,0.13635734394503926,25,up,down,0.4245929999997316,0.3411622919615978,,experiment,cRDM,0.0,,,,1121.417900200002,1016,26,female,True,11214,11218,False,False,inspiration,inspiration
342,113.0,25,M,up,0.7586986000023899,0.8301789178746521,,experiment,emotion,1.0,,,,1126.9177220999989,1016,26,female,True,11268,11276,False,False,expiration,expiration
343,98.0,25,M,up,0.7058202000007441,1.036013897137874,,experiment,emotion,1.0,,,,1129.0176272999995,1016,26,female,True,11289,11296,False,False,inspiration,expiration
344,108.0,25,F,up,0.6665042999993602,0.8294756499428784,,experiment,emotion,1.0,,,,1130.8509451999996,1016,26,female,True,11308,11315,False,False,expiration,expiration
345,113.0,25,F,up,0.7655971999993199,0.7947447776969014,,experiment,emotion,1.0,,,,1132.600852800002,1016,26,female,True,11326,11334,False,False,inspiration,expiration
346,108.0,25,M,up,0.6223255000004428,0.7418554774053128,,experiment,emotion,1.0,,,,1134.3841353999996,1016,26,female,True,11343,11349,False,False,expiration,expiration
347,103.0,25,F,up,0.6487581000001228,1.6352002914347836,,experiment,emotion,1.0,,,,1136.9506879,1016,26,female,True,11369,11375,False,False,expiration,expiration
348,98.0,25,M,down,0.657163899999432,1.2445581874817278,,experiment,emotion,1.0,,,,1139.1173039999996,1016,26,female,True,11391,11398,False,False,inspiration,inspiration
349,103.0,25,M,up,0.5515190999976767,0.7370490404134264,,experiment,emotion,1.0,,,,1140.7839018999985,1016,26,female,True,11407,11413,False,False,expiration,expiration
350,113.0,25,F,up,0.6263375999988057,1.3157385093394292,,experiment,emotion,1.0,,,,1142.9171371000011,1016,26,female,True,11429,11435,False,False,trough,inspiration
351,103.0,25,F,down,0.7506863999988127,0.5835133749853054,,experiment,emotion,1.0,,,,1144.3837558000016,1016,26,female,True,11443,11451,False,False,expiration,expiration
352,108.0,25,F,up,0.5367208999996365,1.286312226054788,,experiment,emotion,1.0,,,,1146.6836914999985,1016,26,female,True,11466,11471,False,False,expiration,inspiration
353,113.0,25,F,up,0.6165064999986498,1.017087379306603,,experiment,emotion,1.0,,,,1148.5169338999985,1016,26,female,True,11485,11491,False,False,expiration,expiration
354,108.0,25,F,up,0.5798695999983465,0.8270887925639081,,experiment,emotion,1.0,,,,1150.2335662000005,1016,26,female,True,11502,11508,False,False,expiration,trough
355,98.0,25,F,up,0.5073364000018046,1.2634375000352822,,experiment,emotion,1.0,,,,1152.3501098999984,1016,26,female,True,11523,11528,False,False,expiration,expiration
356,103.0,25,M,up,0.5243243999975675,0.7485460639935155,,experiment,emotion,1.0,,,,1153.8834113000012,1016,26,female,True,11538,11543,False,False,expiration,expiration
357,98.0,25,M,down,0.8254406999985804,0.3813737826497716,,experiment,emotion,1.0,,,,1155.0500318000013,1016,26,female,True,11550,11558,False,False,inspiration,expiration
358,113.0,25,M,up,0.6271450999993249,1.036327115929787,,experiment,emotion,1.0,,,,1157.1833002999992,1016,26,female,True,11571,11577,False,False,expiration,trough
359,98.0,25,M,down,0.6716051000003063,1.7141558438618196,,experiment,emotion,1.0,,,,1159.7998374000015,1016,26,female,True,11597,11604,False,False,expiration,expiration
360,108.0,25,F,down,0.6176236999999674,0.5647291419893071,,experiment,emotion,1.0,,,,1161.2998217999993,1016,26,female,True,11612,11618,False,False,expiration,inspiration
361,108.0,25,M,down,0.5757268999986991,0.8186913322446909,,experiment,emotion,1.0,,,,1162.9996984999998,1016,26,female,True,11629,11635,False,False,expiration,expiration
362,103.0,25,M,down,0.8201220000009926,1.1218353723170147,,experiment,emotion,1.0,,,,1165.0163008000018,1016,26,female,True,11650,11658,False,False,expiration,inspiration
363,103.0,25,F,down,0.6942068999996991,1.7729404879502415,,experiment,emotion,1.0,,,,1167.8662460000016,1016,26,female,True,11678,11685,False,False,expiration,expiration
364,98.0,25,M,down,0.5812689999984286,1.5565891490110557,,experiment,emotion,1.0,,,,1170.4161681000005,1016,26,female,True,11704,11710,False,False,peak,expiration
365,113.0,25,F,down,0.6297057000010682,1.0359240759080697,,experiment,emotion,1.0,,,,1172.3327473999998,1016,26,female,True,11723,11729,False,False,expiration,inspiration
366,108.0,25,F,down,0.7361572000008891,1.9532590941010128,,experiment,emotion,1.0,,,,1175.1992820000016,1016,26,female,True,11751,11758,False,False,expiration,expiration
367,98.0,25,M,down,0.41959099999803584,1.3626315176461317,,experiment,emotion,1.0,,,,1177.5658651000012,1016,26,female,True,11775,11779,True,True,inspiration,inspiration
368,113.0,25,M,down,0.5636702000010699,1.0624621022455687,,experiment,emotion,1.0,,,,1179.3157519000015,1016,26,female,True,11793,11799,True,True,expiration,expiration
369,113.0,25,F,down,0.6950708999975177,1.0361524150880783,,experiment,emotion,1.0,,,,1181.182375700002,1016,26,female,True,11811,11818,True,True,expiration,expiration
370,103.0,25,M,down,0.3668541999977606,1.0419050896395583,,experiment,emotion,1.0,,,,1183.1989839999987,1016,26,female,True,11831,11835,False,False,inspiration,inspiration
371,98.0,25,F,down,0.7081569999972999,0.4008963160258998,,experiment,emotion,1.0,,,,1184.2822858,1016,26,female,True,11842,11849,False,False,inspiration,expiration
372,103.0,25,F,down,0.5825578999974823,1.3052430271609092,,experiment,emotion,1.0,,,,1186.5488850000004,1016,26,female,True,11865,11871,False,False,inspiration,inspiration
373,108.0,25,F,down,0.6030499999978929,0.9979409958131356,,experiment,emotion,1.0,,,,1188.4153920999995,1016,26,female,True,11884,11890,False,False,inspiration,expiration
374,98.0,25,M,down,0.7460633000009693,1.5692592430481629,,experiment,emotion,1.0,,,,1190.8653894000015,1016,26,female,True,11908,11915,False,False,expiration,expiration
375,113.0,25,M,down,0.781480300000112,1.2373198699154395,,experiment,emotion,1.0,,,,1193.1319664000002,1016,26,female,True,11931,11939,False,False,inspiration,expiration
376,108.0,25,M,down,1.2652846999990288,0.3357282147390576,,experiment,emotion,1.0,,,,1194.5152309000005,1016,26,female,True,11945,11958,False,False,expiration,inspiration
377,113.0,25,F,down,0.6586088999974891,1.0783876100666598,,experiment,emotion,1.0,,,,1197.131818400001,1016,26,female,True,11971,11978,False,False,inspiration,inspiration
378,98.0,25,F,up,0.6154123000014806,1.7027579021438364,,experiment,emotion,1.0,,,,1199.7650591999989,1016,26,female,True,11997,12003,False,False,expiration,expiration
379,108.0,25,M,up,0.7198483000029228,1.2229651228921592,,experiment,emotion,1.0,,,,1201.8816522000016,1016,26,female,True,12018,12025,False,False,expiration,expiration
380,103.0,25,F,up,0.6572964999977557,1.537522952048667,,experiment,emotion,1.0,,,,1204.4482462999986,1016,26,female,True,12044,12051,False,False,inspiration,inspiration
381,103.0,25,M,up,0.5393086000003677,1.258871160432733,,experiment,emotion,1.0,,,,1206.6481384,1016,26,female,True,12066,12071,False,False,expiration,expiration
382,108.0,25,M,down,0.6853493000016897,0.5966714215947576,,experiment,emotion,1.0,,,,1208.0480934000007,1016,26,female,True,12080,12087,False,False,expiration,expiration
383,113.0,25,M,down,1.1238448000003702,1.8025219587078731,,experiment,emotion,1.0,,,,1210.814611599999,1016,26,female,True,12108,12119,False,False,inspiration,expiration
384,103.0,25,F,down,0.7205176999996183,1.5958631683174456,,experiment,emotion,1.0,,,,1213.7978939999996,1016,26,female,True,12138,12145,False,False,expiration,inspiration
385,98.0,25,F,down,0.6525863999995636,0.3193490429463651,,experiment,emotion,1.0,,,,1215.1478580000005,1016,26,female,True,12151,12158,False,False,peak,expiration
386,98.0,25,M,down,0.9769546000025002,0.4029972296656633,,experiment,emotion,1.0,,,,1216.4644469999985,1016,26,female,True,12164,12174,False,False,expiration,expiration
387,103.0,25,F,down,0.5725490000004356,0.926621328689768,,experiment,emotion,1.0,,,,1218.6309502000004,1016,26,female,True,12186,12192,False,False,inspiration,inspiration
388,113.0,25,F,down,0.6041621000003943,1.3894823146776107,,experiment,emotion,1.0,,,,1220.864293900002,1016,26,female,True,12208,12214,False,False,expiration,expiration
389,108.0,25,M,down,0.5835843000022578,1.1699252408691485,,experiment,emotion,1.0,,,,1222.9308714000001,1016,26,female,True,12229,12235,False,False,peak,expiration
390,98.0,25,M,down,0.9166569000008168,0.7029381467811588,,experiment,emotion,1.0,,,,1224.4808317999996,1016,26,female,True,12244,12253,False,False,expiration,inspiration
391,113.0,25,F,down,0.8887457000018912,1.8633477040133213,,experiment,emotion,1.0,,,,1227.5307018999993,1016,26,female,True,12275,12284,False,False,expiration,expiration
392,108.0,25,M,down,0.8741638999999849,0.7527592350066826,,experiment,emotion,1.0,,,,1229.4473134000002,1016,26,female,True,12294,12303,False,False,inspiration,expiration
393,108.0,25,F,down,0.7179140999978699,0.3554455479985247,,experiment,emotion,1.0,,,,1230.9305879999993,1016,26,female,True,12309,12316,False,False,inspiration,inspiration
394,98.0,25,F,down,0.6112408000008145,0.494597858957413,,experiment,emotion,1.0,,,,1232.3972009999998,1016,26,female,True,12323,12329,False,False,inspiration,expiration
395,103.0,25,F,down,0.6370097999970312,1.7402816007775233,,experiment,emotion,1.0,,,,1235.0304402000004,1016,26,female,True,12350,12356,False,False,inspiration,inspiration
396,113.0,25,M,down,0.6940952000004472,1.9401722937175132,,experiment,emotion,1.0,,,,1237.8803556999992,1016,26,female,True,12378,12385,False,False,expiration,trough
397,103.0,25,M,down,0.6125075999989349,0.5578811186810853,,experiment,emotion,1.0,,,,1239.3969241999985,1016,26,female,True,12393,12399,False,False,inspiration,expiration
398,103.0,25,F,down,0.9339983999998368,1.6414066609930285,,experiment,emotion,1.0,,,,1241.9134691,1016,26,female,True,12419,12428,False,False,inspiration,inspiration
399,103.0,25,F,down,0.7891234999988228,1.4976858043352541,,experiment,emotion,1.0,,,,1244.6133269999993,1016,26,female,True,12446,12454,False,False,expiration,inspiration
400,113.0,25,M,down,0.5383930999996664,1.2013761743331974,,experiment,emotion,1.0,,,,1246.8800116999992,1016,26,female,True,12468,12473,False,False,inspiration,expiration
401,108.0,25,M,down,0.7271755000001576,1.1513081337749127,,experiment,emotion,1.0,,,,1248.8632717,1016,26,female,True,12488,12495,False,False,expiration,inspiration
402,98.0,25,M,down,0.6069631999998819,1.953408944769237,,experiment,emotion,1.0,,,,1251.846486800001,1016,26,female,True,12518,12524,False,False,expiration,expiration
403,98.0,25,M,down,0.7407679999996617,1.568261940228851,,experiment,emotion,1.0,,,,1254.2797317000004,1016,26,female,True,12542,12549,False,False,inspiration,expiration
404,108.0,25,M,up,1.2736097999986669,1.82691696361844,,experiment,emotion,1.0,,,,1257.1128419999984,1016,26,female,True,12571,12584,False,False,inspiration,expiration
405,113.0,25,F,down,0.7642732999993314,1.6331623713092716,,experiment,emotion,1.0,,,,1260.2961552999984,1016,26,female,True,12602,12610,False,False,inspiration,expiration
406,113.0,25,F,down,0.6906717999991088,1.2407187992282775,,experiment,emotion,1.0,,,,1262.5627687000015,1016,26,female,True,12625,12632,False,False,expiration,inspiration
407,98.0,25,M,down,0.7144577999970352,1.6134264610875984,,experiment,emotion,1.0,,,,1265.1460054000015,1016,26,female,True,12651,12658,False,False,expiration,expiration
408,113.0,25,F,up,1.5954950999985158,0.7267320729775468,,experiment,emotion,1.0,,,,1266.8459379000014,1016,26,female,True,12668,12684,False,False,expiration,inspiration
409,103.0,25,F,down,0.6659784000003128,1.5210431791999517,,experiment,emotion,1.0,,,,1270.262466600001,1016,26,female,True,12702,12709,False,False,expiration,expiration
410,108.0,25,F,down,0.7696770999973523,1.8648157532355365,,experiment,emotion,1.0,,,,1273.0957677000004,1016,26,female,True,12730,12738,False,False,inspiration,expiration
411,103.0,25,M,down,0.5458005999971647,0.8585058801352206,,experiment,emotion,1.0,,,,1274.9956299000005,1016,26,female,True,12749,12754,False,False,expiration,inspiration
412,98.0,25,F,down,0.6755512999989151,1.2754386493575618,,experiment,emotion,1.0,,,,1277.0788979999998,1016,26,female,True,12770,12777,False,False,expiration,expiration
413,108.0,25,F,down,0.752651100003277,0.7444125942514492,,experiment,emotion,1.0,,,,1278.7788216000008,1016,26,female,True,12787,12795,False,False,trough,inspiration
414,103.0,25,F,down,0.8680894000026456,1.1968392112294628,,experiment,emotion,1.0,,,,1280.9954011000011,1016,26,female,True,12809,12818,False,False,expiration,expiration
415,108.0,25,M,down,0.7759909000014886,1.6943931191810606,,experiment,emotion,1.0,,,,1283.8286350000014,1016,26,female,True,12838,12846,False,False,inspiration,expiration
416,98.0,25,M,down,0.5948602999997092,1.7532646639755902,,experiment,emotion,1.0,,,,1286.6285702999996,1016,26,female,True,12866,12872,True,True,expiration,inspiration
417,113.0,25,F,down,0.5373570999981894,1.7653445615329308,,experiment,emotion,1.0,,,,1289.2950945000011,1016,26,female,True,12892,12897,True,False,expiration,inspiration
418,108.0,25,M,down,0.6674459999994724,0.6872456740739001,,experiment,emotion,1.0,,,,1290.795032500002,1016,26,female,True,12907,12914,False,False,expiration,expiration
419,113.0,25,F,down,0.6794546000019182,0.8929162615355826,,experiment,emotion,1.0,,,,1292.6449757000012,1016,26,female,True,12926,12933,False,False,trough,inspiration
420,98.0,25,M,down,0.6126218999997946,1.4917406842629886,,experiment,emotion,1.0,,,,1295.0948911999985,1016,26,female,True,12950,12956,False,False,expiration,expiration
421,103.0,25,M,down,0.9553145999998378,0.5193940492763639,,experiment,emotion,1.0,,,,1296.5281886000012,1016,26,female,True,12965,12975,False,False,inspiration,expiration
422,0.13635734394503926,25,up,up,0.4764549999999872,0.8500003856481568,,experiment,cRDM,1.0,,,,1301.2780055000005,1016,26,female,True,13012,13017,False,False,inspiration,expiration
423,0.13635734394503926,25,up,down,0.3171014999970794,1.4717795239616511,,experiment,cRDM,1.0,,,,1303.4779124999984,1016,26,female,True,13034,13037,False,False,expiration,expiration
424,0.13635734394503926,25,down,down,0.5349412000032316,1.3963586336836071,,experiment,cRDM,1.0,,,,1305.544538099999,1016,26,female,True,13055,13060,False,False,inspiration,inspiration
425,0.13635734394503926,25,down,down,0.524655500001245,1.3847429028039449,,experiment,cRDM,1.0,,,,1307.7277907999996,1016,26,female,True,13077,13082,False,False,expiration,expiration
426,0.13635734394503926,25,up,up,0.7337634000032267,1.4663242455495815,,experiment,cRDM,1.0,,,,1309.9776915000002,1016,26,female,True,13099,13106,False,False,expiration,trough
427,0.13635734394503926,25,down,down,0.4167785999998159,1.9055654807996325,,experiment,cRDM,1.0,,,,1312.877584599999,1016,26,female,True,13128,13132,False,False,expiration,expiration
428,0.13635734394503926,25,up,up,0.47570590000032104,0.4573721227156343,,experiment,cRDM,1.0,,,,1314.0107573999996,1016,26,female,True,13140,13145,False,False,expiration,expiration
429,0.13635734394503926,25,up,up,0.6253470999981801,1.0073700440486577,,experiment,cRDM,1.0,,,,1315.7441356000018,1016,26,female,True,13157,13163,False,False,inspiration,inspiration
430,0.13635734394503926,25,down,down,0.38378540000121575,0.9575357139989721,,experiment,cRDM,1.0,,,,1317.5940800999995,1016,26,female,True,13175,13179,False,False,expiration,expiration
431,0.13635734394503926,25,down,down,0.4779194000002462,1.491588412669528,,experiment,cRDM,1.0,,,,1319.7606347,1016,26,female,True,13197,13202,False,False,expiration,expiration
432,0.13635734394503926,25,down,down,0.6778489000025729,0.5633018822429745,,experiment,cRDM,1.0,,,,1321.0606160999996,1016,26,female,True,13210,13217,False,False,inspiration,inspiration
433,0.13635734394503926,25,down,down,0.7119070999979158,0.34695677811694203,,experiment,cRDM,1.0,,,,1322.3605592999993,1016,26,female,True,13223,13230,False,False,expiration,expiration
434,0.13635734394503926,25,down,down,0.49696829999811604,1.5260244479902787,,experiment,cRDM,1.0,,,,1324.8604928999996,1016,26,female,True,13248,13253,False,False,inspiration,inspiration
435,0.13635734394503926,25,down,down,1.3143732999997155,0.4141977544659232,,experiment,cRDM,1.0,,,,1326.0270931000016,1016,26,female,True,13260,13273,False,False,expiration,expiration
436,0.13635734394503926,25,up,up,0.4794220999974641,1.7352071880474358,,experiment,cRDM,1.0,,,,1329.326997,1016,26,female,True,13293,13298,False,False,expiration,expiration
437,0.13635734394503926,25,up,up,0.7422531000011077,1.7936826769208023,,experiment,cRDM,1.0,,,,1331.8602095999995,1016,26,female,True,13318,13325,False,False,inspiration,expiration
438,0.13635734394503926,25,up,down,0.7636793999990914,1.8600901232943696,,experiment,cRDM,1.0,,,,1334.7268016000016,1016,26,female,True,13347,13355,False,False,expiration,expiration
439,0.13635734394503926,25,up,up,0.6264031999999133,1.5586289460401015,,experiment,cRDM,1.0,,,,1337.310050600001,1016,26,female,True,13373,13379,False,False,expiration,expiration
440,0.13635734394503926,25,down,down,0.5358478000016476,1.4235283897021622,,experiment,cRDM,1.0,,,,1339.6265941999989,1016,26,female,True,13396,13401,False,False,inspiration,inspiration
441,0.13635734394503926,25,up,up,0.5539516000026197,1.597640604525138,,experiment,cRDM,1.0,,,,1342.0265062,1016,26,female,True,13420,13426,False,False,expiration,inspiration
442,0.13635734394503926,25,up,up,0.6170423000003211,1.4374195999970218,,experiment,cRDM,1.0,,,,1344.2764180000013,1016,26,female,True,13442,13448,False,False,expiration,expiration
443,0.13635734394503926,25,down,down,0.6217470999981742,0.5970625005101533,,experiment,cRDM,1.0,,,,1345.7597074000005,1016,26,female,True,13457,13463,False,False,inspiration,peak
444,0.13635734394503926,25,up,up,0.5158703999986756,1.3123533550591675,,experiment,cRDM,1.0,,,,1347.959642599999,1016,26,female,True,13479,13484,False,False,expiration,inspiration
445,0.13635734394503926,25,down,down,0.5639219000004232,1.4686051912574418,,experiment,cRDM,1.0,,,,1350.209541799999,1016,26,female,True,13502,13508,False,False,expiration,trough
446,0.13635734394503926,25,down,down,0.5160590000014054,1.876172003351956,,experiment,cRDM,1.0,,,,1352.909399799999,1016,26,female,True,13529,13534,False,False,expiration,expiration
447,0.13635734394503926,25,up,up,0.5427731000017957,1.652779974699907,,experiment,cRDM,1.0,,,,1355.3426839999993,1016,26,female,True,13553,13558,False,False,inspiration,inspiration
448,0.13635734394503926,25,up,up,1.1474895999999717,0.7232785751116135,,experiment,cRDM,1.0,,,,1356.8759606999993,1016,26,female,True,13568,13579,False,False,expiration,expiration
449,0.13635734394503926,25,down,down,0.4002420999968308,1.7685427030785417,,experiment,cRDM,1.0,,,,1360.0591735000016,1016,26,female,True,13600,13604,False,False,expiration,expiration
450,0.13635734394503926,25,up,up,0.31713179999860586,1.9998452750500737,,experiment,cRDM,1.0,,,,1362.7424271000016,1016,26,female,True,13627,13630,False,False,inspiration,inspiration
451,0.13635734394503926,25,down,down,0.31714389999979176,1.4674212606098365,,experiment,cRDM,1.0,,,,1364.8923123999996,1016,26,female,True,13648,13651,False,False,expiration,expiration
452,0.13635734394503926,25,down,down,0.5282145999990462,1.2834984156926617,,experiment,cRDM,1.0,,,,1366.8422838000004,1016,26,female,True,13668,13673,False,False,inspiration,expiration
453,0.13635734394503926,25,down,down,0.5676007000001846,1.1242849727734057,,experiment,cRDM,1.0,,,,1368.7588571999984,1016,26,female,True,13687,13693,False,False,expiration,expiration
454,0.13635734394503926,25,up,up,0.4460115000001679,1.2832829196003603,,experiment,cRDM,1.0,,,,1370.8754685999993,1016,26,female,True,13708,13712,False,False,expiration,expiration
455,0.13635734394503926,25,up,down,0.4998636999989685,1.775801182347447,,experiment,cRDM,1.0,,,,1373.3586811999996,1016,26,female,True,13733,13738,False,False,inspiration,inspiration
456,0.13635734394503926,25,up,down,0.8081153999992239,0.8611942267536379,,experiment,cRDM,1.0,,,,1374.9753233000008,1016,26,female,True,13749,13757,False,False,expiration,expiration
457,0.13635734394503926,25,down,down,0.6009660999989137,0.7688495607564197,,experiment,cRDM,1.0,,,,1376.8085112000006,1016,26,female,True,13768,13774,False,False,inspiration,expiration
458,0.13635734394503926,25,down,down,0.4756166000006488,0.4175694250127499,,experiment,cRDM,1.0,,,,1378.0918516000022,1016,26,female,True,13780,13785,False,False,expiration,expiration
459,0.13635734394503926,25,up,up,0.6040462999990268,1.0248630089525723,,experiment,cRDM,1.0,,,,1379.8584468000006,1016,26,female,True,13798,13804,False,False,inspiration,peak
460,0.13635734394503926,25,down,down,0.3504771999978402,1.81406285225,,experiment,cRDM,1.0,,,,1382.5416769000005,1016,26,female,True,13825,13829,False,False,inspiration,inspiration
461,0.13635734394503926,25,up,,,0.8320315075551772,,experiment,cRDM,1.0,,,,1384.0583002999995,1016,26,female,True,13840,0,False,False,expiration,0
462,0.13635734394503926,25,up,down,1.2606145999998262,1.4855244311012619,,experiment,cRDM,1.0,,,,1388.2248437000014,1016,26,female,True,13882,13895,False,False,inspiration,expiration
463,0.13635734394503926,25,up,up,0.7487283000009484,0.8714034746832501,,experiment,cRDM,1.0,,,,1390.6247484000016,1016,26,female,True,13906,13913,False,False,expiration,inspiration
464,0.13635734394503926,25,down,down,0.7094885000005888,1.262334886899923,,experiment,cRDM,1.0,,,,1392.9079659000015,1016,26,female,True,13929,13936,False,False,expiration,expiration
465,0.13635734394503926,25,down,up,1.1552345999989484,0.7606649303774276,,experiment,cRDM,1.0,,,,1394.6412377000015,1016,26,female,True,13946,13958,False,False,inspiration,inspiration
466,0.13635734394503926,25,up,up,2.0303667999978643,1.2900053439441026,,experiment,cRDM,1.0,,,,1397.3411213,1016,26,female,True,13973,13993,False,False,expiration,inspiration
467,0.13635734394503926,25,down,down,0.5498613000017939,0.4865040730372773,,experiment,cRDM,1.0,,,,1400.1075797000012,1016,26,female,True,14001,14006,False,False,inspiration,expiration
468,0.13635734394503926,25,down,down,0.6324712999994517,0.477456514188024,,experiment,cRDM,1.0,,,,1401.3909841999994,1016,26,female,True,14013,14019,False,False,expiration,expiration
469,0.13635734394503926,25,up,up,0.5809558000000834,1.4161805045324931,,experiment,cRDM,1.0,,,,1403.7075127999994,1016,26,female,True,14037,14043,False,False,inspiration,inspiration
470,0.13635734394503926,25,up,up,0.7862913000026309,1.3076772244761192,,experiment,cRDM,1.0,,,,1405.8741689000015,1016,26,female,True,14058,14066,False,False,expiration,expiration
471,0.13635734394503926,25,down,down,0.5130989999997837,1.8898130705999547,,experiment,cRDM,1.0,,,,1408.8073865000006,1016,26,female,True,14088,14093,False,False,inspiration,inspiration
472,0.13635734394503926,25,up,up,0.643176500001573,1.1768676487020864,,experiment,cRDM,1.0,,,,1410.7573386000006,1016,26,female,True,14107,14113,False,False,expiration,expiration
473,0.13635734394503926,25,down,down,0.5112266999967687,0.8871508412692597,,experiment,cRDM,1.0,,,,1412.5572573999998,1016,26,female,True,14125,14130,False,False,expiration,expiration
474,0.13635734394503926,25,down,down,0.6196496000011393,0.4449343986355455,,experiment,cRDM,1.0,,,,1413.773881699999,1016,26,female,True,14137,14143,False,False,inspiration,inspiration
475,0.13635734394503926,25,down,down,0.4936598000022059,1.1295689323819975,,experiment,cRDM,1.0,,,,1415.7738028999993,1016,26,female,True,14157,14162,False,False,expiration,expiration
476,0.13635734394503926,25,up,up,0.594760199997836,1.9315818575571315,,experiment,cRDM,1.0,,,,1418.4736986999994,1016,26,female,True,14184,14190,False,False,expiration,expiration
477,0.13635734394503926,25,up,up,0.5868401000006997,1.0342270086717793,,experiment,cRDM,1.0,,,,1420.3736204999989,1016,26,female,True,14203,14209,False,False,inspiration,inspiration
478,0.13635734394503926,25,down,down,0.4603398999970522,1.7171392240468446,,experiment,cRDM,1.0,,,,1422.940203099999,1016,26,female,True,14229,14234,False,False,expiration,expiration
479,0.13635734394503926,25,down,down,0.6966551000004984,1.593513941471195,,experiment,cRDM,1.0,,,,1425.2567912000013,1016,26,female,True,14252,14259,False,False,expiration,expiration
480,0.13635734394503926,25,up,up,0.550115400001232,1.6125173401084798,,experiment,cRDM,1.0,,,,1427.8233813000006,1016,26,female,True,14278,14284,False,False,inspiration,inspiration
481,0.13635734394503926,25,up,up,0.7474903000002087,1.1091981488187628,,experiment,cRDM,1.0,,,,1429.7399662999994,1016,26,female,True,14297,14304,False,False,expiration,expiration
482,0.13635734394503926,25,up,up,0.6335476000022027,0.3749562886673736,,experiment,cRDM,1.0,,,,1431.139911000002,1016,26,female,True,14311,14317,False,False,inspiration,inspiration
483,0.13635734394503926,25,up,up,0.5062450999976136,0.6924401619329199,,experiment,cRDM,1.0,,,,1432.7232154000012,1016,26,female,True,14327,14332,False,False,inspiration,expiration
484,0.13635734394503926,25,up,up,0.4968116999989434,1.3957551155489918,,experiment,cRDM,1.0,,,,1434.8897480999985,1016,26,female,True,14348,14353,False,False,expiration,expiration
485,0.13635734394503926,25,down,down,0.917439100001502,0.5748736514153923,,experiment,cRDM,1.0,,,,1436.2230582000009,1016,26,female,True,14362,14371,False,False,expiration,expiration
486,0.13635734394503926,25,down,up,0.5498312000017904,1.1742391557559928,,experiment,cRDM,1.0,,,,1438.5896629000015,1016,26,female,True,14385,14390,False,False,inspiration,expiration
487,0.13635734394503926,25,up,up,0.5116698999991058,1.2816451375800129,,experiment,cRDM,1.0,,,,1440.6728597,1016,26,female,True,14406,14411,False,False,expiration,expiration
488,0.13635734394503926,25,down,down,0.5326664999993227,0.3763955741970255,,experiment,cRDM,1.0,,,,1441.8228469999995,1016,26,female,True,14418,14423,False,False,expiration,inspiration
489,0.13635734394503926,25,down,down,0.5291215999968699,0.9715572906526012,,experiment,cRDM,1.0,,,,1443.589398,1016,26,female,True,14436,14441,False,False,expiration,expiration
490,0.13635734394503926,25,down,down,0.514780299999984,1.5814820704231412,,experiment,cRDM,1.0,,,,1445.9726888000007,1016,26,female,True,14459,14464,False,False,inspiration,inspiration
491,0.13635734394503926,25,up,up,0.4458812999982911,1.9644219409465675,,experiment,cRDM,1.0,,,,1448.7225840999997,1016,26,female,True,14487,14491,False,False,expiration,expiration
492,0.13635734394503926,25,down,down,0.4366762999998173,1.92456115028218,,experiment,cRDM,1.0,,,,1451.3558225999984,1016,26,female,True,14513,14517,False,False,inspiration,peak
493,0.13635734394503926,25,down,down,0.4627190999999584,1.3647360166373093,,experiment,cRDM,1.0,,,,1453.4057768999994,1016,26,female,True,14534,14539,False,False,expiration,inspiration
494,0.13635734394503926,25,down,down,0.3838289000013901,1.808169951412212,,experiment,cRDM,1.0,,,,1455.9389861999991,1016,26,female,True,14559,14563,False,False,expiration,expiration
495,0.13635734394503926,25,up,up,0.5325059999995574,0.32977969251682004,,experiment,cRDM,1.0,,,,1456.9389554000006,1016,26,female,True,14569,14574,False,True,expiration,inspiration
496,0.13635734394503926,25,up,up,0.5227496000006795,1.2511640830123028,,experiment,cRDM,1.0,,,,1458.9887145999999,1016,26,female,True,14590,14595,True,True,expiration,expiration
497,0.13635734394503926,25,down,down,0.4663447000020824,0.5990830771163547,,experiment,cRDM,1.0,,,,1460.3721459000005,1016,26,female,True,14603,14608,True,True,expiration,expiration
498,0.13635734394503926,25,up,up,0.4473775000005844,1.7188740686588897,,experiment,cRDM,1.0,,,,1462.8220714000015,1016,26,female,True,14628,14632,True,True,expiration,expiration
499,0.13635734394503926,25,down,down,0.5060984999981883,0.31263897006396424,,experiment,cRDM,1.0,,,,1463.8553637000007,1016,26,female,True,14638,14643,True,True,expiration,expiration
500,0.13635734394503926,25,up,up,0.4761413000014727,1.8828738296768897,,experiment,cRDM,1.0,,,,1466.5053021999993,1016,26,female,True,14665,14670,False,False,inspiration,expiration
501,0.13635734394503926,25,up,,,1.4465719791752931,,experiment,cRDM,1.0,,,,1468.6884566000006,1016,26,female,True,14687,0,False,False,inspiration,0
502,113.0,25,M,down,1.376142200002505,1.1104166822276913,,experiment,emotion,2.0,,,,1475.138297900001,1016,26,female,True,14751,14765,False,False,peak,expiration
503,98.0,25,M,down,0.6329895999988366,1.531559721613076,,experiment,emotion,2.0,,,,1478.3714772999995,1016,26,female,True,14783,14789,False,False,expiration,expiration
504,108.0,25,F,down,0.6338565000005474,1.1027571083014245,,experiment,emotion,2.0,,,,1480.4046296000015,1016,26,female,True,14804,14810,False,False,inspiration,expiration
505,113.0,25,F,up,0.8344237000019348,0.6223196156516275,,experiment,emotion,2.0,,,,1481.9380378999995,1016,26,female,True,14819,14827,False,False,expiration,expiration
506,108.0,25,M,down,0.7328409999972791,1.4174227167345057,,experiment,emotion,2.0,,,,1484.4546197999991,1016,26,female,True,14844,14851,False,False,expiration,inspiration
507,103.0,25,F,down,0.7469468000017514,1.5130592683656137,,experiment,emotion,2.0,,,,1487.0045213000012,1016,26,female,True,14870,14877,False,False,expiration,expiration
508,98.0,25,M,down,0.7167623999994248,1.2557951516096415,,experiment,emotion,2.0,,,,1489.2877536999986,1016,26,female,True,14893,14900,False,False,inspiration,inspiration
509,103.0,25,M,down,0.5897919000017282,0.6290136475126387,,experiment,emotion,2.0,,,,1490.8876863000007,1016,26,female,True,14909,14915,False,False,inspiration,expiration
510,113.0,25,F,down,0.573874399997294,0.8427796289727363,,experiment,emotion,2.0,,,,1492.5876300999992,1016,26,female,True,14925,14931,False,False,expiration,expiration
511,103.0,25,F,down,0.9632333000008656,1.9062091183197076,,experiment,emotion,2.0,,,,1495.3542310000012,1016,26,female,True,14953,14963,False,False,inspiration,expiration
512,108.0,25,F,up,0.8065566000004765,0.6959113722352818,,experiment,emotion,2.0,,,,1497.3208900999996,1016,26,female,True,14973,14981,False,False,expiration,expiration
513,113.0,25,F,down,0.6640823999987333,1.744654074287499,,experiment,emotion,2.0,,,,1500.1373664999994,1016,26,female,True,15001,15008,False,False,inspiration,inspiration
514,108.0,25,F,down,0.9018299999988812,1.5424117604763057,,experiment,emotion,2.0,,,,1502.6206232000006,1016,26,female,True,15026,15035,False,False,expiration,expiration
515,98.0,25,F,down,0.9009729000026708,0.8447202744855216,,experiment,emotion,2.0,,,,1504.670532,1016,26,female,True,15046,15055,False,False,expiration,inspiration
516,103.0,25,M,up,1.1026219000013953,1.6136908525273388,,experiment,emotion,2.0,,,,1507.5037966999992,1016,26,female,True,15075,15086,False,False,expiration,inspiration
517,98.0,25,M,down,0.6847997000004398,0.5267586689939848,,experiment,emotion,2.0,,,,1509.4036763000006,1016,26,female,True,15094,15101,False,False,inspiration,expiration
518,113.0,25,M,up,0.7801918000004662,1.5703753063961812,,experiment,emotion,2.0,,,,1511.9202843999994,1016,26,female,True,15119,15127,False,False,inspiration,inspiration
519,98.0,25,M,up,1.2209975000005215,1.0133992765735098,,experiment,emotion,2.0,,,,1514.0034707999985,1016,26,female,True,15140,15152,False,False,expiration,expiration
520,108.0,25,F,down,0.6693617999990238,1.651250906827854,,experiment,emotion,2.0,,,,1517.1701018999993,1016,26,female,True,15171,15178,False,False,inspiration,expiration
521,108.0,25,M,down,0.6518238999997266,1.326123491455095,,experiment,emotion,2.0,,,,1519.4366555000015,1016,26,female,True,15194,15201,False,False,inspiration,inspiration
522,103.0,25,M,down,0.662866300001042,0.9981290842677892,,experiment,emotion,2.0,,,,1521.3866048999992,1016,26,female,True,15213,15220,False,False,expiration,expiration
523,103.0,25,F,down,0.750449999999546,1.8724076349451693,,experiment,emotion,2.0,,,,1524.2030207999994,1016,26,female,True,15242,15250,False,False,peak,expiration
524,98.0,25,M,down,0.7060482999986561,0.99838846289229,,experiment,emotion,2.0,,,,1526.2364190000005,1016,26,female,True,15262,15269,False,False,expiration,inspiration
525,113.0,25,F,down,1.667777799997566,0.9152303516714976,,experiment,emotion,2.0,,,,1528.1696747999995,1016,26,female,True,15281,15298,False,False,inspiration,expiration
526,108.0,25,F,down,0.6035424000001512,0.4516738226237107,,experiment,emotion,2.0,,,,1530.5529233999987,1016,26,female,True,15305,15311,True,True,inspiration,peak
527,98.0,25,M,down,2.073371499998757,1.9699550282394045,,experiment,emotion,2.0,,,,1533.3861347999994,1016,26,female,True,15333,15354,True,True,inspiration,trough
528,113.0,25,M,down,0.6621243000008691,1.7343827709637558,,experiment,emotion,2.0,,,,1537.4693613000018,1016,26,female,True,15374,15381,False,False,expiration,expiration
529,113.0,25,F,up,0.908659600001556,1.0813297833216375,,experiment,emotion,2.0,,,,1539.485914199999,1016,26,female,True,15394,15403,False,False,inspiration,inspiration
530,103.0,25,M,down,0.3669595999999729,1.4119555512071418,,experiment,emotion,2.0,,,,1542.102385999999,1016,26,female,True,15421,15425,False,False,expiration,expiration
531,98.0,25,F,down,0.5101047999996808,0.4108163835089606,,experiment,emotion,2.0,,,,1543.2023590999993,1016,26,female,True,15432,15437,False,False,expiration,expiration
532,103.0,25,F,down,0.6194394000012835,1.3921321326605338,,experiment,emotion,2.0,,,,1545.3690572999985,1016,26,female,True,15453,15459,False,False,inspiration,peak
