,stimLvl,stimTime,rand,response,rt,precedingITI,trialNumber,trialType,stimuli,block,estIntens,estThres,estSlope,trialStart,subject,age,gender,headRest,onset,responsI,manBadOnset,manBadRespons,onset_phase,respons_phase
0,150.0,100,F,,,1.4768003910855783,,introTrial,emotion,,,,,337.02746209999896,1017,26,male,True,3369,0,False,False,inspiration,0
1,0.9,100,down,,,1.038089226751229,,introTrial,cRDM,,,,,341.99394199999733,1017,26,male,True,3419,0,False,False,inspiration,0
2,200.0,25,M,up,1.3226265000012063,1.9015762085121248,,tutorial,emotion,,,,,401.74173119999983,1017,26,male,True,4016,4029,False,False,inspiration,expiration
3,200.0,25,F,up,0.9994121999989148,1.7783245766424867,,tutorial,emotion,,,,,405.12491099999903,1017,26,male,True,4050,4060,False,False,inspiration,expiration
4,200.0,25,M,up,0.9862050999981876,1.116011587359346,,tutorial,emotion,,,,,407.5581700999974,1017,26,male,True,4074,4084,False,False,expiration,expiration
5,0.0,25,M,down,0.9007242000006954,1.609041813103729,,tutorial,emotion,,,,,410.4746086999985,1017,26,male,True,4104,4113,False,False,inspiration,expiration
6,0.0,25,M,down,0.568029199999728,0.8775359312144064,,tutorial,emotion,,,,,412.5413044999986,1017,26,male,True,4124,4130,False,False,expiration,expiration
7,200.0,25,F,up,0.6231161000032444,0.4556481539836803,,tutorial,emotion,,,,,413.84125069999936,1017,26,male,True,4137,4143,False,False,inspiration,inspiration
8,0.0,25,M,down,0.8731827000010526,1.5370545894672218,,tutorial,emotion,,,,,416.2911782999981,1017,26,male,True,4162,4171,False,False,inspiration,expiration
9,200.0,25,F,up,0.6441866000022856,0.6935350686332944,,tutorial,emotion,,,,,418.1411055999997,1017,26,male,True,4180,4186,False,False,expiration,expiration
10,0.0,25,F,down,0.589766499997495,1.8876128962160734,,tutorial,emotion,,,,,420.9576629999974,1017,26,male,True,4208,4214,False,False,inspiration,expiration
11,0.0,25,F,down,0.5344358000002103,0.8233816486265455,,tutorial,emotion,,,,,422.64092969999916,1017,26,male,True,4225,4230,False,False,expiration,expiration
12,0.9,25,up,up,0.8647782999978517,0.5785451632529934,,tutorial,cRDM,,,,,431.8906270999978,1017,26,male,True,4318,4327,False,False,inspiration,peak
13,0.9,25,up,up,0.782219199998508,1.0156935377590681,,tutorial,cRDM,,,,,434.0571896000001,1017,26,male,True,4339,4347,False,False,expiration,expiration
14,0.9,25,down,down,0.6164793000025384,1.2504374571022634,,tutorial,cRDM,,,,,436.35709219999984,1017,26,male,True,4362,4368,False,False,trough,inspiration
15,0.9,25,down,up,1.1196701999979268,0.9893250836743148,,tutorial,cRDM,,,,,438.2237081999992,1017,26,male,True,4381,4392,False,False,expiration,expiration
16,0.9,25,up,up,0.6827166000002762,1.3012038699149682,,tutorial,cRDM,,,,,440.9236053999994,1017,26,male,True,4408,4415,False,False,inspiration,peak
17,0.9,25,down,down,0.5851978999999119,0.4852390067826418,,tutorial,cRDM,,,,,442.39016780000014,1017,26,male,True,4423,4429,False,False,expiration,expiration
18,0.9,25,up,up,0.4948922000003222,1.7573798457692509,,tutorial,cRDM,,,,,445.0234487999988,1017,26,male,True,4449,4454,False,False,inspiration,inspiration
19,0.9,25,up,up,0.5242684000004374,0.620778471490281,,tutorial,cRDM,,,,,446.3900974999997,1017,26,male,True,4463,4468,False,False,expiration,expiration
20,0.9,25,down,down,0.5949942999977793,1.2344467269312485,,tutorial,cRDM,,,,,448.4233242999981,1017,26,male,True,4483,4489,False,False,inspiration,peak
21,0.9,25,down,down,0.41679320000184816,0.5495267308051539,,tutorial,cRDM,,,,,449.83995199999845,1017,26,male,True,4497,4501,False,False,expiration,expiration
22,100.0,25,M,,,1.862929236683852,,psi_staircase_training,emotion,,100.0,100.0,25.00050000000001,464.1060963999989,1017,26,male,True,4640,0,False,False,expiration,0
23,100.0,25,F,up,1.5333974999994098,1.862929236683852,,psi_staircase_training,emotion,,100.0,100.0,25.00050000000001,468.65593239999725,1017,26,male,True,4685,4700,False,False,expiration,expiration
24,55.0,25,M,down,0.7401769999996759,1.6815598530061364,,psi_staircase_training,emotion,,54.742809467541896,54.742809467541896,25.00050000000011,472.2391228999986,1017,26,male,True,4721,4728,False,False,inspiration,inspiration
25,79.0,25,F,up,0.7709643999987748,0.41782622193182295,,psi_staircase_training,emotion,,79.636070985635,79.636070985635,25.71326925488641,473.7223995999992,1017,26,male,True,4736,4744,False,False,inspiration,inspiration
26,63.0,25,F,down,0.9244595999989542,1.6023850552347496,,psi_staircase_training,emotion,,62.164016703383474,62.164016703383474,25.29232598628389,476.43896529999984,1017,26,male,True,4763,4772,False,False,expiration,expiration
27,73.0,25,M,down,1.3114734000009776,0.3483344910072904,,psi_staircase_training,emotion,,73.5393094419089,73.5393094419089,23.64975108561003,478.08890989999776,1017,26,male,True,4780,4793,False,False,expiration,expiration
28,87.0,25,F,down,2.0022285999984892,1.809355691034124,,psi_staircase_training,emotion,,82.48355301883353,82.48355301883353,24.57617413513036,481.57211309999917,1017,26,male,True,4814,4834,False,False,inspiration,expiration
29,106.0,25,M,down,1.7177104000002146,0.6695102339633208,,psi_staircase_training,emotion,,93.47321971198342,93.47321971198342,30.115701177202173,484.5886677999988,1017,26,male,True,4845,4862,False,False,expiration,inspiration
30,122.0,25,F,up,0.8045019999990473,1.7455068068401232,,psi_staircase_training,emotion,,106.38438652375149,106.38438652375149,35.11755585279654,488.4218743999992,1017,26,male,True,4883,4891,False,False,inspiration,inspiration
31,117.0,25,F,up,1.3443585999993957,1.8727426626809085,,psi_staircase_training,emotion,,99.83666875700578,99.83666875700578,33.62495126514585,491.47200410000005,1017,26,male,True,4914,4927,False,False,inspiration,expiration
32,113.0,25,M,up,0.6504889999996522,0.7083013070406716,,psi_staircase_training,emotion,,95.38058249628055,95.38058249628055,32.2167824305347,493.8719143999988,1017,26,male,True,4938,4945,False,False,trough,inspiration
33,74.0,25,F,down,0.7781543000019155,1.2785633235385387,,psi_staircase_training,emotion,,91.93529307222583,91.93529307222583,30.97015401731504,496.1882415,1017,26,male,True,4961,4969,False,False,expiration,expiration
34,115.0,25,F,down,0.7891712999989977,0.6587791359106081,,psi_staircase_training,emotion,,94.78037791698021,94.78037791698021,29.793246610682463,497.9882111000006,1017,26,male,True,4979,4987,False,False,expiration,inspiration
35,125.0,25,F,,,0.7366333863489463,,psi_staircase_training,emotion,,101.9124528883282,101.9124528883282,33.858939982483946,499.87169820000054,1017,26,male,True,4998,0,False,False,expiration,0
36,125.0,25,F,up,1.0313976999968872,0.7366333863489463,,psi_staircase_training,emotion,,101.9124528883282,101.9124528883282,33.858939982483946,503.28798169999567,1017,26,male,True,5032,5042,False,False,expiration,expiration
37,123.0,25,M,up,1.2001632999963476,1.6186207439365716,,psi_staircase_training,emotion,,99.48531788543293,99.48531788543293,32.763794038449696,506.3212098999975,1017,26,male,True,5062,5074,False,False,inspiration,expiration
38,76.0,25,M,down,0.6608885000023292,0.35356606853390177,,psi_staircase_training,emotion,,97.4754002119166,97.4754002119166,31.744804809714125,508.2544453999981,1017,26,male,True,5081,5088,False,False,expiration,expiration
39,124.0,25,F,up,0.9524572999944212,1.9936737105848985,,psi_staircase_training,emotion,,99.42007133755031,99.42007133755031,30.688791221342782,511.2708899999962,1017,26,male,True,5112,5122,False,False,expiration,expiration
40,76.0,25,F,down,1.105110500000592,1.3519143223787085,,psi_staircase_training,emotion,,97.8837927796795,97.8837927796795,29.62300165707493,513.9042594000019,1017,26,male,True,5138,5149,False,False,expiration,expiration
41,124.0,25,M,up,2.2259080999938305,1.645379769479494,,psi_staircase_training,emotion,,99.44244480189718,99.44244480189718,28.520046078798128,516.9874803999955,1017,26,male,True,5169,5191,False,False,expiration,inspiration
42,77.0,25,M,down,0.7674363000041922,1.5881438404722086,,psi_staircase_training,emotion,,98.226534679778,98.226534679778,27.44837058805137,521.1709082999987,1017,26,male,True,5211,5219,False,False,expiration,expiration
43,79.0,25,M,down,0.7725436999971862,1.1026963600159911,,psi_staircase_training,emotion,,99.53334000955662,99.53334000955662,26.34036297531208,523.4039147999974,1017,26,male,True,5233,5241,False,False,inspiration,inspiration
44,124.0,25,M,up,2.2148664999986067,1.4168173772243722,,psi_staircase_training,emotion,,100.68756317854431,100.68756317854431,25.30728617830116,525.9204826999958,1017,26,male,True,5258,5280,False,False,expiration,expiration
45,81.0,25,F,down,1.0127187999969465,1.11992782749625,,psi_staircase_training,emotion,,99.72732497569504,99.72732497569504,24.228914734248967,529.6036672000008,1017,26,male,True,5295,5305,False,False,inspiration,expiration
46,122.0,25,F,up,0.6994542000029469,1.2542036468167217,,psi_staircase_training,emotion,,100.76670728873987,100.76670728873987,23.231491644921785,532.236915999998,1017,26,male,True,5321,5328,False,False,expiration,expiration
47,85.0,25,F,down,1.4898643000051381,0.9544019868247832,,psi_staircase_training,emotion,,99.93433117657288,99.93433117657288,22.228432297872423,534.2535177999998,1017,26,male,True,5341,5356,False,False,inspiration,expiration
48,88.0,25,M,down,0.8450089999969351,1.3545285296239935,,psi_staircase_training,emotion,,100.99670190271999,100.99670190271999,21.292090823384214,537.4533746999987,1017,26,male,True,5373,5381,False,False,expiration,inspiration
49,122.0,25,M,,,1.239748903207846,,psi_staircase_training,emotion,,102.0535760669562,102.0535760669562,20.433319972699014,539.8698781999957,1017,26,male,True,5398,0,False,False,expiration,0
50,122.0,25,M,up,0.7418567999993684,1.239748903207846,,psi_staircase_training,emotion,,102.0535760669562,102.0535760669562,20.433319972699014,543.7865196000022,1017,26,male,True,5437,5444,False,False,expiration,expiration
51,91.0,25,F,down,0.7589265000060551,0.3781328958939552,,psi_staircase_training,emotion,,101.39983149281046,101.39983149281046,19.526002114290346,545.2864272999977,1017,26,male,True,5452,5460,False,False,expiration,inspiration
52,93.0,25,F,down,1.1060426999974882,0.6162624643702979,,psi_staircase_training,emotion,,102.48205286033242,102.48205286033242,18.719868522132106,547.0363782999957,1017,26,male,True,5469,5480,False,False,peak,expiration
53,94.0,25,M,down,0.997819199998048,1.447945251073805,,psi_staircase_training,emotion,,103.53753603315671,103.53753603315671,17.942087471196093,549.9695298999977,1017,26,male,True,5499,5509,False,False,expiration,expiration
54,96.0,25,M,down,0.920164000002842,1.1072185956852516,,psi_staircase_training,emotion,,104.51320849697987,104.51320849697987,17.159296766740276,552.4362032999961,1017,26,male,True,5523,5532,False,False,inspiration,peak
55,0.29,25,down,,,1.8624447004604647,,psi_staircase_training,cRDM,,0.25,0.25693124029946324,0.10500000000000002,560.1025862999994,1017,26,male,True,5600,0,False,False,expiration,0
56,0.29,25,down,up,0.9099824000004446,1.8624447004604647,,psi_staircase_training,cRDM,,0.25,0.25693124029946324,0.10500000000000002,564.6524018000017,1017,26,male,True,5645,5654,False,False,peak,expiration
57,0.39,25,up,up,0.8167457999952603,1.1588539194466496,,psi_staircase_training,cRDM,,0.3546095744690497,0.36161092129536426,0.10606203002656786,566.9856373999974,1017,26,male,True,5669,5677,False,False,trough,inspiration
58,0.38,25,up,up,0.687080399999104,1.5326440591704973,,psi_staircase_training,cRDM,,0.33579878490349385,0.3429317268363466,0.10805553848818844,569.6022469999989,1017,26,male,True,5695,5702,False,False,expiration,expiration
59,0.35000000000000003,25,down,up,1.0129267000011168,1.3625284662058192,,psi_staircase_training,cRDM,,0.31782208253394256,0.3249720550198983,0.10831353099725742,571.9354458999987,1017,26,male,True,5718,5728,False,False,expiration,expiration
60,0.41,25,down,down,0.7635127999965334,0.8581722706329706,,psi_staircase_training,cRDM,,0.3802090138738961,0.38712606003695305,0.10478497581121576,574.1019980000019,1017,26,male,True,5740,5748,False,False,inspiration,expiration
61,0.4,25,down,down,0.7113603999969201,0.3548792579894923,,psi_staircase_training,cRDM,,0.3683317485518004,0.3751914040682512,0.10391557616074952,575.502002899997,1017,26,male,True,5754,5761,False,False,expiration,inspiration
62,0.4,25,up,up,0.6517125999962445,0.6251700121144567,,psi_staircase_training,cRDM,,0.3573248709371661,0.3640336778518085,0.10163040027511347,577.1186229999985,1017,26,male,True,5770,5777,False,False,inspiration,expiration
63,0.4,25,down,up,0.7874446000059834,0.6428770658582295,,psi_staircase_training,cRDM,,0.3479501384639377,0.3544107507010633,0.09787054777926564,578.7019265000017,1017,26,male,True,5786,5794,False,False,expiration,expiration
64,0.43,25,up,down,1.0541238000005249,1.1128972532638366,,psi_staircase_training,cRDM,,0.38998847681835214,0.3981267592557005,0.12328524463186565,580.8852273999983,1017,26,male,True,5808,5819,False,False,expiration,expiration
65,0.46,25,up,up,0.6156428000031156,1.190733954703774,,psi_staircase_training,cRDM,,0.4238554834130622,0.4321036547510864,0.12494993003771765,583.4017301000022,1017,26,male,True,5833,5839,False,False,inspiration,expiration
66,0.46,25,down,down,0.6333778000043822,0.4379558428716172,,psi_staircase_training,cRDM,,0.41706439172282,0.4254465782555924,0.1269800999410242,584.7350039999983,1017,26,male,True,5846,5852,False,False,expiration,expiration
67,0.42,25,down,down,1.0864442000020065,0.7879307593082637,,psi_staircase_training,cRDM,,0.4107638635248116,0.4191747277191127,0.1274145322115005,586.4349382999973,1017,26,male,True,5863,5874,False,False,inspiration,expiration
68,0.42,25,up,up,0.5461742000043159,0.8184328356702208,,psi_staircase_training,cRDM,,0.4020648578311982,0.4108368340893306,0.13288494804821865,588.6181875000002,1017,26,male,True,5885,5890,False,False,inspiration,inspiration
69,0.42,25,up,up,0.9019534999970348,1.7690644400450608,,psi_staircase_training,cRDM,,0.3934203663372357,0.4024363104447943,0.13658076915425338,591.2014240999961,1017,26,male,True,5911,5920,False,False,expiration,expiration
70,0.42,25,down,up,0.9140282000007574,1.8231840737086216,,psi_staircase_training,cRDM,,0.3849886779362763,0.3941461620404666,0.13872493080559387,594.2013110000007,1017,26,male,True,5941,5950,False,False,expiration,expiration
71,0.47,25,up,up,0.8254841999951168,0.7290898941578804,,psi_staircase_training,cRDM,,0.4127096116642979,0.4216752519331857,0.13581872616739474,596.1179152000004,1017,26,male,True,5960,5968,False,False,inspiration,inspiration
72,0.42,25,down,down,0.8462211000005482,0.6270641738639908,,psi_staircase_training,cRDM,,0.40819728931502,0.4170523614521736,0.1341437512234474,597.851177499997,1017,26,male,True,5978,5986,False,False,expiration,expiration
73,0.42,25,up,up,0.6202620999974897,1.3128008130991986,,psi_staircase_training,cRDM,,0.4008637757496032,0.41002104536857104,0.1387216816110204,600.3010825999992,1017,26,male,True,6002,6008,False,False,inspiration,inspiration
74,0.41,25,up,up,0.5554794999989099,1.4595241047502563,,psi_staircase_training,cRDM,,0.3935999298907916,0.4029717714651193,0.14197219008272066,602.6509597000004,1017,26,male,True,6025,6031,False,False,expiration,inspiration
75,0.41,25,down,down,0.922179999994114,1.4084053933669758,,psi_staircase_training,cRDM,,0.3861052721060261,0.3956736875790532,0.14495004952369658,604.8841734999987,1017,26,male,True,6048,6057,False,False,expiration,expiration
76,0.41,25,up,up,0.5361594000059995,1.1049039324269625,,psi_staircase_training,cRDM,,0.3787393402021321,0.3884393168456532,0.14694304389484034,607.1841750999993,1017,26,male,True,6071,6076,False,False,inspiration,inspiration
77,0.41,25,down,down,0.9249161000043388,1.7807100817513228,,psi_staircase_training,cRDM,,0.3715572404713435,0.381336476301818,0.14814372577435256,609.7674539999971,1017,26,male,True,6097,6106,False,False,expiration,expiration
78,0.42,25,down,up,0.5153651000000536,1.3720122585502228,,psi_staircase_training,cRDM,,0.3645993234571205,0.37441625950313057,0.14871483894605048,612.3339727000019,1017,26,male,True,6122,6127,False,False,inspiration,inspiration
79,0.41,25,down,down,0.9231469000005744,1.6235663890009788,,psi_staircase_training,cRDM,,0.38997554593945616,0.39990530659628004,0.1504239968490542,614.7672394000001,1017,26,male,True,6147,6156,False,False,expiration,expiration
80,0.41,25,up,up,0.9592258000047876,1.649827394424811,,psi_staircase_training,cRDM,,0.3835585709469559,0.39359756650716543,0.15207877497821418,617.6171170999987,1017,26,male,True,6175,6185,False,False,expiration,expiration
81,0.42,25,down,down,0.5286570000025677,0.9864516323476732,,psi_staircase_training,cRDM,,0.3772431945835685,0.3873566710039407,0.15320707092225774,619.8337038999998,1017,26,male,True,6197,6202,False,False,expiration,inspiration
82,0.4,25,up,up,0.5116941999949631,0.8651950703000046,,psi_staircase_training,cRDM,,0.3713531927199062,0.3814873292199269,0.15352004641717226,621.4836585999982,1017,26,male,True,6214,6219,False,False,inspiration,inspiration
83,0.4,25,up,down,0.966096700001799,0.8402772770973328,,psi_staircase_training,cRDM,,0.3650186524641422,0.3752085012356822,0.15436402069259567,623.1002520000002,1017,26,male,True,6230,6240,False,False,expiration,expiration
84,0.44,25,down,down,0.608367900000303,1.6104476525657505,,psi_staircase_training,cRDM,,0.3862368074883213,0.3963025924542348,0.1524846024315104,625.9670548999967,1017,26,male,True,6259,6265,False,False,inspiration,expiration
85,0.44,25,up,up,0.5603341999958502,0.4043554420990305,,psi_staircase_training,cRDM,,0.38154289232037225,0.3915742328728853,0.15196281076785564,627.2500775999979,1017,26,male,True,6271,6277,False,False,expiration,inspiration
86,100.0,25,M,down,1.1436264000003575,0.8642599129503978,,psi_staircase,emotion,,100.0,100.0,25.00050000000001,645.6827509999966,1017,26,male,True,6456,6467,False,False,expiration,expiration
87,145.0,25,M,up,0.5150695999982418,0.6463951961574409,,psi_staircase,emotion,,145.25719053245996,145.25719053245996,25.000500000000283,647.8493251,1017,26,male,True,6477,6482,False,False,expiration,inspiration
88,121.0,25,F,up,0.5286789000019779,0.6494617289133229,,psi_staircase,emotion,,120.36392901436103,120.36392901436103,25.71326925488699,649.3657475999971,1017,26,male,True,6493,6498,False,False,expiration,expiration
89,97.0,25,F,down,0.5627956000025733,0.6400441222828182,,psi_staircase,emotion,,102.38876106084959,102.38876106084959,26.14633372628729,650.8825647000012,1017,26,male,True,6508,6514,False,False,expiration,expiration
90,113.0,25,M,up,0.4942260000025272,0.8977508949374542,,psi_staircase,emotion,,114.01123255420406,114.01123255420406,23.003056417783352,652.6991634999978,1017,26,male,True,6526,6531,False,False,expiration,expiration
91,105.0,25,F,down,0.9866133999967132,0.8078468930251896,,psi_staircase,emotion,,104.94359593877377,104.94359593877377,22.15060322358215,654.3657811999982,1017,26,male,True,6543,6553,False,False,expiration,expiration
92,116.0,25,M,down,0.6413786000048276,0.8921712123570391,,psi_staircase,emotion,,111.58377353439043,111.58377353439043,20.59785325106301,656.5990140999967,1017,26,male,True,6565,6571,False,False,expiration,expiration
93,131.0,25,M,up,0.7010643000030541,0.44353085435802253,,psi_staircase,emotion,,119.22444233711107,119.22444233711107,26.33379145122974,658.0323246000007,1017,26,male,True,6579,6586,False,False,expiration,inspiration
94,129.0,25,F,up,0.8955056999984663,0.9460635876300124,,psi_staircase,emotion,,115.25120882513642,115.25120882513642,23.773562394969286,660.0488827999981,1017,26,male,True,6599,6608,False,False,expiration,expiration
95,100.0,25,F,down,0.6102237000013702,1.6715066768863331,,psi_staircase,emotion,,112.7078904442417,112.7078904442417,21.562133495044044,662.9821268999984,1017,26,male,True,6629,6635,False,False,expiration,inspiration
96,127.0,25,F,down,0.5683441000001039,0.5198872541988278,,psi_staircase,emotion,,114.91549407296937,114.91549407296937,19.18743550316675,664.4820656999982,1017,26,male,True,6644,6650,False,False,expiration,expiration
97,139.0,25,F,down,1.8489769999941927,1.6924181653140578,,psi_staircase,emotion,,120.47937512084611,120.47937512084611,26.248527516222314,667.1153191000012,1017,26,male,True,6670,6688,False,False,expiration,expiration
98,149.0,25,F,up,0.6818668999985675,0.7795645843386392,,psi_staircase,emotion,,127.0440593523414,127.0440593523414,32.44087341336444,670.0985236000015,1017,26,male,True,6700,6707,False,False,expiration,expiration
99,148.0,25,F,up,0.5545551999966847,1.2960638855081972,,psi_staircase,emotion,,124.75744183356251,124.75744183356251,31.05959062279408,672.4317663000003,1017,26,male,True,6723,6729,False,False,inspiration,expiration
100,99.0,25,M,down,0.616025900002569,0.5534637038534604,,psi_staircase,emotion,,122.96020496993849,122.96020496993849,29.76948230112857,673.8983886000024,1017,26,male,True,6738,6744,False,False,expiration,expiration
101,148.0,25,M,up,0.7027470999964862,0.6405950130124749,,psi_staircase,emotion,,124.4001993227432,124.4001993227432,28.560480106064592,675.4816687000019,1017,26,male,True,6754,6761,False,False,expiration,expiration
102,99.0,25,M,down,0.7591285000016796,0.4885462285605453,,psi_staircase,emotion,,123.01112917236357,123.01112917236357,27.25191043243029,676.9982637999965,1017,26,male,True,6769,6777,False,False,expiration,expiration
103,146.0,25,M,up,0.643842700003006,1.0831729434781272,,psi_staircase,emotion,,124.11827199084084,124.11827199084084,26.045050570778827,679.1815494000002,1017,26,male,True,6791,6797,False,False,expiration,expiration
104,101.0,25,F,down,0.619224199996097,0.5201453439963222,,psi_staircase,emotion,,122.96294966318243,122.96294966318243,24.7577861542418,680.6981309000003,1017,26,male,True,6806,6812,False,False,inspiration,expiration
105,145.0,25,M,up,0.6969421000030707,1.013005212689405,,psi_staircase,emotion,,123.89046482040482,123.89046482040482,23.58824209235309,682.6814130999957,1017,26,male,True,6826,6833,False,False,expiration,expiration
106,143.0,25,M,up,0.9788662999999359,1.2166993971737752,,psi_staircase,emotion,,122.95757548408359,122.95757548408359,22.391669076295923,684.9645463000015,1017,26,male,True,6849,6859,False,False,expiration,expiration
107,102.0,25,F,down,0.944497799995588,0.4495076061440169,,psi_staircase,emotion,,122.15763901982159,122.15763901982159,21.311060835471615,686.747894600001,1017,26,male,True,6866,6875,False,False,inspiration,expiration
108,141.0,25,M,up,0.6019044000058784,0.7997038732127864,,psi_staircase,emotion,,122.90962894419106,122.90962894419106,20.24358562549456,688.8645150999984,1017,26,male,True,6888,6894,False,False,inspiration,inspiration
109,104.0,25,F,down,0.6456944000019575,1.619500577200281,,psi_staircase,emotion,,122.2040033274833,122.2040033274833,19.28074210798226,691.4477272999976,1017,26,male,True,6913,6919,False,False,inspiration,inspiration
110,139.0,25,F,up,0.8883219000053941,0.5332794176768708,,psi_staircase,emotion,,122.85997692693766,122.85997692693766,18.348104991047272,692.9810207000011,1017,26,male,True,6929,6938,False,False,expiration,inspiration
111,106.0,25,M,down,1.5074231000035068,0.6507193939769038,,psi_staircase,emotion,,122.21549011557751,122.21549011557751,17.510852606970776,694.8809583000003,1017,26,male,True,6948,6963,False,False,expiration,expiration
112,136.0,25,M,up,1.1922715999971842,1.0900943530233342,,psi_staircase,emotion,,122.80751102596004,122.80751102596004,16.713265158301617,697.8641081999996,1017,26,male,True,6978,6990,False,False,expiration,expiration
113,108.0,25,F,down,0.5985797000030288,0.9083779058779664,,psi_staircase,emotion,,122.15186708966804,122.15186708966804,15.991659574810702,700.3307746999961,1017,26,male,True,7002,7008,False,False,inspiration,inspiration
114,133.0,25,M,up,0.7440190999986953,0.9333896522936678,,psi_staircase,emotion,,122.70759084738222,122.70759084738222,15.315143250640961,702.2473225999967,1017,26,male,True,7021,7028,False,False,expiration,expiration
115,131.0,25,F,up,0.7874731999982032,0.5455372037586301,,psi_staircase,emotion,,122.01243673504877,122.01243673504877,14.698209463628276,703.9139535999966,1017,26,male,True,7038,7046,False,False,trough,inspiration
116,129.0,25,F,up,0.721088400001463,0.5794332066521143,,psi_staircase,emotion,,121.31004865671268,121.31004865671268,14.146876737241021,705.6472219000025,1017,26,male,True,7055,7062,False,False,expiration,expiration
117,110.0,25,F,down,0.5729710000014165,1.6112761796707704,,psi_staircase,emotion,,120.58580815839916,120.58580815839916,13.649721198536492,708.3304564999962,1017,26,male,True,7082,7088,False,False,expiration,expiration
118,127.0,25,M,up,0.6743145000000368,0.3288309118344681,,psi_staircase,emotion,,121.12936008876251,121.12936008876251,13.093548631184671,709.597073699999,1017,26,male,True,7095,7102,False,False,expiration,inspiration
119,127.0,25,M,up,0.983417499999632,1.3463342863772605,,psi_staircase,emotion,,120.3725062228792,120.3725062228792,12.642697697066382,711.9469773999989,1017,26,male,True,7118,7128,False,False,expiration,expiration
120,126.0,25,M,up,0.8784815999970306,1.3404776716775295,,psi_staircase,emotion,,119.70460462455408,119.70460462455408,12.168405204445696,714.646870200002,1017,26,male,True,7145,7154,False,False,inspiration,expiration
121,125.0,25,F,up,0.7985802999974112,1.2023719458885342,,psi_staircase,emotion,,119.05525994628913,119.05525994628913,11.696330631846696,717.0968152999957,1017,26,male,True,7170,7178,False,False,inspiration,expiration
122,123.0,25,F,up,0.6761330000008456,1.2162773394205308,,psi_staircase,emotion,,118.4213324022288,118.4213324022288,11.220535886829925,719.4632965000018,1017,26,male,True,7194,7201,False,False,inspiration,inspiration
123,123.0,25,M,down,0.7857779999976628,1.561848496906453,,psi_staircase,emotion,,117.73315372717907,117.73315372717907,10.761034699338818,722.0466044999957,1017,26,male,True,7219,7227,False,False,expiration,expiration
124,108.0,25,F,down,1.0378784999993511,1.7569817883861338,,psi_staircase,emotion,,119.12947302641938,119.12947302641938,11.93360860871285,724.9465031999971,1017,26,male,True,7248,7258,False,False,inspiration,expiration
125,109.0,25,M,down,1.5409393000009004,0.6277821003227033,,psi_staircase,emotion,,119.47819296168363,119.47819296168363,11.430474013840993,726.9964395000025,1017,26,male,True,7269,7284,False,False,expiration,inspiration
126,129.0,25,M,up,0.5731027000001632,1.1931195236455876,,psi_staircase,emotion,,119.79693517335194,119.79693517335194,10.98255639432502,730.0962904000007,1017,26,male,True,7300,7306,False,False,inspiration,inspiration
127,110.0,25,M,down,0.6497467000008328,0.7595813041996111,,psi_staircase,emotion,,119.48076889340658,119.48076889340658,10.584433161254195,731.7796281000011,1017,26,male,True,7317,7323,False,False,inspiration,expiration
128,128.0,25,F,up,0.6575544000006629,1.3109930178990956,,psi_staircase,emotion,,119.77771475454428,119.77771475454428,10.187672628549887,734.112838099998,1017,26,male,True,7340,7347,False,False,expiration,expiration
129,128.0,25,F,up,0.8969110999969416,0.9751483813677267,,psi_staircase,emotion,,119.46430616429859,119.46430616429859,9.813775183847396,736.0794428999981,1017,26,male,True,7360,7369,False,False,inspiration,expiration
130,111.0,25,M,down,0.7968221000046469,1.1347864305056636,,psi_staircase,emotion,,119.18966035246237,119.18966035246237,9.46117489288694,738.4625682000004,1017,26,male,True,7384,7392,False,False,inspiration,expiration
131,127.0,25,F,down,1.7795585999992911,0.9488652727118554,,psi_staircase,emotion,,119.47339818831853,119.47339818831853,9.108262108076572,740.5628611999963,1017,26,male,True,7405,7423,False,False,expiration,expiration
132,111.0,25,F,down,1.684573400001682,1.1134134812196317,,psi_staircase,emotion,,120.55146650144172,120.55146650144172,10.408274356224062,743.7958093000017,1017,26,male,True,7437,7454,False,False,inspiration,expiration
133,111.0,25,M,down,0.5963757999998052,1.9020120194867132,,psi_staircase,emotion,,120.79803946291472,120.79803946291472,10.078009807042065,747.729015699999,1017,26,male,True,7476,7482,False,False,inspiration,inspiration
134,130.0,25,M,up,0.8858391000030679,1.0903933072704233,,psi_staircase,emotion,,121.01265088228588,121.01265088228588,9.777918832132396,749.7955944000023,1017,26,male,True,7497,7506,False,False,expiration,expiration
135,112.0,25,F,up,1.3048236000031466,0.5392685605286855,,psi_staircase,emotion,,120.7962434893662,120.7962434893662,9.490017119179669,751.5955374000005,1017,26,male,True,7515,7528,False,False,trough,expiration
136,0.29,25,up,up,0.6256415000025299,0.5503703573030585,,psi_staircase,cRDM,,0.25,0.25693124029946324,0.10500000000000002,755.9787449999968,1017,26,male,True,7559,7565,False,False,inspiration,expiration
137,0.25,25,up,up,0.6381149000008008,0.586948979898433,,psi_staircase,cRDM,,0.21910266653183127,0.2260132002683493,0.10468632033873933,757.4452816000012,1017,26,male,True,7573,7579,False,False,expiration,expiration
138,0.21,25,down,up,1.0191278999991482,1.7486390417234758,,psi_staircase,cRDM,,0.1900540959403307,0.19684979615540016,0.10294672984249993,760.0952579999976,1017,26,male,True,7600,7610,False,False,expiration,expiration
139,0.32,25,down,down,0.6076208000013139,0.8722207677059848,,psi_staircase,cRDM,,0.28193877959813873,0.2893209636160949,0.11183125795615867,762.2617700000011,1017,26,male,True,7622,7628,False,False,inspiration,expiration
140,0.29,25,up,up,0.6566334000017378,1.723778460843982,,psi_staircase,cRDM,,0.25942687694212696,0.2667634756990502,0.11114069577656796,764.8617420999982,1017,26,male,True,7648,7655,False,False,inspiration,expiration
141,0.27,25,down,up,1.2623942999998692,0.8098874656684849,,psi_staircase,cRDM,,0.23867195095052604,0.2458822432686335,0.10922730430510502,766.5949732999981,1017,26,male,True,7665,7678,False,False,expiration,inspiration
142,0.34,25,up,up,1.1651446999967447,1.970173797298131,,psi_staircase,cRDM,,0.3095700646318685,0.3173617612486154,0.11803488400507185,770.0782763999997,1017,26,male,True,7700,7712,False,False,inspiration,inspiration
143,0.33,25,down,down,0.4773081000021193,0.6112908677938467,,psi_staircase,cRDM,,0.2918098075291885,0.2995539490843272,0.1173144817028678,772.128111199996,1017,26,male,True,7720,7725,False,False,expiration,expiration
144,0.32,25,down,down,1.0503546000036297,1.0117206133409808,,psi_staircase,cRDM,,0.2760740137711686,0.2836649683739273,0.11499388260300147,773.8780437999994,1017,26,male,True,7738,7749,False,False,trough,inspiration
145,0.31,25,up,up,0.6554237000018475,1.1756299023512575,,psi_staircase,cRDM,,0.2624584113970729,0.2698322462424223,0.1117047779777088,776.3779630999962,1017,26,male,True,7763,7770,False,False,inspiration,inspiration
146,0.26,25,down,up,0.6571683000001939,1.822730815007422,,psi_staircase,cRDM,,0.25073450411271925,0.2578711164378538,0.10811114054105984,779.1111913999957,1017,26,male,True,7790,7797,False,False,expiration,expiration
147,0.32,25,down,down,0.7069644999937736,0.8035694145013399,,psi_staircase,cRDM,,0.2893572460461391,0.29535229088164905,0.09081775851535423,780.844438899996,1017,26,male,True,7807,7814,False,False,expiration,expiration
148,0.31,25,down,down,0.7936856000014814,1.1108259757858576,,psi_staircase,cRDM,,0.28057732653991674,0.286138026209083,0.08423794877053538,782.927719999996,1017,26,male,True,7828,7836,False,False,inspiration,inspiration
149,0.31,25,up,up,0.6235219000009238,1.4763129173635088,,psi_staircase,cRDM,,0.2734634563744305,0.2786218582005888,0.07814361764207776,785.4608622999987,1017,26,male,True,7854,7860,False,False,expiration,trough
150,0.3,25,up,up,0.6865410000027623,0.918375301151478,,psi_staircase,cRDM,,0.2682141001544855,0.2729734496764234,0.07209845254422644,787.2608180999997,1017,26,male,True,7872,7879,False,False,inspiration,expiration
151,0.29,25,down,up,1.4981803000046057,0.939685884118862,,psi_staircase,cRDM,,0.2635431434880233,0.2680073423354219,0.06762727285809847,789.144150600001,1017,26,male,True,7890,7905,False,False,expiration,inspiration
152,0.32,25,down,down,0.6414562999998452,1.5538965418472712,,psi_staircase,cRDM,,0.2864569542855869,0.29144165264922944,0.07551221795369037,792.4609573000017,1017,26,male,True,7924,7930,False,False,inspiration,inspiration
153,0.32,25,up,up,0.6583791000011843,0.7650900109667536,,psi_staircase,cRDM,,0.2821163005084025,0.2866361785080957,0.06847074541688371,794.1439913999966,1017,26,male,True,7941,7948,False,False,inspiration,expiration
154,0.32,25,up,up,0.6918799999984913,1.9515218586868732,,psi_staircase,cRDM,,0.2791368278634569,0.2832282865307907,0.061980704968966224,797.0105146999957,1017,26,male,True,7969,7976,False,False,expiration,expiration
155,0.3,25,up,up,0.7372968000054243,1.4659681899848518,,psi_staircase,cRDM,,0.27720367976647275,0.2809093964799239,0.05613717575806743,799.4270911999956,1017,26,male,True,7993,8000,False,False,inspiration,expiration
156,0.29,25,up,up,0.636706299999787,1.1687840285145794,,psi_staircase,cRDM,,0.2740743979118597,0.2776314989100141,0.05388582543230252,801.5936918999977,1017,26,male,True,8015,8021,False,False,expiration,expiration
157,0.28,25,down,down,1.0170091000036336,0.5630973429862889,,psi_staircase,cRDM,,0.2694099741708443,0.2730864560391004,0.05569430282149993,803.0603458000005,1017,26,male,True,8030,8040,False,False,inspiration,expiration
158,0.27,25,down,up,0.5429338999965694,1.7608063516385866,,psi_staircase,cRDM,,0.26248038784134303,0.266603932602911,0.06246677091806544,806.0934895999999,1017,26,male,True,8060,8065,False,False,inspiration,inspiration
159,0.29,25,down,down,1.25660240000434,0.7265603696118296,,psi_staircase,cRDM,,0.2799512044033605,0.2826845697075941,0.04140721494921318,807.6267996999995,1017,26,male,True,8075,8088,False,False,peak,expiration
160,0.29,25,up,up,0.5002286000017193,1.0267421380433366,,psi_staircase,cRDM,,0.2769740772670677,0.279716937293507,0.04155104863388201,810.1601064999959,1017,26,male,True,8101,8106,False,False,inspiration,inspiration
161,0.29,25,up,down,1.3857592999993358,0.9575930668798704,,psi_staircase,cRDM,,0.2743390308106753,0.27706586884398665,0.04130833460208523,811.8766347999954,1017,26,male,True,8118,8132,False,False,expiration,expiration
162,0.31,25,down,up,0.6568202999987989,0.30684111207031944,,psi_staircase,cRDM,,0.28406675127589137,0.2869513091483847,0.04369760151516454,813.8265685999977,1017,26,male,True,8137,8144,False,False,expiration,trough
163,0.33,25,down,down,0.7971928999977536,1.9930358514627875,,psi_staircase,cRDM,,0.2938645261926471,0.2997094362441848,0.08854339611613006,816.7431621999968,1017,26,male,True,8167,8175,False,False,expiration,expiration
164,0.33,25,up,up,0.6713198000070406,0.8314342287216743,,psi_staircase,cRDM,,0.2903648509331762,0.29569402942858103,0.08073067991320924,818.6430910000017,1017,26,male,True,8186,8193,False,False,trough,inspiration
165,0.33,25,up,up,0.8677502999998978,1.3014493562962923,,psi_staircase,cRDM,,0.2878406459421176,0.2926783067706584,0.07328477517019838,820.8596510999961,1017,26,male,True,8208,8217,False,False,expiration,expiration
166,0.33,25,down,down,0.7371084000042174,1.1802759985978302,,psi_staircase,cRDM,,0.2861202830702177,0.2904997849862828,0.06634421565537678,823.1762527999998,1017,26,male,True,8231,8238,False,False,inspiration,inspiration
167,0.33,25,up,up,0.9175705000016025,1.2176710099308976,,psi_staircase,cRDM,,0.2850403972618059,0.2890001900316524,0.05998612410914037,825.3928156000003,1017,26,male,True,8253,8262,False,False,expiration,expiration
168,0.3,25,down,down,0.7409216999949422,1.6835620568725416,,psi_staircase,cRDM,,0.2844551506462883,0.2880356131448782,0.05423972422093762,828.2594395000016,1017,26,male,True,8282,8289,False,False,expiration,expiration
169,0.3,25,up,up,0.598062500001106,1.8905522955412144,,psi_staircase,cRDM,,0.2817550860671305,0.28530034874216137,0.05370648899693644,831.159326500001,1017,26,male,True,8311,8317,False,False,expiration,expiration
170,0.3,25,down,down,0.8211645999981556,1.3911303598396425,,psi_staircase,cRDM,,0.27945778761145473,0.28293318468085804,0.052648108638739095,833.4092083999968,1017,26,male,True,8333,8341,False,False,expiration,expiration
171,0.3,25,up,up,0.6739544000010937,1.555123182664076,,psi_staircase,cRDM,,0.2775587506038313,0.2809375718363674,0.05118510022567914,836.0424125999962,1017,26,male,True,8360,8367,False,False,expiration,expiration
172,0.29,25,down,down,0.5654093999983161,1.9753153517039852,,psi_staircase,cRDM,,0.2760327875319873,0.2792958863166238,0.04943204355696073,838.9589326999957,1017,26,male,True,8389,8395,False,False,expiration,expiration
173,0.27,25,up,up,0.504800200003956,1.1373853197641244,,psi_staircase,cRDM,,0.27274334301440456,0.2761699120907901,0.05190842294824772,840.9255683999983,1017,26,male,True,8408,8413,False,False,expiration,expiration
174,0.26,25,up,down,0.6464400000040769,0.4675409219513688,,psi_staircase,cRDM,,0.26577023413082385,0.2699902483787884,0.06392816824870258,842.1589041000008,1017,26,male,True,8421,8427,False,False,expiration,inspiration
175,0.29,25,down,up,0.4404990999973961,0.4336285650809998,,psi_staircase,cRDM,,0.2792846915589336,0.28200507210097864,0.041210511333281866,843.5088391999997,1017,26,male,True,8434,8438,False,False,inspiration,expiration
176,0.3,25,down,down,0.7829629999978351,1.5625617383610648,,psi_staircase,cRDM,,0.2868385381675807,0.2893364709679953,0.03784069411990251,845.7754036000006,1017,26,male,True,8457,8465,False,False,expiration,expiration
177,0.3,25,down,up,0.5730283000011696,1.3107905694374875,,psi_staircase,cRDM,,0.285617066489364,0.2880051961114116,0.0361773073044972,848.1253333000022,1017,26,male,True,8480,8486,False,False,expiration,expiration
178,0.32,25,up,up,0.8130881000033696,0.9084442188528996,,psi_staircase,cRDM,,0.29090165858342104,0.2939032940731206,0.045471187377945706,849.8752625000017,1017,26,male,True,8498,8506,False,False,expiration,expiration
179,0.32,25,up,down,0.6528290999995079,0.4135899375543456,,psi_staircase,cRDM,,0.2905775406734557,0.29325494948865605,0.04055954107056508,851.3585758000007,1017,26,male,True,8513,8520,False,False,inspiration,inspiration
180,0.33,25,down,down,1.7539754000026733,1.6029879163163774,,psi_staircase,cRDM,,0.29197801299153925,0.2981733170339997,0.09385144596829496,853.8584107000024,1017,26,male,True,8538,8556,False,False,expiration,expiration
181,0.33,25,down,up,0.6186231000028783,1.755534155515446,,psi_staircase,cRDM,,0.29022069666890804,0.29593825510549804,0.08661417147641481,857.6249767000007,1017,26,male,True,8575,8581,False,False,inspiration,expiration
182,0.34,25,down,down,0.9567711999989116,0.4654351505759949,,psi_staircase,cRDM,,0.2988265120478261,0.30780450542666404,0.1360058610074422,858.9915870000003,1017,26,male,True,8589,8599,False,False,expiration,expiration
183,0.34,25,up,up,0.670545699998911,0.6121601314495094,,psi_staircase,cRDM,,0.29516657694840825,0.3038875582659308,0.1321124356936199,860.8248448999983,1017,26,male,True,8607,8614,False,False,inspiration,inspiration
184,0.34,25,up,down,1.5359396999992896,1.7217894667726386,,psi_staircase,cRDM,,0.2919425506354494,0.3003847316624282,0.1278889447681413,863.491424099997,1017,26,male,True,8634,8649,False,False,expiration,expiration
185,0.42,25,up,up,0.6060456999985036,1.2983220221109912,,psi_staircase,cRDM,,0.3053696812166809,0.31525261557975137,0.1497146345081636,866.5913219999967,1017,26,male,True,8665,8671,False,False,expiration,expiration
186,124.0,25,F,down,1.355356899999606,1.4821683134906605,,experiment,emotion,0.0,,,,873.7410047999983,1017,26,male,True,8737,8751,False,False,expiration,inspiration
187,115.0,25,M,up,1.280892099995981,1.4660216301320093,,experiment,emotion,0.0,,,,876.8574876999955,1017,26,male,True,8768,8781,False,False,expiration,expiration
188,121.0,25,F,up,0.8742873000010151,1.9067973337521096,,experiment,emotion,0.0,,,,880.3241205999983,1017,26,male,True,8802,8811,False,False,expiration,expiration
189,124.0,25,M,up,0.9356509000062944,1.2599545924569018,,experiment,emotion,0.0,,,,882.7407159999966,1017,26,male,True,8826,8835,False,False,inspiration,expiration
190,121.0,25,F,up,0.8437520000006771,1.0035172109839008,,experiment,emotion,0.0,,,,884.9406070000005,1017,26,male,True,8848,8856,False,False,inspiration,inspiration
191,118.0,25,F,up,0.8238023000012618,0.4395962085966937,,experiment,emotion,0.0,,,,886.540566599997,1017,26,male,True,8864,8872,False,False,inspiration,inspiration
192,115.0,25,M,up,0.9355174999946031,0.9475588668408126,,experiment,emotion,0.0,,,,888.5738393999964,1017,26,male,True,8885,8894,False,False,expiration,expiration
193,118.0,25,F,up,1.571585600002436,0.598004153096489,,experiment,emotion,0.0,,,,890.373773700001,1017,26,male,True,8903,8919,False,False,inspiration,expiration
194,124.0,25,M,up,1.2536789999940083,0.3151721793581509,,experiment,emotion,0.0,,,,892.5236831999972,1017,26,male,True,8924,8937,False,False,expiration,inspiration
195,118.0,25,M,up,0.9601078999985476,1.2288943632015683,,experiment,emotion,0.0,,,,895.2902544999997,1017,26,male,True,8952,8962,False,False,expiration,expiration
196,121.0,25,F,up,0.8478589000005741,1.0682865963623716,,experiment,emotion,0.0,,,,897.6235070000004,1017,26,male,True,8975,8983,False,False,inspiration,expiration
197,124.0,25,M,down,1.7063325999988592,1.900410938795596,,experiment,emotion,0.0,,,,900.640035499997,1017,26,male,True,9006,9023,False,False,inspiration,inspiration
198,121.0,25,M,,,1.880908330158336,,experiment,emotion,0.0,,,,904.4899437000023,1017,26,male,True,9044,0,False,False,inspiration,0
199,115.0,25,M,,,1.6586837007099429,,experiment,emotion,0.0,,,,908.8564187999983,1017,26,male,True,9088,0,False,False,peak,0
200,118.0,25,F,down,0.11690639999869745,1.7482091342411912,,experiment,emotion,0.0,,,,913.3229048999964,1017,26,male,True,9132,9133,False,False,inspiration,inspiration
201,115.0,25,F,down,1.4871562999978778,0.9802843689069884,,experiment,emotion,0.0,,,,915.0061963000007,1017,26,male,True,9149,9164,False,False,expiration,expiration
202,124.0,25,M,down,1.3209941000022811,0.4493770224064744,,experiment,emotion,0.0,,,,917.2394364999964,1017,26,male,True,9171,9184,False,False,inspiration,expiration
203,115.0,25,M,down,2.3156759000048623,1.3428585525507628,,experiment,emotion,0.0,,,,920.1726874999986,1017,26,male,True,9201,9224,False,False,inspiration,inspiration
204,121.0,25,F,up,0.9071579000010388,0.5546011474055672,,experiment,emotion,0.0,,,,923.3392114999988,1017,26,male,True,9232,9241,False,False,inspiration,inspiration
205,121.0,25,F,up,1.2882615999988047,0.723510543650402,,experiment,emotion,0.0,,,,925.2391361000008,1017,26,male,True,9251,9264,False,False,expiration,inspiration
206,118.0,25,M,down,1.8210526000038956,1.7534447674704623,,experiment,emotion,0.0,,,,928.5723704000012,1017,26,male,True,9285,9303,False,False,inspiration,expiration
207,118.0,25,F,up,1.3047807000039031,0.5422188200440492,,experiment,emotion,0.0,,,,931.2055927,1017,26,male,True,9311,9324,False,False,expiration,expiration
208,115.0,25,M,down,2.2285323999967663,0.793404487057543,,experiment,emotion,0.0,,,,933.5888382000012,1017,26,male,True,9335,9357,False,False,expiration,expiration
209,124.0,25,F,up,1.0346959000016795,1.2806342999769031,,experiment,emotion,0.0,,,,937.388715099998,1017,26,male,True,9373,9383,False,False,expiration,expiration
210,121.0,25,F,up,1.1217566000050283,0.9058844744763186,,experiment,emotion,0.0,,,,939.6385971000017,1017,26,male,True,9395,9406,False,False,expiration,inspiration
211,115.0,25,M,up,1.8672561999992467,1.8777623688042075,,experiment,emotion,0.0,,,,942.9051759999967,1017,26,male,True,9428,9447,False,False,expiration,expiration
212,124.0,25,M,up,0.9930219000016224,1.2463803796384143,,experiment,emotion,0.0,,,,946.2883745999969,1017,26,male,True,9462,9472,False,False,inspiration,inspiration
213,124.0,25,F,up,1.6914446000009775,1.1891704606068079,,experiment,emotion,0.0,,,,948.7549145999983,1017,26,male,True,9487,9504,False,False,expiration,expiration
214,118.0,25,M,down,1.5341843999995035,1.4027810015599926,,experiment,emotion,0.0,,,,952.1382013000003,1017,26,male,True,9520,9535,False,False,expiration,expiration
215,115.0,25,F,down,0.8929419999985839,0.4139916851528712,,experiment,emotion,0.0,,,,954.3714262999963,1017,26,male,True,9543,9552,False,False,expiration,inspiration
216,118.0,25,M,down,0.7057497999994666,0.3585554841551613,,experiment,emotion,0.0,,,,955.9046826000013,1017,26,male,True,9558,9565,False,False,inspiration,expiration
217,121.0,25,F,down,0.920734999999695,0.6942002225842538,,experiment,emotion,0.0,,,,957.604635599997,1017,26,male,True,9575,9584,False,True,expiration,inspiration
218,115.0,25,M,down,0.7949594000019715,0.7616988785003498,,experiment,emotion,0.0,,,,959.5544539000003,1017,26,male,True,9595,9603,True,True,inspiration,expiration
219,124.0,25,F,up,0.8819301999974414,0.8118124291477673,,experiment,emotion,0.0,,,,961.454474299997,1017,26,male,True,9614,9623,True,True,expiration,expiration
220,121.0,25,M,up,0.9633007000011276,1.6525977876481628,,experiment,emotion,0.0,,,,964.2710683000003,1017,26,male,True,9642,9652,False,False,expiration,expiration
221,124.0,25,F,down,0.7981799999979557,1.231027751631668,,experiment,emotion,0.0,,,,966.7541929999969,1017,26,male,True,9667,9675,False,False,inspiration,inspiration
222,115.0,25,M,down,1.9737201999960237,0.5467895253916467,,experiment,emotion,0.0,,,,968.3709192999997,1017,26,male,True,9683,9703,False,False,inspiration,inspiration
223,121.0,25,F,up,1.240922099997988,0.8818127024095139,,experiment,emotion,0.0,,,,971.4874635999986,1017,26,male,True,9714,9726,False,False,inspiration,expiration
224,118.0,25,M,up,1.3256655000004685,1.4917997326232295,,experiment,emotion,0.0,,,,974.5206999999973,1017,26,male,True,9744,9757,False,False,inspiration,inspiration
225,118.0,25,F,up,1.6278245000066818,1.9453624735013857,,experiment,emotion,0.0,,,,978.070548599997,1017,26,male,True,9780,9796,False,False,inspiration,inspiration
226,121.0,25,F,up,2.122240899996541,0.5537067645217302,,experiment,emotion,0.0,,,,980.5371034000017,1017,26,male,True,9804,9825,False,False,expiration,inspiration
227,124.0,25,M,up,1.231372399997781,0.9251080137089952,,experiment,emotion,0.0,,,,983.8870009999993,1017,26,male,True,9838,9850,False,False,inspiration,expiration
228,118.0,25,F,up,1.5659064999999828,0.9538769107943256,,experiment,emotion,0.0,,,,986.3535135999956,1017,26,male,True,9863,9879,False,False,expiration,inspiration
229,115.0,25,M,down,1.4879313999990702,0.5368084197694479,,experiment,emotion,0.0,,,,988.7534827999953,1017,26,male,True,9887,9902,False,False,inspiration,expiration
230,115.0,25,M,down,0.7013036999996984,1.7141865189907048,,experiment,emotion,0.0,,,,992.2200761999956,1017,26,male,True,9921,9928,False,False,expiration,trough
231,118.0,25,F,up,0.7980533000009018,0.6218152675053794,,experiment,emotion,0.0,,,,993.8033307999975,1017,26,male,True,9937,9945,False,False,inspiration,expiration
232,124.0,25,F,down,0.7635150999994949,1.752693668859899,,experiment,emotion,0.0,,,,996.6198600000024,1017,26,male,True,9965,9973,False,False,inspiration,inspiration
233,121.0,25,M,down,2.4073183000000427,0.3685318505484239,,experiment,emotion,0.0,,,,998.053018900002,1017,26,male,True,9980,10004,False,False,expiration,expiration
234,115.0,25,F,up,1.487339899998915,0.3755958849379023,,experiment,emotion,0.0,,,,1001.1030283999972,1017,26,male,True,10010,10025,False,False,expiration,inspiration
235,124.0,25,M,up,0.7734213000003365,0.4873892125367201,,experiment,emotion,0.0,,,,1003.3529519999976,1017,26,male,True,10033,10041,False,False,inspiration,expiration
236,121.0,25,M,up,0.8932036999976845,1.138463027906191,,experiment,emotion,0.0,,,,1005.5361852000025,1017,26,male,True,10054,10063,False,False,expiration,inspiration
237,121.0,25,M,down,1.2845885999995517,0.39981544210886,,experiment,emotion,0.0,,,,1007.102822799996,1017,26,male,True,10070,10083,False,False,inspiration,expiration
238,115.0,25,M,down,0.7227220000058878,0.6968883435404325,,experiment,emotion,0.0,,,,1009.3526932999994,1017,26,male,True,10093,10100,False,False,expiration,expiration
239,118.0,25,M,down,1.5857009999963338,1.2761137502349271,,experiment,emotion,0.0,,,,1011.6526607000013,1017,26,male,True,10116,10132,False,False,inspiration,expiration
240,124.0,25,F,down,1.9188557000015865,1.5478343178136802,,experiment,emotion,0.0,,,,1015.0525263999988,1017,26,male,True,10150,10169,False,False,expiration,inspiration
241,118.0,25,F,up,0.9496959000025528,0.6944477760829848,,experiment,emotion,0.0,,,,1017.9357156000003,1017,26,male,True,10179,10188,False,False,inspiration,expiration
242,118.0,25,F,up,0.7997883999996702,1.440657254944412,,experiment,emotion,0.0,,,,1020.5856497999956,1017,26,male,True,10205,10213,False,False,trough,inspiration
243,118.0,25,M,up,0.8744724999996834,0.8683960758458191,,experiment,emotion,0.0,,,,1022.5189145000003,1017,26,male,True,10224,10233,False,False,inspiration,expiration
244,124.0,25,F,up,0.8255284999977448,1.0993395368983747,,experiment,emotion,0.0,,,,1024.768844000002,1017,26,male,True,10247,10255,False,False,expiration,inspiration
245,121.0,25,F,up,0.7699346999943373,0.4456680281537116,,experiment,emotion,0.0,,,,1026.3354370999987,1017,26,male,True,10262,10270,False,False,inspiration,inspiration
246,115.0,25,F,up,1.232704100002593,0.7192752588363838,,experiment,emotion,0.0,,,,1028.1187033999997,1017,26,male,True,10280,10292,False,False,expiration,expiration
247,115.0,25,M,down,0.9127566999959528,1.211355327697888,,experiment,emotion,0.0,,,,1030.8186139999998,1017,26,male,True,10307,10316,False,False,inspiration,inspiration
248,121.0,25,F,up,1.740870100002212,1.0698182441163058,,experiment,emotion,0.0,,,,1033.0685059999996,1017,26,male,True,10330,10347,False,False,expiration,expiration
249,124.0,25,M,up,1.2664296000002648,1.4123251642995702,,experiment,emotion,0.0,,,,1036.5349510999986,1017,26,male,True,10365,10378,False,False,inspiration,expiration
250,124.0,25,M,up,0.8987191999985953,0.3428788164759883,,experiment,emotion,0.0,,,,1038.4016786999964,1017,26,male,True,10383,10392,False,False,expiration,inspiration
251,115.0,25,F,up,0.82113670000399,0.8518296262960658,,experiment,emotion,0.0,,,,1040.4182381999963,1017,26,male,True,10403,10411,False,False,inspiration,expiration
252,124.0,25,M,up,0.8315285999997286,0.6706518703636171,,experiment,emotion,0.0,,,,1042.1848517,1017,26,male,True,10421,10429,False,False,expiration,expiration
253,118.0,25,F,up,0.9549480000059702,1.6799394878183425,,experiment,emotion,0.0,,,,1045.0014139000014,1017,26,male,True,10449,10459,False,False,inspiration,expiration
254,121.0,25,M,up,1.2610777000008966,1.946475383812256,,experiment,emotion,0.0,,,,1048.2013031999998,1017,26,male,True,10481,10494,False,False,inspiration,inspiration
255,118.0,25,F,up,1.0185998000015388,1.4693351761610156,,experiment,emotion,0.0,,,,1051.2178588999998,1017,26,male,True,10511,10521,False,False,inspiration,expiration
256,115.0,25,M,up,0.8612539000023389,0.8381161176599286,,experiment,emotion,0.0,,,,1053.4011227999981,1017,26,male,True,10533,10542,False,False,expiration,expiration
257,121.0,25,F,down,1.816357199997583,0.9162856075982332,,experiment,emotion,0.0,,,,1055.4510255999958,1017,26,male,True,10554,10572,False,False,inspiration,expiration
258,118.0,25,F,down,2.2771837999971467,1.9348260894738418,,experiment,emotion,0.0,,,,1059.4842207000004,1017,26,male,True,10594,10617,False,False,expiration,expiration
259,121.0,25,F,down,0.7202431000041543,0.7506901250241443,,experiment,emotion,0.0,,,,1062.784138400002,1017,26,male,True,10627,10634,False,False,expiration,inspiration
260,115.0,25,F,down,0.6953869000062696,1.5954072718537375,,experiment,emotion,0.0,,,,1065.3839936999975,1017,26,male,True,10653,10660,False,False,expiration,expiration
261,124.0,25,F,down,0.9880845000006956,0.6936760269221945,,experiment,emotion,0.0,,,,1067.0672904999992,1017,26,male,True,10670,10680,False,False,expiration,inspiration
262,121.0,25,M,down,1.2526446999982,1.9921528079419923,,experiment,emotion,0.0,,,,1070.3337686999982,1017,26,male,True,10703,10716,False,False,expiration,inspiration
263,124.0,25,M,up,1.5533339999965392,1.0674203525659265,,experiment,emotion,0.0,,,,1072.9170486999974,1017,26,male,True,10728,10744,False,False,peak,expiration
264,115.0,25,M,up,0.6364612999968813,0.3797876675696573,,experiment,emotion,0.0,,,,1075.1169666000023,1017,26,male,True,10750,10756,False,False,trough,inspiration
265,118.0,25,M,up,0.5247755000018515,0.3976746993425621,,experiment,emotion,0.0,,,,1076.4336076,1017,26,male,True,10764,10769,False,False,inspiration,expiration
266,0.30232377985142705,25,up,up,0.7366274000014528,1.2207134667196475,,experiment,cRDM,0.0,,,,1171.296785900002,1017,26,male,True,11712,11719,False,False,expiration,expiration
267,0.30232377985142705,25,up,up,0.5840798999997787,0.8205337648139999,,experiment,cRDM,0.0,,,,1173.1133673999975,1017,26,male,True,11730,11736,False,False,inspiration,inspiration
268,0.30232377985142705,25,down,down,1.256472599998233,1.7631115286170276,,experiment,cRDM,0.0,,,,1175.7299113000008,1017,26,male,True,11757,11770,False,False,inspiration,inspiration
269,0.30232377985142705,25,down,down,0.6824699999997392,1.3093481579793165,,experiment,cRDM,0.0,,,,1178.5798583999967,1017,26,male,True,11785,11792,False,False,expiration,expiration
270,0.30232377985142705,25,up,up,1.2108680000019376,0.32743987445463585,,experiment,cRDM,0.0,,,,1179.8465267999966,1017,26,male,True,11798,11810,False,False,inspiration,peak
271,0.30232377985142705,25,down,down,0.7180239000008442,1.6722641181984834,,experiment,cRDM,0.0,,,,1182.9963577999988,1017,26,male,True,11829,11836,False,False,expiration,expiration
272,0.30232377985142705,25,up,up,0.7067544000019552,0.30223877495294216,,experiment,cRDM,0.0,,,,1184.2796506999985,1017,26,male,True,11842,11849,False,False,inspiration,inspiration
273,0.30232377985142705,25,up,down,1.2845517000023392,0.7273089273660112,,experiment,cRDM,0.0,,,,1185.9629117999975,1017,26,male,True,11859,11872,False,False,expiration,inspiration
274,0.30232377985142705,25,down,down,0.8819583000004059,1.267150211625775,,experiment,cRDM,0.0,,,,1188.7794687000026,1017,26,male,True,11887,11896,False,False,peak,expiration
275,0.30232377985142705,25,down,up,1.1180776999972295,1.0060205719099435,,experiment,cRDM,0.0,,,,1190.929324599998,1017,26,male,True,11909,11920,False,False,inspiration,inspiration
276,0.30232377985142705,25,down,up,1.2873823999980232,1.723146307374191,,experiment,cRDM,0.0,,,,1194.0459952999988,1017,26,male,True,11940,11953,False,False,expiration,expiration
277,0.30232377985142705,25,down,down,0.7618625999966753,0.7580991459431761,,experiment,cRDM,0.0,,,,1196.3625204999953,1017,26,male,True,11963,11971,False,False,inspiration,inspiration
278,0.30232377985142705,25,down,up,2.02629159999924,1.133711271215616,,experiment,cRDM,0.0,,,,1198.5290894999962,1017,26,male,True,11985,12005,False,False,expiration,inspiration
279,0.30232377985142705,25,down,up,1.5510664000030374,1.329677532955745,,experiment,cRDM,0.0,,,,1202.1623614999953,1017,26,male,True,12021,12037,False,False,expiration,expiration
280,0.30232377985142705,25,up,up,0.6658246000006329,1.059221753795228,,experiment,cRDM,0.0,,,,1205.045562700001,1017,26,male,True,12050,12057,False,False,expiration,expiration
281,0.30232377985142705,25,up,up,0.8272829999987152,1.543381574147605,,experiment,cRDM,0.0,,,,1207.5121268999976,1017,26,male,True,12074,12082,False,False,inspiration,expiration
282,0.30232377985142705,25,up,up,1.127992699999595,0.4295256272371535,,experiment,cRDM,0.0,,,,1209.0454333999987,1017,26,male,True,12090,12101,False,False,expiration,inspiration
283,0.30232377985142705,25,up,up,0.9618368000010378,1.0871559540432487,,experiment,cRDM,0.0,,,,1211.5285494999953,1017,26,male,True,12115,12125,False,False,expiration,expiration
284,0.30232377985142705,25,down,down,0.933115400002862,0.4904883419558441,,experiment,cRDM,0.0,,,,1213.2452597999984,1017,26,male,True,12132,12141,False,False,expiration,inspiration
285,0.30232377985142705,25,up,down,0.8659202999988338,1.5897909689100356,,experiment,cRDM,0.0,,,,1216.0284460000005,1017,26,male,True,12160,12169,False,False,expiration,expiration
286,0.30232377985142705,25,up,up,0.7367425999982515,1.956039351739128,,experiment,cRDM,0.0,,,,1219.1116738000019,1017,26,male,True,12190,12197,False,False,expiration,expiration
287,0.30232377985142705,25,down,down,0.5923729999994976,0.5320167803259999,,experiment,cRDM,0.0,,,,1220.6450193999956,1017,26,male,True,12206,12212,False,False,inspiration,inspiration
288,0.30232377985142705,25,up,up,0.7978169000052729,1.2058247671422329,,experiment,cRDM,0.0,,,,1222.7115616999981,1017,26,male,True,12226,12234,False,False,expiration,expiration
289,0.30232377985142705,25,down,down,0.8148914999983391,0.330342159315716,,experiment,cRDM,0.0,,,,1224.1115115999964,1017,26,male,True,12240,12248,False,False,trough,inspiration
290,0.30232377985142705,25,down,down,0.9089735000015936,0.9062528104911051,,experiment,cRDM,0.0,,,,1226.1114396000012,1017,26,male,True,12260,12269,False,False,expiration,expiration
291,0.30232377985142705,25,up,up,1.0744948999999906,0.5282815297437268,,experiment,cRDM,0.0,,,,1227.8278948999978,1017,26,male,True,12278,12289,False,False,expiration,inspiration
292,0.30232377985142705,25,up,up,0.7681574000016553,1.8648117530435533,,experiment,cRDM,0.0,,,,1231.0112448999969,1017,26,male,True,12309,12317,False,False,expiration,expiration
293,0.30232377985142705,25,down,down,1.1402828999998746,1.969950028987996,,experiment,cRDM,0.0,,,,1234.0111265999985,1017,26,male,True,12339,12350,False,False,expiration,expiration
294,0.30232377985142705,25,up,up,0.6893273000023328,1.1408021544216016,,experiment,cRDM,0.0,,,,1236.561062799996,1017,26,male,True,12365,12372,False,False,inspiration,inspiration
295,0.30232377985142705,25,down,down,1.1300579000017024,0.6802813592308732,,experiment,cRDM,0.0,,,,1238.1943285999987,1017,26,male,True,12381,12392,False,False,expiration,expiration
296,0.30232377985142705,25,down,down,2.0745452999981358,1.776824738367721,,experiment,cRDM,0.0,,,,1241.3608934999975,1017,26,male,True,12413,12434,False,False,expiration,inspiration
297,0.30232377985142705,25,down,down,1.1662982999987437,0.6923332777107492,,experiment,cRDM,0.0,,,,1244.394099000001,1017,26,male,True,12443,12455,False,False,inspiration,expiration
298,0.30232377985142705,25,up,,,0.6211228461616463,,experiment,cRDM,0.0,,,,1246.4440572999993,1017,26,male,True,12464,0,False,False,expiration,0
299,0.30232377985142705,25,up,up,0.6092023000019253,0.4023663252153249,,experiment,cRDM,0.0,,,,1249.5105566999955,1017,26,male,True,12494,12500,False,False,expiration,expiration
300,0.30232377985142705,25,up,up,1.0201967999964836,0.40240917796599024,,experiment,cRDM,0.0,,,,1250.7772117999955,1017,26,male,True,12507,12517,False,False,inspiration,inspiration
301,0.30232377985142705,25,down,down,0.6575776999961818,0.992243223368588,,experiment,cRDM,0.0,,,,1253.043814599998,1017,26,male,True,12530,12537,False,False,expiration,expiration
302,0.30232377985142705,25,down,down,1.6640833999990718,1.651779807732236,,experiment,cRDM,0.0,,,,1255.6103533999958,1017,26,male,True,12555,12572,False,False,inspiration,expiration
303,0.30232377985142705,25,up,down,2.349449900000764,1.4377134771428703,,experiment,cRDM,0.0,,,,1258.976924300001,1017,26,male,True,12589,12612,False,False,inspiration,expiration
304,0.30232377985142705,25,down,down,1.6340119999949818,1.1615121789572431,,experiment,cRDM,0.0,,,,1262.7434415999996,1017,26,male,True,12627,12643,False,False,inspiration,expiration
305,0.30232377985142705,25,up,up,0.6047896000018227,1.484001869189795,,experiment,cRDM,0.0,,,,1266.126561299996,1017,26,male,True,12661,12667,False,False,inspiration,inspiration
306,0.30232377985142705,25,up,up,0.7037335999993957,0.6256785282009323,,experiment,cRDM,0.0,,,,1267.6266088000011,1017,26,male,True,12676,12683,False,False,expiration,expiration
307,0.30232377985142705,25,up,up,0.7225846000001184,1.1210198940938385,,experiment,cRDM,0.0,,,,1269.7098194999962,1017,26,male,True,12696,12703,True,True,inspiration,inspiration
308,0.30232377985142705,25,down,up,0.7489648999980999,0.7738022639027942,,experiment,cRDM,0.0,,,,1271.4764481999991,1017,26,male,True,12714,12721,True,True,expiration,expiration
309,0.30232377985142705,25,down,up,1.0183167000068352,1.0596646858342416,,experiment,cRDM,0.0,,,,1273.5430731999984,1017,26,male,True,12735,12745,True,True,inspiration,expiration
310,0.30232377985142705,25,up,up,0.5758279000001494,1.989162982042724,,experiment,cRDM,0.0,,,,1276.8095525999995,1017,26,male,True,12767,12773,True,True,inspiration,inspiration
311,0.30232377985142705,25,down,up,1.0576234999971348,1.6390893385913556,,experiment,cRDM,0.0,,,,1279.2928040000004,1017,26,male,True,12792,12803,True,True,expiration,expiration
312,0.30232377985142705,25,down,up,1.3643315999943295,1.9614576825699979,,experiment,cRDM,0.0,,,,1282.576032699999,1017,26,male,True,12825,12839,False,False,expiration,expiration
313,0.30232377985142705,25,up,up,1.1244409999999334,0.7181112104981506,,experiment,cRDM,0.0,,,,1284.9259541999966,1017,26,male,True,12849,12860,False,False,inspiration,expiration
314,0.30232377985142705,25,up,down,1.015589299997373,1.656416895523716,,experiment,cRDM,0.0,,,,1287.9758382999973,1017,26,male,True,12879,12889,False,False,expiration,expiration
315,0.30232377985142705,25,down,down,0.5520070999991731,1.6267345898819685,,experiment,cRDM,0.0,,,,1290.8924073999988,1017,26,male,True,12908,12914,False,False,expiration,expiration
316,0.30232377985142705,25,up,up,0.8250308999995468,1.1363556213833024,,experiment,cRDM,0.0,,,,1292.8423596999965,1017,26,male,True,12928,12936,False,False,inspiration,inspiration
317,0.30232377985142705,25,down,down,0.9808619999967049,1.7358656869770848,,experiment,cRDM,0.0,,,,1295.6755356999965,1017,26,male,True,12956,12966,False,False,expiration,inspiration
318,0.30232377985142705,25,down,down,1.0692462000006344,0.9734848412826196,,experiment,cRDM,0.0,,,,1297.8921358999978,1017,26,male,True,12978,12989,False,False,expiration,expiration
319,0.30232377985142705,25,down,down,0.7442758999968646,0.3592593244210308,,experiment,cRDM,0.0,,,,1299.5920683999975,1017,26,male,True,12995,13002,False,False,expiration,inspiration
320,0.30232377985142705,25,up,up,0.6757459000000381,1.0025019474312709,,experiment,cRDM,0.0,,,,1301.6086411999968,1017,26,male,True,13015,13022,False,False,expiration,trough
321,0.30232377985142705,25,up,up,0.9227828000002772,0.705499784206137,,experiment,cRDM,0.0,,,,1303.258608799999,1017,26,male,True,13032,13041,False,False,inspiration,expiration
322,0.30232377985142705,25,down,up,1.1902515000037963,0.9322699382835132,,experiment,cRDM,0.0,,,,1305.375173999997,1017,26,male,True,13053,13065,False,False,expiration,inspiration
323,0.30232377985142705,25,down,down,1.6286313999953563,1.3257031911338566,,experiment,cRDM,0.0,,,,1308.1417804999985,1017,26,male,True,13081,13097,False,False,expiration,expiration
324,0.30232377985142705,25,up,up,0.8217562999998336,1.208289492694929,,experiment,cRDM,0.0,,,,1311.2416621999982,1017,26,male,True,13112,13120,False,False,inspiration,expiration
325,0.30232377985142705,25,up,up,0.6961964000001899,1.7344647517423954,,experiment,cRDM,0.0,,,,1314.0582418000013,1017,26,male,True,13140,13147,False,False,inspiration,inspiration
326,0.30232377985142705,25,up,up,0.7842374999963795,1.0893882842372278,,experiment,cRDM,0.0,,,,1316.1081718000025,1017,26,male,True,13160,13168,False,False,inspiration,expiration
327,0.30232377985142705,25,up,up,0.8043264000007184,0.7981566384181831,,experiment,cRDM,0.0,,,,1317.958100699998,1017,26,male,True,13179,13187,False,False,expiration,expiration
328,0.30232377985142705,25,up,up,0.6747099999993225,0.8096944422665173,,experiment,cRDM,0.0,,,,1319.8246869999964,1017,26,male,True,13198,13205,False,False,inspiration,inspiration
329,0.30232377985142705,25,down,down,0.7910815999930492,0.5641014097731039,,experiment,cRDM,0.0,,,,1321.341289,1017,26,male,True,13213,13221,False,False,expiration,expiration
330,0.30232377985142705,25,down,up,0.7315505000005942,1.7103466468650426,,experiment,cRDM,0.0,,,,1324.1078299999972,1017,26,male,True,13240,13247,False,False,expiration,expiration
331,0.30232377985142705,25,up,up,0.9259807000053116,1.0749985155443982,,experiment,cRDM,0.0,,,,1326.1744126000012,1017,26,male,True,13261,13270,False,False,inspiration,inspiration
332,0.30232377985142705,25,down,down,0.6630739999964135,1.1101350742494125,,experiment,cRDM,0.0,,,,1328.474322799997,1017,26,male,True,13284,13291,False,False,expiration,expiration
333,0.30232377985142705,25,down,down,1.1322843000016292,1.1112966586822148,,experiment,cRDM,0.0,,,,1330.5241230999998,1017,26,male,True,13305,13316,False,False,inspiration,peak
334,0.30232377985142705,25,down,down,0.7299189000041224,1.7382309378919407,,experiment,cRDM,0.0,,,,1333.6574719999953,1017,26,male,True,13336,13343,False,False,expiration,expiration
335,0.30232377985142705,25,up,up,1.18625510000129,0.4268514768906029,,experiment,cRDM,0.0,,,,1335.0740970000004,1017,26,male,True,13350,13362,False,False,expiration,inspiration
336,0.30232377985142705,25,down,down,0.9584431000039332,1.0088006723936551,,experiment,cRDM,0.0,,,,1337.5239867999953,1017,26,male,True,13375,13385,False,False,peak,expiration
337,0.30232377985142705,25,down,down,1.1044633999990765,1.3774133899217882,,experiment,cRDM,0.0,,,,1340.1239392000025,1017,26,male,True,13401,13412,False,False,inspiration,expiration
338,0.30232377985142705,25,down,down,0.8476093999997829,1.8904342702376202,,experiment,cRDM,0.0,,,,1343.373785300002,1017,26,male,True,13433,13441,False,False,inspiration,expiration
339,0.30232377985142705,25,up,up,0.9769795999964116,0.5095251156376656,,experiment,cRDM,0.0,,,,1344.9904145,1017,26,male,True,13449,13459,False,False,expiration,trough
340,0.30232377985142705,25,up,down,1.367742599999474,1.5414184953891046,,experiment,cRDM,0.0,,,,1347.773636599999,1017,26,male,True,13477,13491,False,False,expiration,expiration
341,0.30232377985142705,25,down,down,0.6518266999992193,1.2715600014891986,,experiment,cRDM,0.0,,,,1350.673525000002,1017,26,male,True,13506,13513,False,False,inspiration,inspiration
342,0.30232377985142705,25,up,up,0.8246501999965403,0.7137814574758103,,experiment,cRDM,0.0,,,,1352.3067827000011,1017,26,male,True,13522,13530,False,False,expiration,expiration
343,0.30232377985142705,25,down,down,1.039746299997205,1.7012413610456163,,experiment,cRDM,0.0,,,,1355.1066820000015,1017,26,male,True,13550,13560,False,False,inspiration,expiration
344,0.30232377985142705,25,up,up,0.7914691000041785,1.6740820540946142,,experiment,cRDM,0.0,,,,1358.0899227000011,1017,26,male,True,13580,13588,False,False,expiration,expiration
345,0.30232377985142705,25,up,down,0.8604039999991073,0.7297345756387597,,experiment,cRDM,0.0,,,,1359.8731810999998,1017,26,male,True,13598,13607,False,False,inspiration,expiration
346,124.0,25,M,up,1.0417659000013373,0.5875363624679553,,experiment,emotion,1.0,,,,1373.872668,1017,26,male,True,13738,13748,False,False,expiration,inspiration
347,115.0,25,M,up,0.6774568000037107,0.5829875272882016,,experiment,emotion,1.0,,,,1375.8059381999954,1017,26,male,True,13757,13764,False,False,inspiration,expiration
348,121.0,25,F,down,2.2199118999997154,1.9940572948309283,,experiment,emotion,1.0,,,,1378.7724875000022,1017,26,male,True,13787,13809,False,False,inspiration,expiration
349,124.0,25,F,up,0.8973492000004626,1.0168517838184683,,experiment,emotion,1.0,,,,1382.2890485999994,1017,26,male,True,13822,13831,False,False,trough,inspiration
350,121.0,25,M,up,1.5391149000060975,1.0651283249045551,,experiment,emotion,1.0,,,,1384.5222781000011,1017,26,male,True,13845,13860,False,False,expiration,expiration
351,118.0,25,F,up,1.0431727999966824,0.8046704098443211,,experiment,emotion,1.0,,,,1387.1722109000002,1017,26,male,True,13871,13881,False,False,trough,inspiration
352,115.0,25,M,up,0.7779526000012993,0.5222269237725556,,experiment,emotion,1.0,,,,1389.005478199997,1017,26,male,True,13889,13897,False,False,expiration,expiration
353,118.0,25,M,down,1.1047146999990218,1.4931598370168808,,experiment,emotion,1.0,,,,1391.5386762000014,1017,26,male,True,13915,13926,False,False,inspiration,expiration
354,124.0,25,F,down,0.8555219000045327,1.4751312819451239,,experiment,emotion,1.0,,,,1394.3719234999992,1017,26,male,True,13943,13952,False,False,expiration,expiration
355,118.0,25,F,up,0.7922441999980947,1.9450048690148312,,experiment,emotion,1.0,,,,1397.4551495000014,1017,26,male,True,13974,13982,False,False,inspiration,expiration
356,121.0,25,F,up,0.7654045000017504,0.8598528758076123,,experiment,emotion,1.0,,,,1399.4050481999984,1017,26,male,True,13993,14001,False,False,expiration,expiration
357,124.0,25,F,up,1.123713699998916,1.6284309234773304,,experiment,emotion,1.0,,,,1402.0716537000005,1017,26,male,True,14020,14031,False,False,inspiration,expiration
358,121.0,25,F,up,1.5298335999978008,0.5577004671076353,,experiment,emotion,1.0,,,,1404.021564599996,1017,26,male,True,14040,14055,False,False,trough,inspiration
359,115.0,25,F,up,0.8645999000000302,0.7436504460901346,,experiment,emotion,1.0,,,,1406.6047992999993,1017,26,male,True,14065,14074,False,False,expiration,expiration
360,118.0,25,M,down,0.8123122000033618,0.6509108130348319,,experiment,emotion,1.0,,,,1408.3880817999998,1017,26,male,True,14083,14091,False,False,expiration,inspiration
361,115.0,25,M,down,1.7740770999953384,1.4014056623914095,,experiment,emotion,1.0,,,,1410.8713212999976,1017,26,male,True,14108,14126,False,False,inspiration,expiration
362,124.0,25,M,up,0.98787319999974,1.395982998040208,,experiment,emotion,1.0,,,,1414.3045038000018,1017,26,male,True,14142,14152,False,False,inspiration,inspiration
363,115.0,25,M,up,0.8048987000001944,0.59855438203902,,experiment,emotion,1.0,,,,1416.1544763000022,1017,26,male,True,14161,14169,False,False,expiration,expiration
364,121.0,25,F,down,1.1163953999930527,1.21046169340857,,experiment,emotion,1.0,,,,1418.471026299998,1017,26,male,True,14184,14195,False,False,expiration,inspiration
365,121.0,25,M,,,1.8261958826754188,,experiment,emotion,1.0,,,,1421.6875943000016,1017,26,male,True,14216,0,False,False,expiration,0
366,118.0,25,M,down,0.7590495000040391,1.2792546483162577,,experiment,emotion,1.0,,,,1425.6874186999958,1017,26,male,True,14256,14264,False,False,inspiration,expiration
367,118.0,25,F,down,0.8396657000048435,0.9447279596677152,,experiment,emotion,1.0,,,,1427.6707167999955,1017,26,male,True,14276,14284,False,False,trough,inspiration
368,115.0,25,M,down,2.0617398000031244,0.758831344066955,,experiment,emotion,1.0,,,,1429.5706283,1017,26,male,True,14295,14316,False,False,expiration,expiration
369,124.0,25,F,up,2.0212383000034606,1.9366439294299391,,experiment,emotion,1.0,,,,1433.8871388000007,1017,26,male,True,14338,14358,False,False,expiration,expiration
370,121.0,25,F,up,0.8843535999985761,1.3072663229112198,,experiment,emotion,1.0,,,,1437.5370430000007,1017,26,male,True,14375,14384,False,False,inspiration,expiration
371,115.0,25,M,up,0.8168903999976465,1.8061197970727536,,experiment,emotion,1.0,,,,1440.5035754999951,1017,26,male,True,14404,14412,False,False,inspiration,inspiration
372,124.0,25,M,up,0.8365911000000779,1.1839137493414926,,experiment,emotion,1.0,,,,1442.7868020999995,1017,26,male,True,14427,14435,False,False,expiration,expiration
373,124.0,25,F,up,0.7743183999991743,0.8727690417366101,,experiment,emotion,1.0,,,,1444.7700866999985,1017,26,male,True,14447,14455,False,False,inspiration,expiration
374,118.0,25,M,down,0.932691399997566,1.0395298465547187,,experiment,emotion,1.0,,,,1446.8866619,1017,26,male,True,14468,14477,False,False,inspiration,expiration
375,115.0,25,F,down,0.8828716999996686,1.4808891171195044,,experiment,emotion,1.0,,,,1449.5865930999973,1017,26,male,True,14495,14504,False,False,expiration,inspiration
376,118.0,25,F,down,0.6472116000004462,0.6599077621410926,,experiment,emotion,1.0,,,,1451.4031576000016,1017,26,male,True,14513,14519,False,False,inspiration,peak
377,121.0,25,F,up,0.8020002999983262,1.430372290130071,,experiment,emotion,1.0,,,,1453.7864160999998,1017,26,male,True,14537,14545,False,False,expiration,expiration
378,115.0,25,M,up,0.6830857999957516,0.7728952098706839,,experiment,emotion,1.0,,,,1455.6363313000004,1017,26,male,True,14556,14563,False,False,inspiration,expiration
379,124.0,25,M,up,0.7359648999990895,0.38027058378901096,,experiment,emotion,1.0,,,,1456.969639400002,1017,26,male,True,14569,14576,False,False,expiration,expiration
380,121.0,25,M,up,1.4784761999981129,1.4705246887517798,,experiment,emotion,1.0,,,,1459.4528831000025,1017,26,male,True,14594,14609,False,False,inspiration,inspiration
381,124.0,25,F,down,1.3823046000034085,0.974950402704276,,experiment,emotion,1.0,,,,1462.1860990999958,1017,26,male,True,14621,14635,False,False,peak,expiration
382,115.0,25,F,up,0.9930860999957076,1.5284979552387024,,experiment,emotion,1.0,,,,1465.3693199000006,1017,26,male,True,14653,14663,False,False,inspiration,expiration
383,121.0,25,M,up,1.5901831000010134,1.4435119336253872,,experiment,emotion,1.0,,,,1468.0692172000015,1017,26,male,True,14680,14696,False,False,expiration,expiration
384,118.0,25,F,up,0.7866241000010632,0.6190616173876327,,experiment,emotion,1.0,,,,1470.5858075999965,1017,26,male,True,14705,14713,False,False,inspiration,inspiration
385,118.0,25,M,down,1.1237624999994296,1.6443873900546166,,experiment,emotion,1.0,,,,1473.2857072000006,1017,26,male,True,14732,14743,False,False,trough,inspiration
386,121.0,25,M,down,1.3117611999987275,1.2458234702796191,,experiment,emotion,1.0,,,,1475.9355904000006,1017,26,male,True,14759,14772,False,False,inspiration,inspiration
387,124.0,25,M,down,1.610541199996078,1.4602997770195474,,experiment,emotion,1.0,,,,1479.0188287000021,1017,26,male,True,14790,14806,False,False,expiration,expiration
388,118.0,25,F,down,1.0264154999968014,1.6049667945596042,,experiment,emotion,1.0,,,,1482.5019950999958,1017,26,male,True,14824,14834,False,False,peak,expiration
389,115.0,25,F,up,0.8151387000034447,0.920551169165902,,experiment,emotion,1.0,,,,1484.735246100001,1017,26,male,True,14847,14855,False,False,inspiration,inspiration
390,115.0,25,M,down,0.9218651000046519,0.9607893437073016,,experiment,emotion,1.0,,,,1486.7685270999973,1017,26,male,True,14867,14876,False,False,inspiration,inspiration
391,118.0,25,F,up,1.3799300999962725,0.6673549458959533,,experiment,emotion,1.0,,,,1488.6184734000014,1017,26,male,True,14886,14900,False,False,inspiration,expiration
392,124.0,25,F,down,1.3277394000033382,1.839370014262905,,experiment,emotion,1.0,,,,1492.1516663999973,1017,26,male,True,14921,14934,False,False,inspiration,expiration
393,121.0,25,M,up,1.4955293000020902,1.8153560747792568,,experiment,emotion,1.0,,,,1495.5848767000025,1017,26,male,True,14955,14970,False,False,inspiration,inspiration
394,115.0,25,M,up,1.0559857000043849,1.210313330765031,,experiment,emotion,1.0,,,,1498.6014061999995,1017,26,male,True,14985,14996,False,False,peak,expiration
395,124.0,25,F,up,0.6557236000007833,0.5184763579371611,,experiment,emotion,1.0,,,,1500.434713300001,1017,26,male,True,15004,15011,False,False,expiration,inspiration
396,121.0,25,M,down,1.3314348999992944,1.7622186085700482,,experiment,emotion,1.0,,,,1503.1179761999995,1017,26,male,True,15031,15044,False,False,expiration,expiration
397,121.0,25,F,down,1.4312363999997617,1.3358279008259637,,experiment,emotion,1.0,,,,1506.0511627999986,1017,26,male,True,15060,15074,False,False,inspiration,inspiration
398,115.0,25,F,down,0.7444313000014517,1.9812341328444023,,experiment,emotion,1.0,,,,1509.7510140999984,1017,26,male,True,15097,15104,False,False,expiration,expiration
399,118.0,25,F,down,1.0541087000019616,0.973039350558604,,experiment,emotion,1.0,,,,1511.7842996,1017,26,male,True,15117,15128,False,False,inspiration,expiration
400,124.0,25,M,down,1.2105558999974164,0.9490477168497404,,experiment,emotion,1.0,,,,1514.1008504999954,1017,26,male,True,15140,15152,False,False,expiration,inspiration
401,118.0,25,M,down,0.9911434999958146,1.8738590877280503,,experiment,emotion,1.0,,,,1517.467412599999,1017,26,male,True,15174,15184,False,False,expiration,expiration
402,118.0,25,F,down,1.4244543000022531,1.2571800940598616,,experiment,emotion,1.0,,,,1519.9839737999973,1017,26,male,True,15199,15213,False,False,inspiration,expiration
403,118.0,25,F,down,0.8308692999999039,1.4090056882497817,,experiment,emotion,1.0,,,,1523.1005350000016,1017,26,male,True,15231,15239,False,False,expiration,inspiration
404,124.0,25,M,up,0.7896440999975312,0.3733772083675368,,experiment,emotion,1.0,,,,1524.5837865999968,1017,26,male,True,15245,15253,False,False,inspiration,peak
405,121.0,25,M,down,1.4180495999971754,0.4178372078975045,,experiment,emotion,1.0,,,,1526.1003910999968,1017,26,male,True,15261,15275,False,False,expiration,expiration
406,115.0,25,M,up,0.9250523000009708,0.6119693983385182,,experiment,emotion,1.0,,,,1528.4003171999975,1017,26,male,True,15284,15293,False,False,inspiration,expiration
407,115.0,25,M,up,1.1132538000019851,1.6490919957126136,,experiment,emotion,1.0,,,,1531.2502265999976,1017,26,male,True,15312,15323,False,False,inspiration,inspiration
408,121.0,25,M,down,1.2669815000044764,1.5361636419771474,,experiment,emotion,1.0,,,,1534.183429599998,1017,26,male,True,15341,15354,False,False,peak,inspiration
409,124.0,25,F,down,1.7750273999990895,0.6820328883567829,,experiment,emotion,1.0,,,,1536.4333789999982,1017,26,male,True,15364,15382,False,False,inspiration,expiration
410,124.0,25,F,down,1.2851405999972485,1.1020987503460178,,experiment,emotion,1.0,,,,1539.5832598000015,1017,26,male,True,15395,15408,False,False,inspiration,inspiration
411,115.0,25,M,down,2.177672400001029,1.4610894786020625,,experiment,emotion,1.0,,,,1542.5998026999987,1017,26,male,True,15426,15448,False,False,expiration,expiration
412,124.0,25,F,up,0.8673481000005268,0.7904634823485901,,experiment,emotion,1.0,,,,1545.8330232999979,1017,26,male,True,15458,15467,False,False,inspiration,expiration
413,118.0,25,F,down,0.7808009000000311,0.9907624214996348,,experiment,emotion,1.0,,,,1547.9996090999955,1017,26,male,True,15479,15487,False,False,expiration,expiration
414,121.0,25,F,up,0.6778717999986839,0.7535013015973416,,experiment,emotion,1.0,,,,1549.849538599996,1017,26,male,True,15498,15505,False,False,inspiration,expiration
415,118.0,25,M,up,0.9572587000002386,0.8697469235042818,,experiment,emotion,1.0,,,,1551.6661458999988,1017,26,male,True,15516,15526,False,False,expiration,inspiration
416,115.0,25,F,up,0.7549970000036409,0.4019696725408513,,experiment,emotion,1.0,,,,1553.299408099996,1017,26,male,True,15532,15540,False,False,inspiration,expiration
417,121.0,25,F,down,1.2420937000060803,1.6191640748337326,,experiment,emotion,1.0,,,,1555.9493246999955,1017,26,male,True,15559,15571,False,False,expiration,expiration
418,118.0,25,F,,,1.3463140444061563,,experiment,emotion,1.0,,,,1558.799199600002,1017,26,male,True,15587,0,False,False,inspiration,0
419,121.0,25,M,up,2.2673206000035857,0.8208213108780036,,experiment,emotion,1.0,,,,1562.2990865999998,1017,26,male,True,15622,15645,False,False,expiration,expiration
420,115.0,25,M,up,0.6267723999990267,0.4253888320315952,,experiment,emotion,1.0,,,,1565.2656442999978,1017,26,male,True,15652,15658,False,False,expiration,expiration
421,124.0,25,F,down,1.6635322000001906,0.9478467698639246,,experiment,emotion,1.0,,,,1567.1488737,1017,26,male,True,15671,15688,False,False,inspiration,expiration
422,121.0,25,M,up,0.7752792000028421,1.0473329070740172,,experiment,emotion,1.0,,,,1570.1321400999989,1017,26,male,True,15701,15709,False,False,inspiration,inspiration
423,124.0,25,F,up,0.8610055999961332,1.0480271237528902,,experiment,emotion,1.0,,,,1572.2154065999966,1017,26,male,True,15722,15731,False,False,expiration,expiration
424,115.0,25,M,up,0.7557658000005176,0.8475726393157981,,experiment,emotion,1.0,,,,1574.1986433999955,1017,26,male,True,15741,15749,False,False,trough,inspiration
425,118.0,25,M,down,0.8734734999961802,0.3946545866435826,,experiment,emotion,1.0,,,,1575.6319314999967,1017,26,male,True,15756,15765,False,False,inspiration,expiration
426,0.30232377985142705,25,up,up,0.7724861000024248,0.7632007890187984,,experiment,cRDM,1.0,,,,1611.9639230999999,1017,26,male,True,16119,16127,False,False,expiration,inspiration
427,0.30232377985142705,25,up,up,0.9082250999999816,0.7475665162295329,,experiment,cRDM,1.0,,,,1613.7472008000007,1017,26,male,True,16137,16146,False,False,inspiration,expiration
428,0.30232377985142705,25,down,down,0.6323523000028217,0.7862989839273218,,experiment,cRDM,1.0,,,,1615.6970408000016,1017,26,male,True,16157,16163,False,False,expiration,expiration
429,0.30232377985142705,25,down,down,1.2656977999940864,0.3658948704314586,,experiment,cRDM,1.0,,,,1616.963746999998,1017,26,male,True,16169,16182,False,False,inspiration,expiration
430,0.30232377985142705,25,up,up,0.7927753999974811,1.3858913432349165,,experiment,cRDM,1.0,,,,1619.8636357999967,1017,26,male,True,16198,16206,False,False,inspiration,inspiration
431,0.30232377985142705,25,down,down,0.6471798999991734,0.6580980595535855,,experiment,cRDM,1.0,,,,1621.5802340999978,1017,26,male,True,16215,16221,False,False,expiration,expiration
432,0.30232377985142705,25,up,up,0.5752627999972901,0.4017820199859908,,experiment,cRDM,1.0,,,,1622.8801763999982,1017,26,male,True,16228,16234,False,False,expiration,inspiration
433,0.30232377985142705,25,up,down,1.0189749999990454,1.8763792015108944,,experiment,cRDM,1.0,,,,1625.6134719,1017,26,male,True,16256,16266,False,False,expiration,expiration
434,0.30232377985142705,25,down,down,0.5294466999985161,1.6828628737235496,,experiment,cRDM,1.0,,,,1628.5799687,1017,26,male,True,16285,16290,False,False,inspiration,expiration
435,0.30232377985142705,25,down,down,0.5201491000043461,0.3977872060828937,,experiment,cRDM,1.0,,,,1629.7632747999994,1017,26,male,True,16297,16302,False,False,expiration,expiration
436,0.30232377985142705,25,down,up,0.6302045000047656,0.872004238300675,,experiment,cRDM,1.0,,,,1631.4132443000015,1017,26,male,True,16314,16320,False,False,inspiration,inspiration
437,0.30232377985142705,25,down,down,1.6362924999993993,1.3900102823579918,,experiment,cRDM,1.0,,,,1633.7131391999976,1017,26,male,True,16337,16353,False,False,expiration,inspiration
438,0.30232377985142705,25,down,up,0.8940948000017671,1.5790755320758159,,experiment,cRDM,1.0,,,,1637.1963185000022,1017,26,male,True,16372,16381,False,False,expiration,expiration
439,0.30232377985142705,25,down,up,1.0971782999986317,0.8618020235645052,,experiment,cRDM,1.0,,,,1639.1962613999967,1017,26,male,True,16391,16402,False,False,inspiration,expiration
440,0.30232377985142705,25,up,up,0.7359580000047572,1.4719553556640257,,experiment,cRDM,1.0,,,,1642.0295041999964,1017,26,male,True,16420,16427,False,False,expiration,expiration
441,0.30232377985142705,25,up,up,0.6487559999950463,0.584924776120909,,experiment,cRDM,1.0,,,,1643.6126560000012,1017,26,male,True,16436,16442,False,False,inspiration,inspiration
442,0.30232377985142705,25,up,up,0.6334043999959249,1.322964814969953,,experiment,cRDM,1.0,,,,1645.846009199999,1017,26,male,True,16458,16464,False,False,inspiration,inspiration
443,0.30232377985142705,25,up,up,0.6084410999974352,0.9751399932884128,,experiment,cRDM,1.0,,,,1647.6959279999976,1017,26,male,True,16476,16482,False,False,peak,expiration
444,0.30232377985142705,25,down,down,0.4791338000068208,0.7751064628809257,,experiment,cRDM,1.0,,,,1649.3292693000005,1017,26,male,True,16493,16498,False,False,inspiration,expiration
445,0.30232377985142705,25,up,up,0.831627399995341,1.5356771665686622,,experiment,cRDM,1.0,,,,1651.5957938999966,1017,26,male,True,16515,16523,False,False,expiration,expiration
446,0.30232377985142705,25,up,up,0.5761031000001822,0.31292257654247224,,experiment,cRDM,1.0,,,,1653.0123494999968,1017,26,male,True,16530,16536,False,False,inspiration,inspiration
447,0.30232377985142705,25,down,down,0.5840890999970725,1.6663030647073551,,experiment,cRDM,1.0,,,,1655.5123511000022,1017,26,male,True,16555,16561,False,False,expiration,expiration
448,0.30232377985142705,25,up,up,1.0138735000000452,1.4902068674070108,,experiment,cRDM,1.0,,,,1657.8455765,1017,26,male,True,16578,16588,False,False,inspiration,inspiration
449,0.30232377985142705,25,down,down,0.5959201000005123,0.4808398057824181,,experiment,cRDM,1.0,,,,1659.5954937000024,1017,26,male,True,16595,16601,False,False,expiration,expiration
450,0.30232377985142705,25,down,down,0.661983700003475,1.3337674370132435,,experiment,cRDM,1.0,,,,1661.7954480000005,1017,26,male,True,16617,16624,False,False,expiration,expiration
451,0.30232377985142705,25,up,up,0.6561049000010826,1.9317406649409696,,experiment,cRDM,1.0,,,,1664.6453301999973,1017,26,male,True,16646,16653,False,False,expiration,expiration
452,0.30232377985142705,25,up,up,0.8162298000024748,1.6209519682187703,,experiment,cRDM,1.0,,,,1667.195216899996,1017,26,male,True,16671,16679,False,False,inspiration,inspiration
453,0.30232377985142705,25,down,down,0.6053379999939352,1.0252845543001894,,experiment,cRDM,1.0,,,,1669.2951352999992,1017,26,male,True,16692,16698,False,False,expiration,expiration
454,0.30232377985142705,25,up,up,0.6686432000060449,0.4075520887354061,,experiment,cRDM,1.0,,,,1670.5617759999984,1017,26,male,True,16705,16712,False,False,expiration,inspiration
455,0.30232377985142705,25,down,down,0.6610366999957478,0.393323248939645,,experiment,cRDM,1.0,,,,1671.8783992999995,1017,26,male,True,16718,16725,False,False,inspiration,expiration
456,0.30232377985142705,25,down,down,0.8124468000023626,1.381741284996833,,experiment,cRDM,1.0,,,,1674.1949663000016,1017,26,male,True,16741,16749,False,False,expiration,expiration
457,0.30232377985142705,25,down,up,1.3765408000035677,0.7839022054753542,,experiment,cRDM,1.0,,,,1676.0449083999954,1017,26,male,True,16760,16774,False,False,inspiration,inspiration
458,0.30232377985142705,25,up,up,0.9696693000005324,1.8714747696082057,,experiment,cRDM,1.0,,,,1679.5447910999976,1017,26,male,True,16795,16805,False,False,expiration,inspiration
459,0.30232377985142705,25,up,up,0.8717546999978367,1.9200031076256192,,experiment,cRDM,1.0,,,,1682.6946654999954,1017,26,male,True,16826,16835,False,False,expiration,expiration
460,0.30232377985142705,25,up,up,0.7663055999946664,0.7787641045457439,,experiment,cRDM,1.0,,,,1684.611108699999,1017,26,male,True,16846,16854,False,False,trough,inspiration
461,0.30232377985142705,25,down,down,0.7275594000020646,1.1344358507809984,,experiment,cRDM,1.0,,,,1686.7778547000016,1017,26,male,True,16867,16874,False,False,expiration,expiration
462,0.30232377985142705,25,down,down,1.050021700000798,0.534722385571929,,experiment,cRDM,1.0,,,,1688.2944400000015,1017,26,male,True,16882,16893,False,False,expiration,inspiration
463,0.30232377985142705,25,up,up,0.5639393000019481,0.731122227194084,,experiment,cRDM,1.0,,,,1690.3444406000015,1017,26,male,True,16903,16909,False,False,inspiration,expiration
464,0.30232377985142705,25,down,down,0.644445199999609,1.2961082402927089,,experiment,cRDM,1.0,,,,1692.4609693999994,1017,26,male,True,16924,16930,False,False,expiration,expiration
465,0.30232377985142705,25,up,up,0.6405188999997335,1.5508173858321288,,experiment,cRDM,1.0,,,,1694.910935099997,1017,26,male,True,16949,16955,False,False,expiration,expiration
466,0.30232377985142705,25,up,up,0.7279611000049044,1.8688400176090767,,experiment,cRDM,1.0,,,,1697.6774559000007,1017,26,male,True,16976,16983,False,False,inspiration,expiration
467,0.30232377985142705,25,up,up,0.7316692999957013,1.8412352947175337,,experiment,cRDM,1.0,,,,1700.5107626999998,1017,26,male,True,17005,17012,False,False,inspiration,expiration
468,0.30232377985142705,25,down,down,0.5618322000009357,1.7990746788351526,,experiment,cRDM,1.0,,,,1703.3106695999993,1017,26,male,True,17033,17039,False,False,expiration,inspiration
469,0.30232377985142705,25,down,up,1.2822990999993635,1.9331598259805745,,experiment,cRDM,1.0,,,,1706.0771367000016,1017,26,male,True,17060,17073,False,False,expiration,expiration
470,0.30232377985142705,25,up,up,0.6433166999995592,0.5220264090137037,,experiment,cRDM,1.0,,,,1708.1270980000006,1017,26,male,True,17081,17087,False,False,trough,inspiration
471,0.30232377985142705,25,down,down,0.9278371999971567,1.7088120064617245,,experiment,cRDM,1.0,,,,1710.7436357000006,1017,26,male,True,17107,17116,False,False,expiration,expiration
472,0.30232377985142705,25,down,down,0.6508705000014743,1.3087206824277686,,experiment,cRDM,1.0,,,,1713.243550999996,1017,26,male,True,17132,17139,False,False,inspiration,expiration
473,0.30232377985142705,25,up,up,0.6562904999955208,0.5942800671164845,,experiment,cRDM,1.0,,,,1714.7601585999982,1017,26,male,True,17147,17154,False,False,expiration,expiration
474,0.30232377985142705,25,up,up,0.7927218000040739,1.7047386636871906,,experiment,cRDM,1.0,,,,1717.3767066999972,1017,26,male,True,17173,17181,False,False,expiration,expiration
475,0.30232377985142705,25,down,down,0.8244362000041292,1.7780161505151395,,experiment,cRDM,1.0,,,,1720.2099904999961,1017,26,male,True,17202,17210,False,False,inspiration,expiration
476,0.30232377985142705,25,up,up,0.7388923000034993,1.531134286788018,,experiment,cRDM,1.0,,,,1722.8265482000024,1017,26,male,True,17228,17235,False,False,inspiration,inspiration
477,0.30232377985142705,25,down,down,0.7782741999981226,0.4094852535745797,,experiment,cRDM,1.0,,,,1724.2431332000015,1017,26,male,True,17242,17250,False,False,inspiration,expiration
478,0.30232377985142705,25,down,down,0.7567712000018219,1.4158120740134357,,experiment,cRDM,1.0,,,,1726.7096297999994,1017,26,male,True,17267,17275,False,False,expiration,expiration
479,0.30232377985142705,25,down,down,0.6467974000042886,1.536541347194286,,experiment,cRDM,1.0,,,,1729.2596174999962,1017,26,male,True,17292,17298,False,False,peak,expiration
480,0.30232377985142705,25,up,up,0.7445296000005328,1.2853568547665064,,experiment,cRDM,1.0,,,,1731.4428901999966,1017,26,male,True,17314,17321,False,False,expiration,expiration
481,0.30232377985142705,25,up,up,0.8706296000018483,1.3059469010488929,,experiment,cRDM,1.0,,,,1733.7427864999954,1017,26,male,True,17337,17346,False,False,inspiration,expiration
482,0.30232377985142705,25,down,down,0.6933196000027237,1.440033915108161,,experiment,cRDM,1.0,,,,1736.3260625000007,1017,26,male,True,17363,17370,False,False,inspiration,inspiration
483,0.30232377985142705,25,down,up,0.8900999999968917,0.7916461317479131,,experiment,cRDM,1.0,,,,1738.059320999997,1017,26,male,True,17380,17389,False,False,expiration,expiration
484,0.30232377985142705,25,up,up,0.6075564999991911,1.2618973549788393,,experiment,cRDM,1.0,,,,1740.4758636000006,1017,26,male,True,17404,17410,False,False,inspiration,inspiration
485,0.30232377985142705,25,up,up,0.8616311000005226,0.7183269497362998,,experiment,cRDM,1.0,,,,1742.0758294000007,1017,26,male,True,17420,17429,False,False,inspiration,expiration
486,0.30232377985142705,25,up,up,0.4803504000010434,1.248773799623241,,experiment,cRDM,1.0,,,,1744.4590676999978,1017,26,male,True,17444,17449,False,False,inspiration,inspiration
487,0.30232377985142705,25,up,up,0.902490399996168,1.8094283245859,,experiment,cRDM,1.0,,,,1747.0089260999994,1017,26,male,True,17470,17479,False,False,expiration,expiration
488,0.30232377985142705,25,up,up,0.7205496999958996,1.3711750911478378,,experiment,cRDM,1.0,,,,1749.5588796999982,1017,26,male,True,17495,17502,False,False,inspiration,expiration
489,0.30232377985142705,25,down,up,1.1193544999987353,1.4522733739783569,,experiment,cRDM,1.0,,,,1751.992102100001,1017,26,male,True,17519,17530,False,False,trough,peak
490,0.30232377985142705,25,down,down,0.7110688000029768,1.2888407709286542,,experiment,cRDM,1.0,,,,1754.6753538000012,1017,26,male,True,17546,17553,False,False,inspiration,inspiration
491,0.30232377985142705,25,up,up,0.7264929000011762,0.9915479287626529,,experiment,cRDM,1.0,,,,1756.6419749000015,1017,26,male,True,17566,17573,False,False,expiration,expiration
492,0.30232377985142705,25,down,down,2.08788579999964,1.3752780029482652,,experiment,cRDM,1.0,,,,1759.0085376000025,1017,26,male,True,17590,17611,False,False,inspiration,inspiration
493,0.30232377985142705,25,down,down,0.8519794999956503,0.5830051863397983,,experiment,cRDM,1.0,,,,1761.9584383,1017,26,male,True,17619,17628,False,False,expiration,expiration
494,0.30232377985142705,25,down,down,0.9944157999998424,0.5078618241364932,,experiment,cRDM,1.0,,,,1763.5750311999982,1017,26,male,True,17635,17645,False,False,inspiration,inspiration
495,0.30232377985142705,25,up,up,1.022456400001829,0.44368840343410976,,experiment,cRDM,1.0,,,,1765.2749572999999,1017,26,male,True,17652,17662,False,False,inspiration,expiration
496,0.30232377985142705,25,down,down,0.7865431999962311,0.7603857878620611,,experiment,cRDM,1.0,,,,1767.3248940000012,1017,26,male,True,17673,17681,False,False,expiration,inspiration
497,0.30232377985142705,25,down,down,1.3016196000025957,0.3071447852523277,,experiment,cRDM,1.0,,,,1768.6748228999966,1017,26,male,True,17686,17699,False,False,inspiration,expiration
498,0.30232377985142705,25,down,down,0.8140205000017886,0.9148617505578064,,experiment,cRDM,1.0,,,,1771.1413979999961,1017,26,male,True,17711,17719,False,False,expiration,inspiration
499,0.30232377985142705,25,up,up,0.7314906999963569,0.8956846833652214,,experiment,cRDM,1.0,,,,1773.1079178999973,1017,26,male,True,17731,17738,False,False,expiration,expiration
500,0.30232377985142705,25,up,up,0.7761892999988049,0.8851518226280588,,experiment,cRDM,1.0,,,,1774.9912565000013,1017,26,male,True,17749,17757,False,False,expiration,expiration
501,0.30232377985142705,25,down,down,1.1786338000019896,0.9665726803959316,,experiment,cRDM,1.0,,,,1777.0077924999966,1017,26,male,True,17770,17782,False,False,expiration,expiration
502,0.30232377985142705,25,up,up,0.7183382000002894,1.2331920759478017,,experiment,cRDM,1.0,,,,1779.691093999998,1017,26,male,True,17796,17803,False,False,inspiration,inspiration
503,0.30232377985142705,25,down,down,0.7361289999971632,1.4075453524777066,,experiment,cRDM,1.0,,,,1782.091279999997,1017,26,male,True,17821,17828,False,False,expiration,expiration
504,0.30232377985142705,25,up,up,1.0341693999944257,1.5754606733584098,,experiment,cRDM,1.0,,,,1784.674245899998,1017,26,male,True,17846,17856,True,True,inspiration,expiration
505,0.30232377985142705,25,up,up,0.7886119000031613,1.3552174093007792,,experiment,cRDM,1.0,,,,1787.340836200001,1017,26,male,True,17873,17881,True,True,expiration,expiration
506,124.0,25,M,up,1.5037980999986758,0.33282395247546553,,experiment,emotion,2.0,,,,1827.9726526999984,1017,26,male,True,18279,18294,False,False,inspiration,expiration
507,115.0,25,M,up,0.9875010999967344,1.1244800213204948,,experiment,emotion,2.0,,,,1830.9059145999965,1017,26,male,True,18309,18319,False,False,inspiration,inspiration
508,121.0,25,F,down,0.8216986999977962,1.5032325471403845,,experiment,emotion,2.0,,,,1833.7057278999966,1017,26,male,True,18337,18345,False,False,expiration,inspiration
509,124.0,25,F,up,0.8874418000050355,1.7037046320078677,,experiment,emotion,2.0,,,,1836.4890161999972,1017,26,male,True,18364,18373,False,False,expiration,expiration
510,121.0,25,M,up,0.7991314999962924,0.7349322979579695,,experiment,emotion,2.0,,,,1838.3722919999966,1017,26,male,True,18383,18391,False,False,expiration,inspiration
511,118.0,25,F,up,0.8715579000054277,0.7007411142898512,,experiment,emotion,2.0,,,,1840.1888647999986,1017,26,male,True,18401,18410,False,False,inspiration,expiration
512,115.0,25,M,up,0.7862645999994129,0.8858105358771629,,experiment,emotion,2.0,,,,1842.2221549999995,1017,26,male,True,18422,18430,False,False,expiration,expiration
513,118.0,25,M,up,0.8789953999948921,0.3891982991354214,,experiment,emotion,2.0,,,,1843.655429999995,1017,26,male,True,18436,18445,False,False,inspiration,inspiration
514,124.0,25,F,up,0.7784820000015316,0.7073383217414653,,experiment,emotion,2.0,,,,1845.5220144000011,1017,26,male,True,18455,18463,False,False,expiration,expiration
515,118.0,25,F,down,0.8918306999985361,1.226799138656772,,experiment,emotion,2.0,,,,1847.7885948000005,1017,26,male,True,18477,18486,False,False,inspiration,inspiration
516,121.0,25,F,down,1.5306137000006856,1.5881738014208635,,experiment,emotion,2.0,,,,1850.5718360999997,1017,26,male,True,18505,18520,False,False,expiration,inspiration
517,124.0,25,F,up,1.2283844000048705,1.5811689259198276,,experiment,emotion,2.0,,,,1853.9550429999979,1017,26,male,True,18539,18551,False,False,expiration,expiration
518,121.0,25,F,up,0.5681073000014294,1.5864919015623808,,experiment,emotion,2.0,,,,1857.038287499996,1017,26,male,True,18570,18576,False,False,inspiration,inspiration
519,115.0,25,F,down,1.1955577000044286,1.350061052609117,,experiment,emotion,2.0,,,,1859.2548637999969,1017,26,male,True,18592,18604,False,False,expiration,expiration
520,118.0,25,M,up,1.2396920999963186,1.7138380154265311,,experiment,emotion,2.0,,,,1862.4547346000002,1017,26,male,True,18624,18636,False,False,inspiration,expiration
521,115.0,25,M,up,1.2445570999989286,1.861145102502317,,experiment,emotion,2.0,,,,1865.8379334000022,1017,26,male,True,18658,18670,False,False,expiration,expiration
522,124.0,25,M,up,0.9316293000010774,1.5628492660218511,,experiment,emotion,2.0,,,,1868.937818399998,1017,26,male,True,18689,18698,False,False,expiration,expiration
523,115.0,25,M,down,1.6250820999994176,1.0476423038464104,,experiment,emotion,2.0,,,,1871.2044080000012,1017,26,male,True,18712,18728,False,False,inspiration,expiration
524,121.0,25,F,down,1.2668487999981153,0.4867373774220747,,experiment,emotion,2.0,,,,1873.6376432,1017,26,male,True,18736,18749,False,False,expiration,inspiration
525,121.0,25,M,down,1.6778751000019838,1.8661221895744682,,experiment,emotion,2.0,,,,1877.0375538999976,1017,26,male,True,18770,18787,False,False,expiration,expiration
526,118.0,25,M,down,1.7396609000061292,0.6133458433475449,,experiment,emotion,2.0,,,,1879.6207658000021,1017,26,male,True,18796,18813,False,False,inspiration,expiration
527,118.0,25,F,up,0.8577887000064948,1.3999007398772876,,experiment,emotion,2.0,,,,1883.0206433000021,1017,26,male,True,18830,18839,False,False,inspiration,expiration
528,115.0,25,M,down,0.8542875999992248,1.5930878486203666,,experiment,emotion,2.0,,,,1885.7871295999976,1017,26,male,True,18858,18867,False,False,inspiration,inspiration
529,124.0,25,F,up,1.0852995999957784,1.4917961916579336,,experiment,emotion,2.0,,,,1888.437128499998,1017,26,male,True,18884,18895,False,False,expiration,expiration
530,121.0,25,F,down,1.2291267999971751,1.8376349203800293,,experiment,emotion,2.0,,,,1891.6703010000022,1017,26,male,True,18916,18928,False,False,expiration,expiration
531,115.0,25,M,up,1.0128676000022097,0.9375440025216012,,experiment,emotion,2.0,,,,1894.1035842000022,1017,26,male,True,18941,18951,False,False,inspiration,expiration
532,124.0,25,M,up,0.9796069000003628,1.1480325474495676,,experiment,emotion,2.0,,,,1896.5368228999976,1017,26,male,True,18965,18975,False,False,expiration,trough
533,124.0,25,F,up,0.8750051000024541,0.3709703518594434,,experiment,emotion,2.0,,,,1898.1534214000021,1017,26,male,True,18981,18990,False,False,inspiration,inspiration
534,118.0,25,M,down,2.16111539999838,0.9280613501731017,,experiment,emotion,2.0,,,,1900.2533649,1017,26,male,True,19002,19024,False,False,expiration,expiration
535,115.0,25,F,down,1.2205556999979308,0.4703634396873277,,experiment,emotion,2.0,,,,1903.1699188999953,1017,26,male,True,19031,19043,False,False,inspiration,inspiration
536,118.0,25,F,up,1.6219684999960011,0.7366505574923404,,experiment,emotion,2.0,,,,1905.3864666999978,1017,26,male,True,19054,19070,False,False,expiration,expiration
537,121.0,25,F,down,1.3297201000023051,1.5908100067127746,,experiment,emotion,2.0,,,,1908.919693,1017,26,male,True,19089,19102,False,False,inspiration,expiration
538,115.0,25,M,down,1.4335206999967343,0.923964802201754,,experiment,emotion,2.0,,,,1911.4529077000007,1017,26,male,True,19114,19128,False,False,expiration,expiration
