,stimLvl,stimTime,rand,response,rt,precedingITI,trialNumber,trialType,stimuli,block,estIntens,estThres,estSlope,trialStart,subject,age,gender,headRest
0,0.9,100,down,down,1.383811199979391,0.7366461226126676,,introTrial,cRDM,,,,,206.51127409999023,118,22,female,True
1,150.0,100,F,up,1.4167594999889843,1.8346669566275704,,introTrial,emotion,,,,,210.29449850000677,118,22,female,True
2,0.9,25,down,down,0.6110296999686398,0.7618131896711537,,tutorial,cRDM,,,,,255.14281789999225,118,22,female,True
3,0.9,25,up,up,0.3670234000310302,1.1785664605376371,,tutorial,cRDM,,,,,257.20941300003324,118,22,female,True
4,0.9,25,down,down,0.3506690000067465,1.8754032508942169,,tutorial,cRDM,,,,,259.7758338000276,118,22,female,True
5,0.9,25,down,down,0.3173384999972768,1.722106069411114,,tutorial,cRDM,,,,,262.175751200004,118,22,female,True
6,0.9,25,up,up,0.416791399999056,0.7730935959947824,,tutorial,cRDM,,,,,263.6425123999943,118,22,female,True
7,0.9,25,down,down,0.3340857000439428,1.613907627825215,,tutorial,cRDM,,,,,265.9424409000203,118,22,female,True
8,0.9,25,up,up,0.4799051000154577,1.971365249323426,,tutorial,cRDM,,,,,268.6089905000408,118,22,female,True
9,0.9,25,up,down,0.3673552999971434,0.833301887515415,,tutorial,cRDM,,,,,270.1922712000087,118,22,female,True
10,0.9,25,up,up,0.4709650999866426,0.5140559774329241,,tutorial,cRDM,,,,,271.40888599999016,118,22,female,True
11,0.9,25,down,down,0.4681679999921471,1.924129482575758,,tutorial,cRDM,,,,,274.0757289000321,118,22,female,True
12,200.0,25,M,up,0.3834793000132777,0.478843966595854,,tutorial,emotion,,,,,281.47518980002496,118,22,female,True
13,200.0,25,M,up,0.4299879999598488,1.1614494421814865,,tutorial,emotion,,,,,283.3417788000079,118,22,female,True
14,200.0,25,F,up,0.35027400002582,1.815515610816885,,tutorial,emotion,,,,,285.8583336000447,118,22,female,True
15,0.0,25,F,down,0.3834850999992341,1.3841515529570894,,tutorial,emotion,,,,,287.9582641000161,118,22,female,True
16,0.0,25,M,down,0.7566369000123814,0.3551476645898205,,tutorial,emotion,,,,,289.0082328999997,118,22,female,True
17,200.0,25,F,up,0.4643379000481218,0.3961158673099325,,tutorial,emotion,,,,,290.44153290003305,118,22,female,True
18,0.0,25,M,down,0.3834883000236004,0.4419541876794082,,tutorial,emotion,,,,,291.6414778000326,118,22,female,True
19,200.0,25,M,up,0.4354254999780096,1.7283320163736815,,tutorial,emotion,,,,,294.0914015000453,118,22,female,True
20,0.0,25,F,down,0.3500960000092163,1.8140888796530272,,tutorial,emotion,,,,,296.6246236000443,118,22,female,True
21,0.0,25,F,up,0.4005372999818064,0.7376707011427917,,tutorial,emotion,,,,,298.07447809999576,118,22,female,True
22,0.29,25,up,up,0.3338158000260591,0.4926662081090486,,psi_staircase_training,cRDM,,0.25,0.2569312402994632,0.105,310.3574446000275,118,22,female,True
23,0.25,25,up,up,0.3671741000143811,1.45540644096159,,psi_staircase_training,cRDM,,0.2191026665318312,0.2260132002683492,0.1046863203387393,312.5073748000432,118,22,female,True
24,0.21,25,down,down,0.4441286000073887,1.4751707922676145,,psi_staircase_training,cRDM,,0.1900540959403307,0.1968497961554001,0.1029467298424999,314.67379410000285,118,22,female,True
25,0.18,25,down,down,0.6822844999842346,1.499397877948877,,psi_staircase_training,cRDM,,0.1635257589279754,0.1701521334256793,0.1003816477568649,316.8905626999913,118,22,female,True
26,0.15,25,up,up,0.3842132000136189,1.8321354655377744,,psi_staircase_training,cRDM,,0.1401895574244936,0.1466013351187503,0.0971307628663642,319.69044500001473,118,22,female,True
27,0.13,25,down,down,0.2838213999639265,1.5493946716692846,,psi_staircase_training,cRDM,,0.1198760602145479,0.1260554767618333,0.0936107694196103,321.9236944000004,118,22,female,True
28,0.11,25,up,up,0.4205536000081338,1.8663645463104508,,psi_staircase_training,cRDM,,0.1025773523696548,0.1084910344569865,0.0895852101993795,324.4903130000457,118,22,female,True
29,0.09,25,down,down,0.3171687999856658,1.275646836199663,,psi_staircase_training,cRDM,,0.087844325958594,0.0934818215320969,0.0854013148647635,326.4568392999936,118,22,female,True
30,0.08,25,down,up,0.6164189000264741,1.3785382863240578,,psi_staircase_training,cRDM,,0.0751852092118086,0.0805556301471181,0.0813554535472043,328.52344000001904,118,22,female,True
31,0.13,25,up,down,0.4003096999949775,1.5786944260986089,,psi_staircase_training,cRDM,,0.1145374077699418,0.1210371210567565,0.0984628819128368,331.00670240004547,118,22,female,True
32,0.2,25,down,down,0.9948347000172362,0.4382765280981051,,psi_staircase_training,cRDM,,0.163694178028886,0.1714746156794365,0.1178643241341766,332.1400020000292,118,22,female,True
33,0.18,25,down,up,0.4333139000227675,1.1029461387868906,,psi_staircase_training,cRDM,,0.1477647251294019,0.1553323279426576,0.1146401309233757,334.50655370001914,118,22,female,True
34,0.26,25,down,up,0.4950078999972902,0.729378303923666,,psi_staircase_training,cRDM,,0.2027877426095041,0.2113079682106811,0.1290712267172242,335.93985270004487,118,22,female,True
35,0.34,25,up,up,0.481473499967251,1.9001294502705277,,psi_staircase_training,cRDM,,0.2759679951587541,0.285078267792997,0.1380097335060773,338.60640910000075,118,22,female,True
36,0.32,25,up,up,0.4626410999917425,1.8193093722287792,,psi_staircase_training,cRDM,,0.2570287064167749,0.266245090032414,0.1396171879536554,341.1732179000392,118,22,female,True
37,0.31,25,down,down,0.439645099977497,1.8908156456493368,,psi_staircase_training,cRDM,,0.2398711550008814,0.2491179730937622,0.1400782338808348,343.8062162999995,118,22,female,True
38,0.26,25,down,down,0.3004882999812253,0.8041978986442562,,psi_staircase_training,cRDM,,0.2249515066829682,0.2341626616601214,0.1395379803346282,345.32284219999565,118,22,female,True
39,0.25,25,up,up,0.4177558000083081,0.9301064428973124,,psi_staircase_training,cRDM,,0.2090423453320414,0.2184091015557907,0.1418951531041032,346.95608209999045,118,22,female,True
40,0.24,25,up,up,0.4721664999960921,1.8664395939065963,,psi_staircase_training,cRDM,,0.1946651305225311,0.2041256245340899,0.1433151684685632,349.5227049000096,118,22,female,True
41,0.24,25,up,up,0.4619798000203445,0.7131249574833332,,psi_staircase_training,cRDM,,0.1818895871740682,0.1913794945499156,0.1437607457558688,350.9728756000404,118,22,female,True
42,0.23,25,up,up,0.6069509000517428,0.5923901228193225,,psi_staircase_training,cRDM,,0.1709984554050426,0.1804458203829353,0.1431162793123113,352.30590570002096,118,22,female,True
43,0.23,25,down,down,0.2838348000077531,1.868868713896356,,psi_staircase_training,cRDM,,0.1614683856090964,0.1708352820265647,0.141897276871261,355.0558063000208,118,22,female,True
44,0.22,25,down,down,0.3338228000211529,0.9696033200492816,,psi_staircase_training,cRDM,,0.1534488975026436,0.1626931219516188,0.1400389432779521,356.7224029999925,118,22,female,True
45,0.17,25,down,down,0.3337985000107437,0.877307416640376,,psi_staircase_training,cRDM,,0.1463462257659431,0.1554557612559501,0.1379985666526093,358.3056795000448,118,22,female,True
46,0.16,25,up,up,0.4169920000131242,1.8991901839267364,,psi_staircase_training,cRDM,,0.1373047855415994,0.1465994880692694,0.1408036257927637,360.8889595000073,118,22,female,True
47,0.17,25,up,up,0.233965800027363,1.484321819899694,,psi_staircase_training,cRDM,,0.1287909799005269,0.1382325012749131,0.1430277557087902,363.07202880003024,118,22,female,True
48,0.16,25,down,down,0.4002720999997109,0.6461657647858801,,psi_staircase_training,cRDM,,0.1214615743789756,0.1309364207127616,0.143532588983327,364.4221287000109,118,22,female,True
49,0.16,25,down,down,0.4215271999710239,1.9551743165546416,,psi_staircase_training,cRDM,,0.1146181720198439,0.1241077266780212,0.1437554025050574,367.0722870000173,118,22,female,True
50,0.17,25,up,up,0.4002440999611281,1.2670706988367573,,psi_staircase_training,cRDM,,0.1085543084015487,0.1180080786067805,0.1432133108451328,369.0386284000124,118,22,female,True
51,0.17,25,up,up,0.4692777000018395,1.7496987385155836,,psi_staircase_training,cRDM,,0.1035388793254275,0.1128913694562626,0.1416790388602934,371.48855670000194,118,22,female,True
52,100.0,25,M,down,0.4960862000007182,0.8342888577009249,,psi_staircase_training,emotion,,100.0,100.0,25.00050000000001,387.15487790002953,118,22,female,True
53,145.0,25,M,up,0.5459833000204526,0.3496390868291901,,psi_staircase_training,emotion,,145.25719053245996,145.25719053245996,25.00050000000028,388.33788659999846,118,22,female,True
54,121.0,25,F,down,0.6354307000292465,1.9328453633754552,,psi_staircase_training,emotion,,120.36392901436103,120.36392901436103,25.71326925488699,391.1713920999901,118,22,female,True
55,137.0,25,F,up,0.6014512000256218,1.1588671305652838,,psi_staircase_training,emotion,,137.8359832966118,137.8359832966118,25.292325986285498,393.3044173000381,118,22,female,True
56,127.0,25,M,up,0.416899400006514,1.516343377913615,,psi_staircase_training,emotion,,126.46069055808248,126.46069055808248,23.64975108561129,395.770871900022,118,22,female,True
57,113.0,25,F,up,0.3668206000002101,1.1307975614334116,,psi_staircase_training,emotion,,117.51644698116752,117.51644698116752,24.57617413513076,397.6709152000258,118,22,female,True
58,94.0,25,M,down,0.4347066999762319,1.0558778968596212,,psi_staircase_training,emotion,,106.52678028801836,106.52678028801836,30.115701177201284,399.5041582999984,118,22,female,True
59,98.0,25,F,down,0.4818339999765157,0.8147178267270965,,psi_staircase_training,emotion,,112.69176471044776,112.69176471044776,27.72735343080098,401.1041022000136,118,22,female,True
60,132.0,25,F,up,0.6045449000084773,1.7981192765697738,,psi_staircase_training,emotion,,116.555244613451,116.555244613451,25.68608228109161,403.73732130002463,118,22,female,True
61,103.0,25,M,up,0.4472507999744266,1.277069757948019,,psi_staircase_training,emotion,,113.7593527695303,113.7593527695303,23.877520687671648,405.9706025000196,118,22,female,True
62,89.0,25,F,down,0.4196805999963544,0.9833934139769692,,psi_staircase_training,emotion,,106.970000257245,106.970000257245,28.475599208642613,407.7541348999948,118,22,female,True
63,91.0,25,F,down,0.4804004000034183,1.0544638833758528,,psi_staircase_training,emotion,,109.64127021210014,109.64127021210014,26.604015150838336,409.5704597000149,118,22,female,True
64,128.0,25,F,down,0.521822200040333,0.3823078610677789,,psi_staircase_training,emotion,,111.590326808177,111.590326808177,24.932290871560102,410.78708570002345,118,22,female,True
65,140.0,25,M,up,0.4668753999867476,1.5826509292291884,,psi_staircase_training,emotion,,117.3500159149452,117.3500159149452,29.95184063361361,413.2369741000002,118,22,female,True
66,92.0,25,M,down,0.6849337999592535,0.4735759556667773,,psi_staircase_training,emotion,,115.5668799031325,115.5668799031325,28.636405815310678,414.5369247000199,118,22,female,True
67,139.0,25,F,up,0.4866293999948539,1.250789055526341,,psi_staircase_training,emotion,,116.97172433352034,116.97172433352034,27.426593092263868,416.8201837000088,118,22,female,True
68,93.0,25,F,down,0.28351829998428,1.8279390462860547,,psi_staircase_training,emotion,,115.55761258947146,115.55761258947146,26.11072696504723,419.4867588999914,118,22,female,True
69,138.0,25,M,up,0.482858799980022,1.95967185880348,,psi_staircase_training,emotion,,116.67821993434372,116.67821993434372,24.91574418872993,422.2199958999991,118,22,female,True
70,94.0,25,M,up,0.4001765000284649,1.9493794005932752,,psi_staircase_training,emotion,,115.54846788641092,115.54846788641092,23.66276103948256,425.0032219000277,118,22,female,True
71,85.0,25,M,down,0.6753319000126794,0.7270205033890336,,psi_staircase_training,emotion,,111.45771838078876,111.45771838078876,28.745410613382155,426.4865040000295,118,22,female,True
72,137.0,25,M,up,0.6124151999829337,0.6620911123941526,,psi_staircase_training,emotion,,112.44726906618558,112.44726906618558,27.69889618345883,428.1864392000134,118,22,female,True
73,86.0,25,F,down,0.4925424999673851,1.8816396692439483,,psi_staircase_training,emotion,,111.4912452393848,111.4912452393848,26.66481890539524,431.0363456000341,118,22,female,True
74,136.0,25,F,up,0.4902445000479929,0.7398801950608032,,psi_staircase_training,emotion,,112.320407310598,112.320407310598,25.656830520893603,432.61960670002736,118,22,female,True
75,88.0,25,F,down,0.4001813000068068,1.3236002260493116,,psi_staircase_training,emotion,,111.50825997765008,111.50825997765008,24.673584603848585,434.78620010003215,118,22,female,True
76,135.0,25,M,up,0.7344068000093102,1.3687734086221572,,psi_staircase_training,emotion,,112.23899717561528,112.23899717561528,23.725065860433403,436.9194586999947,118,22,female,True
77,89.0,25,M,down,0.7162084999727085,1.5989863995761844,,psi_staircase_training,emotion,,111.54122236761724,111.54122236761724,22.8196427618111,439.6026804000139,118,22,female,True
78,133.0,25,F,up,0.5364042999572121,1.7981001090563673,,psi_staircase_training,emotion,,112.16469676531972,112.16469676531972,21.96489262558616,442.45246230001794,118,22,female,True
79,91.0,25,F,down,0.72265020001214,0.5726395168746837,,psi_staircase_training,emotion,,111.52394602535809,111.52394602535809,21.14365755621744,443.9191945000202,118,22,female,True
80,131.0,25,M,down,0.3500258999993093,1.3164489512576316,,psi_staircase_training,emotion,,112.09530033444145,112.09530033444145,20.381694257611635,446.30243280000286,118,22,female,True
81,139.0,25,M,up,0.4934619999839924,0.8156171628305247,,psi_staircase_training,emotion,,114.86179552580111,114.86179552580111,23.73934395573308,447.9023916000151,118,22,female,True
82,0.29,25,up,up,0.400227400008589,1.5122766649163375,,psi_staircase,cRDM,,0.25,0.2569312402994632,0.105,473.4847943999921,118,22,female,True
83,0.25,25,up,up,0.416774199984502,0.6407016962932081,,psi_staircase,cRDM,,0.2191026665318312,0.2260132002683492,0.1046863203387393,474.8180576000013,118,22,female,True
84,0.21,25,down,down,0.4774424000061117,0.416302994583658,,psi_staircase,cRDM,,0.1900540959403307,0.1968497961554001,0.1029467298424999,475.901371999993,118,22,female,True
85,0.18,25,down,down,0.5902752000256442,1.7932106806589718,,psi_staircase,cRDM,,0.1635257589279754,0.1701521334256793,0.1003816477568649,478.4345756000257,118,22,female,True
86,0.15,25,up,up,0.3171330000041052,1.5355109050336448,,psi_staircase,cRDM,,0.1401895574244936,0.1466013351187503,0.0971307628663642,480.8178484000382,118,22,female,True
87,0.13,25,down,down,0.4223833000287413,1.784234024316161,,psi_staircase,cRDM,,0.1198760602145479,0.1260554767618333,0.0936107694196103,483.28441770002246,118,22,female,True
88,0.11,25,up,up,0.367252699972596,1.4317950904737429,,psi_staircase,cRDM,,0.1025773523696548,0.1084910344569865,0.0895852101993795,485.40100400004303,118,22,female,True
89,0.09,25,down,down,0.3171902999747544,1.6951457913645065,,psi_staircase,cRDM,,0.087844325958594,0.0934818215320969,0.0854013148647635,487.7842188000213,118,22,female,True
90,0.08,25,down,up,0.4436629999545403,0.5690453667826514,,psi_staircase,cRDM,,0.0751852092118086,0.0805556301471181,0.0813554535472043,489.0341792000109,118,22,female,True
91,0.13,25,up,up,0.5160055000451393,0.5603733040401008,,psi_staircase,cRDM,,0.1145374077699418,0.1210371210567565,0.0984628819128368,490.3008061000146,118,22,female,True
92,0.13,25,down,down,0.4994280999526381,1.7871771238113017,,psi_staircase,cRDM,,0.1023941484636293,0.108577482786431,0.0936701190325844,492.8674186000135,118,22,female,True
93,0.12,25,down,up,0.4729470000020228,1.625009272586699,,psi_staircase,cRDM,,0.093157405715179,0.098965388034743,0.0879839851464166,495.2508940999978,118,22,female,True
94,0.16,25,down,down,0.5044664000160992,0.5734297147369787,,psi_staircase,cRDM,,0.1290085181734406,0.136602985232638,0.1150470921167567,496.55040290002944,118,22,female,True
95,0.16,25,up,up,0.3840625999728217,1.8594168433462472,,psi_staircase,cRDM,,0.1173317507949223,0.1246537931796921,0.1109201841494908,499.1671900000074,118,22,female,True
96,0.15,25,up,down,0.5351984999724664,1.60104521162919,,psi_staircase,cRDM,,0.1084336674921715,0.115430444050328,0.105992795930524,501.450665100012,118,22,female,True
97,0.2,25,down,down,0.4615837999735959,0.8992278769430351,,psi_staircase,cRDM,,0.1440985501660944,0.1528134769152337,0.1320207162245539,503.1502492,118,22,female,True
98,0.19,25,down,down,0.5205787000013515,1.2246425059617296,,psi_staircase,cRDM,,0.1325912663771264,0.1411239034644318,0.1292592458865469,505.1002688000444,118,22,female,True
99,0.18,25,up,up,0.3505158000043593,0.9389529618570468,,psi_staircase,cRDM,,0.1233039328808346,0.1316215548003485,0.1260020232766401,506.8168758000247,118,22,female,True
100,0.14,25,up,up,0.3672676999703981,1.856317584516129,,psi_staircase,cRDM,,0.115722336329528,0.1238112601928907,0.1225375212743451,509.3499945999938,118,22,female,True
101,0.14,25,up,up,0.5554607000085525,0.6549706729391608,,psi_staircase,cRDM,,0.1071068047794146,0.1152839902880109,0.1238745796288587,510.683393000043,118,22,female,True
102,0.14,25,up,up,0.4744746999931521,0.4678308884977837,,psi_staircase,cRDM,,0.0997346012349838,0.1079099011021013,0.1238460144158911,511.9833623000304,118,22,female,True
103,0.11,25,down,down,0.3172790000098757,0.6303184679023026,,psi_staircase,cRDM,,0.0935440351545593,0.1016454502194367,0.122726748036424,513.3498848000308,118,22,female,True
104,0.11,25,down,up,0.6659189999918453,0.574414226812433,,psi_staircase,cRDM,,0.0865336216413926,0.0948315574600588,0.1257038023955727,514.5999281000113,118,22,female,True
105,0.16,25,down,down,0.4550863999756984,0.5141572845902633,,psi_staircase,cRDM,,0.1064893415115262,0.1144686538970861,0.1208770384931918,516.0497510000132,118,22,female,True
106,0.15,25,up,up,0.4206579999881796,0.5990861960559608,,psi_staircase,cRDM,,0.1020759508976671,0.1098033373368953,0.1170606617378128,517.3831575000077,118,22,female,True
107,0.1,25,up,down,0.4006663999753073,0.4672423809398563,,psi_staircase,cRDM,,0.0981069301134532,0.1056107254327054,0.1136735237101061,518.5496496999986,118,22,female,True
108,0.16,25,down,down,0.538723099976778,0.8425802419742201,,psi_staircase,cRDM,,0.1145015968626578,0.1208308341085107,0.0958803738006334,520.083069400047,118,22,female,True
109,0.15,25,down,up,0.5161942000268027,0.6107864745500745,,psi_staircase,cRDM,,0.1117669489386472,0.1177100817879214,0.0900313540164105,521.4996966000181,118,22,female,True
110,0.18,25,up,up,0.3998896999983117,1.3592780386111774,,psi_staircase,cRDM,,0.1257697475018277,0.1336613887933893,0.11954892628353,523.6498434999958,118,22,female,True
111,0.18,25,up,up,0.3839011999662034,1.515254840570646,,psi_staircase,cRDM,,0.1217375253940786,0.1293095542151002,0.1147071796470293,525.8493909999961,118,22,female,True
112,0.13,25,down,down,0.5024537999997847,1.861696847311709,,psi_staircase,cRDM,,0.1186404715955233,0.1258793728395333,0.109660695313062,528.3994141000439,118,22,female,True
113,0.13,25,up,up,0.4397821000311523,1.7930778276409682,,psi_staircase,cRDM,,0.1123451434107751,0.1199371806340194,0.1150102830084226,530.9660253000329,118,22,female,True
114,0.14,25,down,down,0.3838570000370964,1.990013366727194,,psi_staircase,cRDM,,0.1065740617810858,0.114406461060425,0.1186514806584173,533.6659077000222,118,22,female,True
115,0.14,25,up,up,0.4002562999958172,1.6868429758577117,,psi_staircase,cRDM,,0.1022053524374404,0.1100235704119072,0.1184366508520236,536.0324574999977,118,22,female,True
116,0.1,25,down,down,0.5754151999717578,1.6553335416116342,,psi_staircase,cRDM,,0.0984807872945816,0.1062230514039827,0.1172860406455771,538.3823998000007,118,22,female,True
117,0.1,25,up,up,0.4167596999905072,1.043068400908375,,psi_staircase,cRDM,,0.0926865260896849,0.1009069641710373,0.1245298043712098,540.2823426999967,118,22,female,True
118,0.1,25,down,down,0.566572499985341,0.7763447734300559,,psi_staircase,cRDM,,0.0872602609663886,0.0958501788500829,0.1301269814376155,541.7322543000337,118,22,female,True
119,0.1,25,up,up,0.3838414000347256,1.6553021984581506,,psi_staircase,cRDM,,0.0822769651413382,0.091139974054561,0.1342639838876254,544.232146400027,118,22,female,True
120,0.1,25,up,up,0.4168130999896675,0.5852687281488974,,psi_staircase,cRDM,,0.0777486969724119,0.0868051166030395,0.1371939249155057,545.4987833999912,118,22,female,True
121,0.1,25,down,up,0.3674272000207566,1.601669640666727,,psi_staircase,cRDM,,0.0736493072524375,0.0828363652681313,0.1391729401911727,547.7820357000455,118,22,female,True
122,0.1,25,down,down,0.4628659000154584,0.8676685967635611,,psi_staircase,cRDM,,0.0857912153566339,0.0947079504684793,0.1350778715342288,549.331946499995,118,22,female,True
123,0.09,25,down,down,0.5709532999899238,1.929991524646504,,psi_staircase,cRDM,,0.0814332661728363,0.090544030838632,0.138017187195577,551.9818994000088,118,22,female,True
124,0.1,25,up,up,0.4360363999730907,1.104282072464496,,psi_staircase,cRDM,,0.0773087474792303,0.0865860465304834,0.1405399839415473,553.9317992000142,118,22,female,True
125,0.17,25,up,up,0.536579100007657,1.8222536967611789,,psi_staircase,cRDM,,0.0736490897209687,0.0830163450637845,0.1419027141609603,556.4482470999938,118,22,female,True
126,0.09,25,down,down,0.4168023000238463,1.2223877753952863,,psi_staircase,cRDM,,0.0718119217641811,0.0810645484888246,0.1401662277042685,558.4816420000279,118,22,female,True
127,0.17,25,down,up,0.5786754000000656,0.5880930113245892,,psi_staircase,cRDM,,0.0683873985946677,0.0777299135133576,0.1415279263277599,559.7481664000079,118,22,female,True
128,0.22,25,down,down,0.4913235999993048,1.2530981206614784,,psi_staircase,cRDM,,0.0788468042362516,0.0888913938041661,0.1521635175038881,561.8315081000328,118,22,female,True
129,0.21,25,up,up,0.3674307999899611,1.3072004984162628,,psi_staircase,cRDM,,0.0772746348590688,0.0872162025982909,0.1506028600248001,563.881440200028,118,22,female,True
130,0.21,25,up,up,0.5437290999689139,0.7313846086382569,,psi_staircase,cRDM,,0.0757147683954035,0.0855558445183304,0.1490805322371159,565.2980696000159,118,22,female,True
131,0.21,25,up,up,0.5994814999867231,0.3176852516916285,,psi_staircase,cRDM,,0.074278940973504,0.084020520614453,0.1475732795440447,566.4313284000382,118,22,female,True
132,100.0,25,M,down,0.5772378000547178,1.005144160803087,,psi_staircase,emotion,,100.0,100.0,25.00050000000001,577.797603700019,118,22,female,True
133,145.0,25,M,up,0.416816699958872,0.9012312158436188,,psi_staircase,emotion,,145.25719053245996,145.25719053245996,25.00050000000028,579.6141844000085,118,22,female,True
134,121.0,25,F,up,0.5000947999651544,1.9908979586235729,,psi_staircase,emotion,,120.36392901436103,120.36392901436103,25.71326925488699,582.3807658000151,118,22,female,True
135,97.0,25,F,down,0.6761696999892592,1.85246396111311,,psi_staircase,emotion,,102.3887610608496,102.3887610608496,26.14633372628729,585.0806528000394,118,22,female,True
136,113.0,25,M,down,0.583897500007879,1.1767457045029075,,psi_staircase,emotion,,114.01123255420406,114.01123255420406,23.00305641778335,587.2639052000013,118,22,female,True
137,127.0,25,F,up,0.4310008999891579,0.6160914297814134,,psi_staircase,emotion,,123.15505271238727,123.15505271238727,23.86267166612523,588.8138481000206,118,22,female,True
138,117.0,25,M,up,0.6973625000100583,0.4319847306696029,,psi_staircase,emotion,,116.72664759921038,116.72664759921038,20.612160618334432,590.0304752000375,118,22,female,True
139,107.0,25,F,up,0.5167971000191756,1.5554598590959638,,psi_staircase,emotion,,111.41772370799676,111.41772370799676,20.39996786109954,592.6470352000324,118,22,female,True
140,91.0,25,F,down,0.7861952999955975,0.7814176150332686,,psi_staircase,emotion,,104.32443105099112,104.32443105099112,26.32628876540062,594.3136398000061,118,22,female,True
141,93.0,25,M,down,0.7068660000222735,0.851753742624066,,psi_staircase,emotion,,107.92512315738632,107.92512315738632,23.70033126942176,596.2969353999943,118,22,female,True
142,124.0,25,F,up,0.8600633999449201,1.01057807922584,,psi_staircase,emotion,,110.22796413543166,110.22796413543166,21.45892762814926,598.3637579000206,118,22,female,True
143,95.0,25,F,down,0.5297227000119165,1.4229818896762203,,psi_staircase,emotion,,108.403965494472,108.403965494472,19.38210143201049,600.9801210000296,118,22,female,True
144,122.0,25,F,down,0.9944099999847822,0.4645422010912329,,psi_staircase,emotion,,109.94368713509012,109.94368713509012,17.31191981424421,602.3133694000426,118,22,female,True
145,133.0,25,M,up,0.4465587000013329,1.8582922377426137,,psi_staircase,emotion,,114.5931406609328,114.5931406609328,24.112921542229667,605.5132408000063,118,22,female,True
146,132.0,25,M,up,0.5299675000132993,1.0222819803089722,,psi_staircase,emotion,,113.11482960151436,113.11482960151436,22.3415717159731,607.3298561000265,118,22,female,True
147,95.0,25,F,down,0.5904176000040025,0.6718947132610326,,psi_staircase,emotion,,112.04211990761918,112.04211990761918,20.78866919367305,608.8633829000173,118,22,female,True
148,97.0,25,F,down,0.5054323000367731,0.7549515488456654,,psi_staircase,emotion,,113.14858318163756,113.14858318163756,19.1899060262132,610.5463899000315,118,22,female,True
149,130.0,25,M,up,0.5895510999835096,1.280319845086438,,psi_staircase,emotion,,114.00913104773956,114.00913104773956,17.8067915036077,612.6963057999965,118,22,female,True
150,99.0,25,M,down,0.8822742999764159,1.680915666955395,,psi_staircase,emotion,,113.18131505702776,113.18131505702776,16.448035494338278,615.3295223000459,118,22,female,True
151,127.0,25,M,up,0.5837110000429675,1.32536989408215,,psi_staircase,emotion,,113.881547657974,113.881547657974,15.294028128063893,617.8961096000276,118,22,female,True
152,103.0,25,M,down,0.90476890001446,0.6711435379249999,,psi_staircase,emotion,,113.171762591813,113.171762591813,14.17861268692099,619.496061700047,118,22,female,True
153,125.0,25,F,up,0.5605724999913946,1.8285441326453509,,psi_staircase,emotion,,113.90039185885716,113.90039185885716,13.267994517046231,622.5792862999951,118,22,female,True
154,107.0,25,F,down,0.7000539999571629,0.7105543171569276,,psi_staircase,emotion,,113.29018031930764,113.29018031930764,12.381396674811938,624.1958658000221,118,22,female,True
155,124.0,25,F,up,0.6456571000162512,0.8889119011641897,,psi_staircase,emotion,,114.1218099604705,114.1218099604705,11.732988674591825,626.1291351999971,118,22,female,True
156,108.0,25,M,down,0.628449100011494,1.673262675507321,,psi_staircase,emotion,,113.6118220691094,113.6118220691094,11.025272335255975,628.8124016000074,118,22,female,True
157,110.0,25,M,down,0.4928670999943279,0.4012917789024904,,psi_staircase,emotion,,114.33851935599196,114.33851935599196,10.463721733866777,630.1789972000406,118,22,female,True
158,112.0,25,F,down,0.9942654999904336,1.362709057857266,,psi_staircase,emotion,,115.0756716013286,115.0756716013286,10.008635855332786,632.3955728000146,118,22,female,True
159,124.0,25,F,up,0.6727562000160106,0.4889820041703718,,psi_staircase,emotion,,115.84098410282556,115.84098410282556,9.65015955146348,634.2121730000363,118,22,female,True
160,112.0,25,M,down,0.7141039000125602,1.9182346164532464,,psi_staircase,emotion,,115.44248187728384,115.44248187728384,9.082412026105592,637.128725800023,118,22,female,True
161,112.0,25,M,up,0.5858434999827296,1.4832526055377693,,psi_staircase,emotion,,116.07671089524617,116.07671089524617,8.66282629952141,639.6619841000065,118,22,female,True
162,124.0,25,F,down,1.2578779000323266,0.4010488111394808,,psi_staircase,emotion,,114.87633427164216,114.87633427164216,9.678037996756853,640.9619361000368,118,22,female,True
163,129.0,25,M,down,0.8566888999775983,1.6266248666090088,,psi_staircase,emotion,,116.35249252910695,116.35249252910695,12.032724143929991,644.1951450000051,118,22,female,True
164,135.0,25,F,up,0.6914593999972567,1.168882383262185,,psi_staircase,emotion,,118.09589832298389,118.09589832298389,15.681520202784077,646.578389900038,118,22,female,True
165,134.0,25,M,up,0.938833500025794,0.9573543347064686,,psi_staircase,emotion,,117.7272549286159,117.7272549286159,14.828155491854156,648.594979000045,118,22,female,True
166,133.0,25,F,up,0.6636469999793917,1.6623760752394388,,psi_staircase,emotion,,117.42580734388298,117.42580734388298,14.10657265130475,651.5281856000074,118,22,female,True
167,103.0,25,M,down,0.7133440000470728,1.26670533510418,,psi_staircase,emotion,,117.17117912266748,117.17117912266748,13.490589204491451,653.8114633000223,118,22,female,True
168,132.0,25,F,up,0.7001978000043891,1.1705135317826874,,psi_staircase,emotion,,117.41912691270868,117.41912691270868,12.94833230847943,656.044595000043,118,22,female,True
169,104.0,25,M,down,0.7664869999862276,0.4290288785220471,,psi_staircase,emotion,,117.19769967771056,117.19769967771056,12.460399844496472,657.5113188000396,118,22,female,True
170,131.0,25,M,up,0.962530400021933,0.3619972469214777,,psi_staircase,emotion,,117.427563239352,117.427563239352,12.020193060542232,659.0112631000229,118,22,female,True
171,105.0,25,F,down,0.5372919000219554,1.8848837408685248,,psi_staircase,emotion,,117.22710929463724,117.22710929463724,11.626797130670257,662.1945015999954,118,22,female,True
172,106.0,25,F,down,0.8886130999890156,1.7419591866946715,,psi_staircase,emotion,,117.4459633512955,117.4459633512955,11.262002375792624,664.8442116000224,118,22,female,True
173,129.0,25,F,up,0.5755043000099249,0.6116123782291187,,psi_staircase,emotion,,117.6579915607698,117.6579915607698,10.93285881147658,666.6943146000267,118,22,female,True
174,107.0,25,M,down,0.6555242000031285,1.3676536963268109,,psi_staircase,emotion,,117.44929587774575,117.44929587774575,10.61849539542927,668.9942440000013,118,22,female,True
175,128.0,25,M,up,0.9733108000364156,1.3820146707746428,,psi_staircase,emotion,,117.65985234541178,117.65985234541178,10.335151435519618,671.3774737000349,118,22,female,True
176,108.0,25,F,down,0.610760300012771,0.7982120367457133,,psi_staircase,emotion,,117.457007893284,117.457007893284,10.06621906598592,673.4940608000034,118,22,female,True
177,127.0,25,F,down,0.8604812999838032,0.8693970499141079,,psi_staircase,emotion,,117.66922345094996,117.66922345094996,9.817028954123211,675.3273325000191,118,22,female,True
178,131.0,25,F,up,0.5993050000397488,1.7223632032923912,,psi_staircase,emotion,,118.62173887763367,118.62173887763367,10.925546715555626,678.2605068000266,118,22,female,True
179,108.0,25,M,down,0.6389313999679871,0.5549268192492625,,psi_staircase,emotion,,118.46325682565607,118.46325682565607,10.664188473275107,679.7438162000035,118,22,female,True
180,108.0,25,M,down,1.258757500036154,1.9635849709505635,,psi_staircase,emotion,,118.65288356923578,118.65288356923578,10.414407454100228,682.6770766000263,118,22,female,True
181,130.0,25,M,up,0.5309148999513127,0.342190413661107,,psi_staircase,emotion,,118.82375947246054,118.82375947246054,10.186494277590274,684.643945400021,118,22,female,True
182,0.0729539727364975,25,down,up,0.5379355999757536,0.7931704648968498,,experiment,cRDM,0.0,,,,697.7598477000138,118,22,female,True
183,0.0729539727364975,25,up,up,0.4913821999798529,1.8664599790666976,,experiment,cRDM,0.0,,,,700.4263918999932,118,22,female,True
184,0.0729539727364975,25,down,down,0.5014564999728464,1.0877329924928962,,experiment,cRDM,0.0,,,,702.2763511000085,118,22,female,True
185,0.0729539727364975,25,up,up,0.4515509000048041,1.434127886014166,,experiment,cRDM,0.0,,,,704.4762615000363,118,22,female,True
186,0.0729539727364975,25,down,down,0.4489831000100821,1.5069912380440422,,experiment,cRDM,0.0,,,,706.6928435000009,118,22,female,True
187,0.0729539727364975,25,down,up,0.5609163000481203,0.4887917843674213,,experiment,cRDM,0.0,,,,707.8928065000218,118,22,female,True
188,0.0729539727364975,25,up,down,0.727694800007157,0.355906854073061,,experiment,cRDM,0.0,,,,709.0761054999894,118,22,female,True
189,0.0729539727364975,25,down,down,0.6078045000322163,1.0569883319764868,,experiment,cRDM,0.0,,,,711.1260121000232,118,22,female,True
190,0.0729539727364975,25,up,up,0.4808161000255495,0.9690440957126878,,experiment,cRDM,0.0,,,,712.9759615000221,118,22,female,True
191,0.0729539727364975,25,up,up,0.4233559000422247,0.3160078429094681,,experiment,cRDM,0.0,,,,714.0423831000226,118,22,female,True
192,0.0729539727364975,25,down,up,0.7530106999911368,0.3025484518546172,,experiment,cRDM,0.0,,,,715.025862200011,118,22,female,True
193,0.0729539727364975,25,up,up,0.4857044999953359,0.5697854754295857,,experiment,cRDM,0.0,,,,716.6091394000105,118,22,female,True
194,0.0729539727364975,25,up,down,0.5031141999643296,1.8679427123717829,,experiment,cRDM,0.0,,,,719.2257140000002,118,22,female,True
195,0.0729539727364975,25,up,up,0.5582113999989815,1.4484344562456632,,experiment,cRDM,0.0,,,,721.4256790000363,118,22,female,True
196,0.0729539727364975,25,down,down,0.8135520999785513,0.3548985951657095,,experiment,cRDM,0.0,,,,722.5922643000376,118,22,female,True
197,0.0729539727364975,25,down,down,0.5062966999830678,1.6589085003923054,,experiment,cRDM,0.0,,,,725.325469900039,118,22,female,True
198,0.0729539727364975,25,up,up,0.5136681000003591,0.5911451432017127,,experiment,cRDM,0.0,,,,726.692114000034,118,22,female,True
199,0.0729539727364975,25,up,down,0.5410255999886431,1.6030196870878115,,experiment,cRDM,0.0,,,,729.0587045000284,118,22,female,True
200,0.0729539727364975,25,down,up,0.6787509000278078,0.5379776205897528,,experiment,cRDM,0.0,,,,730.3919802000164,118,22,female,True
201,0.0729539727364975,25,down,down,0.4595395000069402,1.347474518052581,,experiment,cRDM,0.0,,,,732.6752276000334,118,22,female,True
202,0.0729539727364975,25,up,up,0.638339500001166,1.6125180767089398,,experiment,cRDM,0.0,,,,735.0084744000342,118,22,female,True
203,0.0729539727364975,25,down,up,0.6184822999639437,1.3003523438710474,,experiment,cRDM,0.0,,,,737.2083621000056,118,22,female,True
204,0.0729539727364975,25,up,down,0.5037399000138976,1.3840980852112483,,experiment,cRDM,0.0,,,,739.4750169000472,118,22,female,True
205,0.0729539727364975,25,down,up,0.6506607999908738,1.2204247096604934,,experiment,cRDM,0.0,,,,741.4581010999973,118,22,female,True
206,0.0729539727364975,25,down,down,0.4173307999735698,1.1254222112988523,,experiment,cRDM,0.0,,,,743.4915130000445,118,22,female,True
207,0.0729539727364975,25,up,up,0.555048500013072,0.5464392916773639,,experiment,cRDM,0.0,,,,744.7247855000314,118,22,female,True
208,0.0729539727364975,25,up,up,0.515475400025025,1.5114756560594875,,experiment,cRDM,0.0,,,,747.0413367000292,118,22,female,True
209,0.0729539727364975,25,down,up,0.5048643000191078,1.5958723085301254,,experiment,cRDM,0.0,,,,749.4079383999924,118,22,female,True
210,0.0729539727364975,25,up,down,0.4779257000191137,1.3449334397588504,,experiment,cRDM,0.0,,,,751.5078539000242,118,22,female,True
211,0.0729539727364975,25,down,down,0.367169700039085,1.7789707021235548,,experiment,cRDM,0.0,,,,754.0244268000242,118,22,female,True
212,0.0729539727364975,25,up,up,0.5492153000086546,0.653979012590063,,experiment,cRDM,0.0,,,,755.3575827000313,118,22,female,True
213,0.0729539727364975,25,down,up,0.5669037000043318,1.9724582292340171,,experiment,cRDM,0.0,,,,758.1409310000017,118,22,female,True
214,0.0729539727364975,25,up,up,0.5358858000254259,0.3272956259691244,,experiment,cRDM,0.0,,,,759.2909100000397,118,22,female,True
215,0.0729539727364975,25,down,down,0.5254240999929607,1.8696061027594224,,experiment,cRDM,0.0,,,,761.9573885000427,118,22,female,True
216,0.0729539727364975,25,up,up,0.5670005999854766,0.5916076067213634,,experiment,cRDM,0.0,,,,763.3407507000375,118,22,female,True
217,0.0729539727364975,25,down,down,0.5831609999877401,0.712003282215625,,experiment,cRDM,0.0,,,,764.8906956000137,118,22,female,True
218,0.0729539727364975,25,up,up,0.6941319999750704,0.5649749800777752,,experiment,cRDM,0.0,,,,766.2906445999979,118,22,female,True
219,0.0729539727364975,25,down,down,0.5678908999543637,0.7696362821420049,,experiment,cRDM,0.0,,,,768.0239386000321,118,22,female,True
220,0.0729539727364975,25,up,up,0.6272405000054277,0.8366062259939273,,experiment,cRDM,0.0,,,,769.6905370000168,118,22,female,True
221,0.0729539727364975,25,down,down,0.5970522999996319,0.7321562662760641,,experiment,cRDM,0.0,,,,771.3237793000299,118,22,female,True
222,0.0729539727364975,25,down,up,0.4700355000095442,1.2791065968749284,,experiment,cRDM,0.0,,,,773.473736600019,118,22,female,True
223,0.0729539727364975,25,up,down,0.5196204999811016,1.134542225777553,,experiment,cRDM,0.0,,,,775.3401501000044,118,22,female,True
224,0.0729539727364975,25,down,up,0.6853205999941565,1.5147386731120194,,experiment,cRDM,0.0,,,,777.6404893000145,118,22,female,True
225,0.0729539727364975,25,up,down,0.5560754000325687,1.4590836635322153,,experiment,cRDM,0.0,,,,780.056695700041,118,22,female,True
226,0.0729539727364975,25,up,up,0.5578987000044435,1.261756770736487,,experiment,cRDM,0.0,,,,782.1399009000161,118,22,female,True
227,0.0729539727364975,25,down,up,0.587422400014475,0.5701862308258836,,experiment,cRDM,0.0,,,,783.5233373999945,118,22,female,True
228,0.0729539727364975,25,down,down,0.659809899982065,0.4266670911641929,,experiment,cRDM,0.0,,,,784.7899689000333,118,22,female,True
229,0.0729539727364975,25,up,down,0.5738809999893419,0.8797624064584455,,experiment,cRDM,0.0,,,,786.5899034999893,118,22,female,True
230,0.0729539727364975,25,down,down,0.7999745999695733,1.5580803390258595,,experiment,cRDM,0.0,,,,788.9898269000114,118,22,female,True
231,0.0729539727364975,25,up,up,0.4797281999490224,0.4699807342116251,,experiment,cRDM,0.0,,,,790.5230499000172,118,22,female,True
232,0.0729539727364975,25,up,up,0.586127899994608,1.0210511594373437,,experiment,cRDM,0.0,,,,792.2896827000077,118,22,female,True
233,0.0729539727364975,25,up,up,1.1721304999664426,0.5525142520780622,,experiment,cRDM,0.0,,,,793.6896400999976,118,22,female,True
234,0.0729539727364975,25,up,down,0.4368641000473872,1.145104449689946,,experiment,cRDM,0.0,,,,796.2728664000169,118,22,female,True
235,0.0729539727364975,25,up,up,0.5930690999957733,1.5393485662458717,,experiment,cRDM,0.0,,,,798.5227740000119,118,22,female,True
236,0.0729539727364975,25,down,down,0.632127299963031,1.834827555028561,,experiment,cRDM,0.0,,,,801.2226877000066,118,22,female,True
237,0.0729539727364975,25,down,up,0.4485073999967426,1.426066706639568,,experiment,cRDM,0.0,,,,803.539243700041,118,22,female,True
238,0.0729539727364975,25,down,down,0.7238964000134729,1.167188107149312,,experiment,cRDM,0.0,,,,805.4058751999983,118,22,female,True
239,0.0729539727364975,25,up,up,0.3836656999774277,0.759927649886736,,experiment,cRDM,0.0,,,,807.1558298000018,118,22,female,True
240,0.0729539727364975,25,down,up,0.4378304000128992,0.6163378017985678,,experiment,cRDM,0.0,,,,808.4389410000294,118,22,female,True
241,0.0729539727364975,25,down,down,0.5220550000085495,0.8566231659113923,,experiment,cRDM,0.0,,,,810.0057068000315,118,22,female,True
242,0.0729539727364975,25,down,up,0.5484561000484973,0.9370141550915144,,experiment,cRDM,0.0,,,,811.7223228000221,118,22,female,True
243,0.0729539727364975,25,up,down,0.4167888999800198,1.7367818613218704,,experiment,cRDM,0.0,,,,814.2722284999909,118,22,female,True
244,0.0729539727364975,25,down,up,0.5848948999773711,0.4440904448868067,,experiment,cRDM,0.0,,,,815.3888582999934,118,22,female,True
245,0.0729539727364975,25,up,up,0.4002377000288106,1.9290406427980449,,experiment,cRDM,0.0,,,,818.1720847000252,118,22,female,True
246,0.0729539727364975,25,up,up,0.4491511000087484,1.5342880234798606,,experiment,cRDM,0.0,,,,820.3886473000166,118,22,female,True
247,0.0729539727364975,25,down,up,0.5406209999928251,0.9513655971096572,,experiment,cRDM,0.0,,,,822.0552857000148,118,22,female,True
248,0.0729539727364975,25,up,up,0.5429445000481792,1.220374095209963,,experiment,cRDM,0.0,,,,824.0718520000228,118,22,female,True
249,0.0729539727364975,25,down,down,0.4182716999785043,1.0024241571640018,,experiment,cRDM,0.0,,,,825.8884990999941,118,22,female,True
250,0.0729539727364975,25,up,up,0.4861095999949612,1.555895278616863,,experiment,cRDM,0.0,,,,828.1216962999897,118,22,female,True
251,0.0729539727364975,25,down,down,0.8998932999675162,1.089789185482433,,experiment,cRDM,0.0,,,,829.9548673999961,118,22,female,True
252,0.0729539727364975,25,up,up,0.5825540999649093,1.6618556294321272,,experiment,cRDM,0.0,,,,832.7882138999994,118,22,female,True
253,0.0729539727364975,25,down,up,0.4805560000240803,0.5588637627756696,,experiment,cRDM,0.0,,,,834.1881555000436,118,22,female,True
254,0.0729539727364975,25,down,down,0.9008070999989286,1.4619266721696995,,experiment,cRDM,0.0,,,,836.3880067000282,118,22,female,True
255,0.0729539727364975,25,down,up,0.4967573000467382,0.8470401281297311,,experiment,cRDM,0.0,,,,838.3880126000149,118,22,female,True
256,0.0729539727364975,25,down,up,0.8269096000003628,0.8895049703020492,,experiment,cRDM,0.0,,,,840.0378055000328,118,22,female,True
257,0.0729539727364975,25,down,up,0.7095921000000089,1.594474502943679,,experiment,cRDM,0.0,,,,842.7211722999928,118,22,female,True
258,0.0729539727364975,25,up,down,0.4529891000129282,0.490976842216265,,experiment,cRDM,0.0,,,,844.1877735000453,118,22,female,True
259,0.0729539727364975,25,up,up,0.6984717000159435,1.1588619242251696,,experiment,cRDM,0.0,,,,846.0542846000171,118,22,female,True
260,0.0729539727364975,25,up,up,0.5838533000205643,1.5023113737077376,,experiment,cRDM,0.0,,,,848.5209655000363,118,22,female,True
261,0.0729539727364975,25,up,up,0.8392055000294931,0.9070992397360084,,experiment,cRDM,0.0,,,,850.2875516000204,118,22,female,True
262,122.0,25,M,down,0.644740300020203,1.4827087290997176,,experiment,emotion,0.0,,,,874.4199844000395,118,22,female,True
263,114.0,25,M,down,0.6302532000117935,1.650569815507032,,experiment,emotion,0.0,,,,876.9865545000066,118,22,female,True
264,119.0,25,F,down,0.4169446000014432,1.7280205039310204,,experiment,emotion,0.0,,,,879.6363303000107,118,22,female,True
265,122.0,25,F,down,0.7393154999590479,0.3612835178238279,,experiment,emotion,0.0,,,,880.6864255000255,118,22,female,True
266,119.0,25,M,down,0.6957668000250123,1.486255830639455,,experiment,emotion,0.0,,,,883.2029930000426,118,22,female,True
267,117.0,25,F,down,0.7474814999732189,1.1006131501278085,,experiment,emotion,0.0,,,,885.2862667000154,118,22,female,True
268,114.0,25,M,down,0.6184032000019215,1.9164973654381283,,experiment,emotion,0.0,,,,888.2364148999914,118,22,female,True
269,117.0,25,M,down,0.7353533999994397,0.4474701492395663,,experiment,emotion,0.0,,,,889.569437600032,118,22,female,True
270,122.0,25,F,up,0.8004150000051595,0.4414981919250739,,experiment,emotion,0.0,,,,891.0193664000253,118,22,female,True
271,117.0,25,F,down,0.5615023999707773,1.9756436408980136,,experiment,emotion,0.0,,,,894.0692722999956,118,22,female,True
272,119.0,25,F,down,1.1491977999685332,0.7606075325503243,,experiment,emotion,0.0,,,,895.6525574999978,118,22,female,True
273,122.0,25,F,up,0.3835391000029631,1.573287907783479,,experiment,emotion,0.0,,,,898.6524337000446,118,22,female,True
274,119.0,25,F,up,0.895166700007394,1.8804884838123963,,experiment,emotion,0.0,,,,901.235620099993,118,22,female,True
275,114.0,25,F,up,0.7431711000390351,1.272217642167694,,experiment,emotion,0.0,,,,903.68560050003,118,22,female,True
276,117.0,25,M,down,0.894896499987226,1.1539612581520673,,experiment,emotion,0.0,,,,905.8688533999956,118,22,female,True
277,114.0,25,M,up,0.6803185000317171,0.7571840418791791,,experiment,emotion,0.0,,,,907.785444100038,118,22,female,True
278,122.0,25,M,up,1.3077751999953762,1.4085472861962378,,experiment,emotion,0.0,,,,910.1520236000068,118,22,female,True
279,114.0,25,M,down,0.7371657000039704,0.7270193227222335,,experiment,emotion,0.0,,,,912.4685864000348,118,22,female,True
280,119.0,25,F,down,0.7175808000029065,1.7934615967983665,,experiment,emotion,0.0,,,,915.2851520000258,118,22,female,True
281,119.0,25,M,up,0.8169796000001952,1.2716007466938857,,experiment,emotion,0.0,,,,917.551763800031,118,22,female,True
282,117.0,25,M,down,0.6171094000455923,0.6606300152627476,,experiment,emotion,0.0,,,,919.301655600022,118,22,female,True
283,117.0,25,F,down,0.6080784000223503,0.4798240745272422,,experiment,emotion,0.0,,,,920.651653900044,118,22,female,True
284,114.0,25,M,down,0.5912093999795616,1.108509259818722,,experiment,emotion,0.0,,,,922.6515727000078,118,22,female,True
285,122.0,25,F,up,0.5696715000085533,1.3674537505483475,,experiment,emotion,0.0,,,,924.9181318000192,118,22,female,True
286,119.0,25,F,up,0.7747029000311159,0.951630909948614,,experiment,emotion,0.0,,,,926.718066200032,118,22,female,True
287,114.0,25,M,down,0.6477029999950901,1.0108634401932175,,experiment,emotion,0.0,,,,928.7679918000358,118,22,female,True
288,122.0,25,M,up,0.6738568999571726,1.7794456528870808,,experiment,emotion,0.0,,,,931.467895400012,118,22,female,True
289,122.0,25,F,up,1.0256075999932364,1.5953074289056393,,experiment,emotion,0.0,,,,934.0011391000008,118,22,female,True
290,117.0,25,M,down,1.0235421999823302,1.2183959251514958,,experiment,emotion,0.0,,,,936.534275300044,118,22,female,True
291,114.0,25,F,up,0.7728154000360519,1.86637278782885,,experiment,emotion,0.0,,,,939.700927900034,118,22,female,True
292,117.0,25,F,down,1.1916368000092916,1.8919825780128787,,experiment,emotion,0.0,,,,942.634131800034,118,22,female,True
293,119.0,25,F,down,0.8817233999725431,0.9289117081608584,,experiment,emotion,0.0,,,,945.0340638000052,118,22,female,True
294,114.0,25,M,down,0.7691038000048138,0.3653869792107729,,experiment,emotion,0.0,,,,946.5506667000008,118,22,female,True
295,122.0,25,M,up,0.8645224000210874,1.6649776362745086,,experiment,emotion,0.0,,,,949.2672406000202,118,22,female,True
296,119.0,25,M,down,1.328932300035376,0.5833732302807617,,experiment,emotion,0.0,,,,950.9838436000282,118,22,female,True
297,122.0,25,F,up,1.3567310000071302,1.830216861997619,,experiment,emotion,0.0,,,,954.417042999994,118,22,female,True
298,114.0,25,F,down,1.1971650999621488,1.747410723826545,,experiment,emotion,0.0,,,,957.7835900000064,118,22,female,True
299,119.0,25,M,down,0.7769146999926306,1.1080573295797078,,experiment,emotion,0.0,,,,960.3668262000429,118,22,female,True
300,117.0,25,F,down,0.8283107999595813,1.610662528945516,,experiment,emotion,0.0,,,,963.0334388000192,118,22,female,True
301,117.0,25,M,down,0.9438214999972844,1.7053818794591349,,experiment,emotion,0.0,,,,965.8499525000224,118,22,female,True
302,119.0,25,M,down,0.8385209999978542,1.019187276488443,,experiment,emotion,0.0,,,,968.0832199000288,118,22,female,True
303,122.0,25,M,down,0.6706003000144847,1.1757928551233592,,experiment,emotion,0.0,,,,970.3831401999925,118,22,female,True
304,117.0,25,F,up,0.6477043000049889,1.0594236849010332,,experiment,emotion,0.0,,,,972.3830406999914,118,22,female,True
305,114.0,25,F,down,0.8901283000013791,1.927647732368961,,experiment,emotion,0.0,,,,975.249616200046,118,22,female,True
306,114.0,25,M,up,1.1455963000189513,1.9142438501791543,,experiment,emotion,0.0,,,,978.3161431000336,118,22,female,True
307,117.0,25,F,up,0.683357400004752,1.5847133199862402,,experiment,emotion,0.0,,,,981.2993880000432,118,22,female,True
308,122.0,25,F,up,0.6553886000183411,0.8782444124855517,,experiment,emotion,0.0,,,,983.1493501000224,118,22,female,True
309,119.0,25,M,up,0.6964597000041977,0.9463957852760988,,experiment,emotion,0.0,,,,985.0492643000324,118,22,female,True
310,114.0,25,M,up,0.6621965999947861,0.82002997442826,,experiment,emotion,0.0,,,,986.8325280999998,118,22,female,True
311,122.0,25,F,down,0.9656681999913416,1.83788241765834,,experiment,emotion,0.0,,,,989.599084699992,118,22,female,True
312,119.0,25,M,up,0.9790721000172198,0.8155196177453845,,experiment,emotion,0.0,,,,991.665672000032,118,22,female,True
313,119.0,25,F,down,0.8421750999987125,1.9975867434125436,,experiment,emotion,0.0,,,,994.9155639000236,118,22,female,True
314,114.0,25,F,down,0.8243221000302583,0.8319765717088776,,experiment,emotion,0.0,,,,996.865479900036,118,22,female,True
315,117.0,25,F,down,0.6503696000436321,0.4493733286990647,,experiment,emotion,0.0,,,,998.4154041000291,118,22,female,True
316,122.0,25,M,down,0.7136789999785833,0.8976900822472436,,experiment,emotion,0.0,,,,1000.2320214000064,118,22,female,True
317,117.0,25,M,down,0.8871479000081308,1.4352181458151672,,experiment,emotion,0.0,,,,1002.6486109000398,118,22,female,True
318,117.0,25,F,down,0.8415550999925472,0.5048770800723327,,experiment,emotion,0.0,,,,1004.3151902999962,118,22,female,True
319,117.0,25,F,down,1.2995852999738418,0.3559340160979852,,experiment,emotion,0.0,,,,1005.7651725999896,118,22,female,True
320,122.0,25,M,down,0.8680359999998473,0.8490314625230739,,experiment,emotion,0.0,,,,1008.1817486000364,118,22,female,True
321,119.0,25,M,up,1.2783333000261337,1.0169983520019483,,experiment,emotion,0.0,,,,1010.3483355999924,118,22,female,True
322,114.0,25,M,down,0.7114559999899939,1.1016510297581432,,experiment,emotion,0.0,,,,1012.99825840001,118,22,female,True
323,114.0,25,M,down,0.826247000019066,0.6106595808306604,,experiment,emotion,0.0,,,,1014.5814842000254,118,22,female,True
324,119.0,25,M,up,0.8093303000205196,1.402918566549803,,experiment,emotion,0.0,,,,1017.081403899996,118,22,female,True
325,122.0,25,F,up,0.6997766999993473,1.5620276187555089,,experiment,emotion,0.0,,,,1019.7479891999974,118,22,female,True
326,122.0,25,F,up,0.7072100999648683,1.0333322122194244,,experiment,emotion,0.0,,,,1021.7645557000068,118,22,female,True
327,114.0,25,M,down,0.7412726000184193,0.8615707590797097,,experiment,emotion,0.0,,,,1023.6144807999954,118,22,female,True
328,122.0,25,F,up,1.082362800021656,0.4972549671375792,,experiment,emotion,0.0,,,,1025.1144422999932,118,22,female,True
329,117.0,25,F,down,0.4636888999957591,1.706516987161258,,experiment,emotion,0.0,,,,1028.180993200047,118,22,female,True
330,119.0,25,F,up,0.7395209000096656,1.291329142310596,,experiment,emotion,0.0,,,,1030.214243000024,118,22,female,True
331,117.0,25,M,down,0.8740372000029311,1.419118077521114,,experiment,emotion,0.0,,,,1032.6307334000012,118,22,female,True
332,114.0,25,F,up,0.8026417000219226,0.4953071620008578,,experiment,emotion,0.0,,,,1034.264099800028,118,22,female,True
333,119.0,25,F,up,0.7357324999757111,1.5801078677460494,,experiment,emotion,0.0,,,,1036.914027300023,118,22,female,True
334,117.0,25,F,down,0.8295404000091366,1.5702008719864824,,experiment,emotion,0.0,,,,1039.497232499998,118,22,female,True
335,119.0,25,M,down,0.8135641000117175,1.9032644165725157,,experiment,emotion,0.0,,,,1042.4971363000222,118,22,female,True
336,114.0,25,M,down,0.6370320999994874,1.4861048468724791,,experiment,emotion,0.0,,,,1045.0637079000007,118,22,female,True
337,122.0,25,F,up,0.7541982000111602,1.0162654898166366,,experiment,emotion,0.0,,,,1047.013496300031,118,22,female,True
338,119.0,25,M,down,1.2404784000245854,1.2892935996952817,,experiment,emotion,0.0,,,,1049.3302345999982,118,22,female,True
339,122.0,25,F,up,1.446661700028926,0.79059074248512,,experiment,emotion,0.0,,,,1051.6300643000286,118,22,female,True
340,114.0,25,M,down,1.3540434999740685,1.4046547607160649,,experiment,emotion,0.0,,,,1054.7466918000137,118,22,female,True
341,117.0,25,M,up,1.317520999989938,1.872929166531812,,experiment,emotion,0.0,,,,1058.2632415000116,118,22,female,True
342,0.0729539727364975,25,up,up,0.4776386999874376,0.736727982225344,,experiment,cRDM,1.0,,,,1089.6620862000273,118,22,female,True
343,0.0729539727364975,25,up,up,0.4643646000185981,0.4848994825669849,,experiment,cRDM,1.0,,,,1090.8953610000317,118,22,female,True
344,0.0729539727364975,25,down,down,0.669314700004179,1.184201088488677,,experiment,cRDM,1.0,,,,1092.8284107000218,118,22,female,True
345,0.0729539727364975,25,down,down,0.8298535000067204,1.4005201858541194,,experiment,cRDM,1.0,,,,1095.161876099999,118,22,female,True
346,0.0729539727364975,25,up,up,0.4924345000181347,0.7774803813766324,,experiment,cRDM,1.0,,,,1097.028286100016,118,22,female,True
347,0.0729539727364975,25,down,down,0.4949943999527022,0.8756409839361619,,experiment,cRDM,1.0,,,,1098.6617317000057,118,22,female,True
348,0.0729539727364975,25,up,up,0.468101900012698,1.8992226060928137,,experiment,cRDM,1.0,,,,1101.3116273999913,118,22,female,True
349,0.0729539727364975,25,up,up,0.751173899974674,1.4683050965615905,,experiment,cRDM,1.0,,,,1103.5115409000427,118,22,female,True
350,0.0729539727364975,25,down,down,0.5122731999726966,1.678619380453554,,experiment,cRDM,1.0,,,,1106.2114480000455,118,22,female,True
351,0.0729539727364975,25,down,up,0.5253464000415988,1.3300140109085012,,experiment,cRDM,1.0,,,,1108.311387100024,118,22,female,True
352,0.0729539727364975,25,down,up,0.6177397000137717,1.3754368956602725,,experiment,cRDM,1.0,,,,1110.477980900032,118,22,female,True
353,0.0729539727364975,25,down,down,0.6271689999848604,0.5339995270140131,,experiment,cRDM,1.0,,,,1111.8945692999987,118,22,female,True
354,0.0729539727364975,25,down,up,0.5032350000110455,1.7633579246739817,,experiment,cRDM,1.0,,,,1114.5445006000227,118,22,female,True
355,0.0729539727364975,25,down,up,0.6129864999675192,1.2744244283046775,,experiment,cRDM,1.0,,,,1116.5777418999933,118,22,female,True
356,0.0729539727364975,25,up,down,0.4167651000316255,0.5449892901703832,,experiment,cRDM,1.0,,,,1118.0110357000376,118,22,female,True
357,0.0729539727364975,25,up,up,0.4571519999881275,1.8911496444473512,,experiment,cRDM,1.0,,,,1120.5775813999935,118,22,female,True
358,0.0729539727364975,25,up,up,0.4002509000129066,0.8489852866103189,,experiment,cRDM,1.0,,,,1122.1442180000013,118,22,female,True
359,0.0729539727364975,25,up,up,0.4445746000274084,1.127114419966921,,experiment,cRDM,1.0,,,,1123.9441762000206,118,22,female,True
360,0.0729539727364975,25,down,up,0.4680119999684393,0.5727531137053342,,experiment,cRDM,1.0,,,,1125.2107396000065,118,22,female,True
361,0.0729539727364975,25,up,up,0.5154373999685049,1.741230989619541,,experiment,cRDM,1.0,,,,1127.6773352000164,118,22,female,True
362,0.0729539727364975,25,up,up,0.578156300005503,0.957669376653987,,experiment,cRDM,1.0,,,,1129.410586700018,118,22,female,True
363,0.0729539727364975,25,down,down,0.5041573999915272,0.5077835536337966,,experiment,cRDM,1.0,,,,1130.7605787999928,118,22,female,True
364,0.0729539727364975,25,up,up,0.4519282000255771,0.9754152068946856,,experiment,cRDM,1.0,,,,1132.493838399998,118,22,female,True
365,0.0729539727364975,25,down,up,0.4576844999683089,1.135556594289124,,experiment,cRDM,1.0,,,,1134.3270169000025,118,22,female,True
366,0.0729539727364975,25,down,down,0.4167941000196151,0.6116252954558348,,experiment,cRDM,1.0,,,,1135.660380700021,118,22,female,True
367,0.0729539727364975,25,up,up,0.5184057999867946,1.8593407301875764,,experiment,cRDM,1.0,,,,1138.210286799993,118,22,female,True
368,0.0729539727364975,25,up,up,0.5578445999999531,1.6837212723408057,,experiment,cRDM,1.0,,,,1140.6768579999916,118,22,female,True
369,0.0729539727364975,25,down,down,0.6449785000295378,1.1253477085701362,,experiment,cRDM,1.0,,,,1142.6267237000284,118,22,female,True
370,0.0729539727364975,25,up,up,0.62574659998063,1.087831391887826,,experiment,cRDM,1.0,,,,1144.6100307000452,118,22,female,True
371,0.0729539727364975,25,down,down,0.4002821000176482,0.932373471046758,,experiment,cRDM,1.0,,,,1146.4099550000392,118,22,female,True
372,0.0729539727364975,25,down,down,0.6151199000305496,0.7780906075622112,,experiment,cRDM,1.0,,,,1147.8765774000203,118,22,female,True
373,0.0729539727364975,25,down,up,0.5489761000499129,1.743885987573814,,experiment,cRDM,1.0,,,,1150.5097947000177,118,22,female,True
374,0.0729539727364975,25,up,down,0.6289888999890536,1.3822758132993676,,experiment,cRDM,1.0,,,,1152.7097328000236,118,22,female,True
375,0.0729539727364975,25,up,down,0.9173789999913424,1.27815281579151,,experiment,cRDM,1.0,,,,1154.876331700012,118,22,female,True
376,0.0729539727364975,25,up,up,0.5311670000082813,1.101240439547828,,experiment,cRDM,1.0,,,,1157.1595886000432,118,22,female,True
377,0.0729539727364975,25,down,down,0.7045724999625236,1.9203473785893683,,experiment,cRDM,1.0,,,,1159.876140600012,118,22,female,True
378,0.0729539727364975,25,down,up,0.4729546000016853,0.8505193444104666,,experiment,cRDM,1.0,,,,1161.6927574000438,118,22,female,True
379,0.0729539727364975,25,up,up,0.2838230000343174,1.765302425652229,,experiment,cRDM,1.0,,,,1164.1926398000214,118,22,female,True
380,0.0729539727364975,25,down,down,0.6257482999935746,0.5383814986401119,,experiment,cRDM,1.0,,,,1165.4090065000346,118,22,female,True
381,0.0729539727364975,25,up,up,0.3005723000387661,1.3454957072036329,,experiment,cRDM,1.0,,,,1167.6591885000234,118,22,female,True
382,0.0729539727364975,25,up,up,0.3507060999982059,1.8637226714272843,,experiment,cRDM,1.0,,,,1170.208901600039,118,22,female,True
383,0.0729539727364975,25,up,up,0.4690491000073962,1.186077522156223,,experiment,cRDM,1.0,,,,1172.075701499998,118,22,female,True
384,0.0729539727364975,25,down,down,0.589183599979151,0.3168276948686401,,experiment,cRDM,1.0,,,,1173.1255347999977,118,22,female,True
385,0.0729539727364975,25,down,up,0.3671893000137061,1.5512935887664931,,experiment,cRDM,1.0,,,,1175.5255451000412,118,22,female,True
386,0.0729539727364975,25,up,up,0.7685467000119388,1.3958986068391084,,experiment,cRDM,1.0,,,,1177.5921664999914,118,22,female,True
387,0.0729539727364975,25,down,down,0.4649432000005618,0.42218009156006,,experiment,cRDM,1.0,,,,1179.0587721000193,118,22,female,True
388,0.0729539727364975,25,down,down,0.3339253999874927,1.6288003269420823,,experiment,cRDM,1.0,,,,1181.4085857000318,118,22,female,True
389,0.0729539727364975,25,up,down,0.8297469000099227,1.2006923702913437,,experiment,cRDM,1.0,,,,1183.2919338000356,118,22,female,True
390,0.0729539727364975,25,up,up,0.5763307000161149,1.0297337447439434,,experiment,cRDM,1.0,,,,1185.4083752000006,118,22,female,True
391,0.0729539727364975,25,down,down,0.8165312000201084,0.7806961976009397,,experiment,cRDM,1.0,,,,1187.0251779000391,118,22,female,True
392,0.0729539727364975,25,up,up,0.4566931999870576,0.7250196290350089,,experiment,cRDM,1.0,,,,1188.8250965999905,118,22,female,True
393,0.0729539727364975,25,down,up,0.6086486999993213,0.6803213553557187,,experiment,cRDM,1.0,,,,1190.2250484999968,118,22,female,True
394,0.0729539727364975,25,down,up,1.1480587999685667,0.6439262156848341,,experiment,cRDM,1.0,,,,1191.741638300009,118,22,female,True
395,0.0729539727364975,25,down,down,0.4167435999843292,0.487436492396378,,experiment,cRDM,1.0,,,,1193.6249327000114,118,22,female,True
396,0.0729539727364975,25,up,up,0.4685830000089481,1.6383206893456657,,experiment,cRDM,1.0,,,,1195.9581541999942,118,22,female,True
397,0.0729539727364975,25,up,up,0.7257659999886528,1.4240634950123945,,experiment,cRDM,1.0,,,,1198.107916600013,118,22,female,True
398,0.0729539727364975,25,down,down,0.5763670000014827,0.8502709276719291,,experiment,cRDM,1.0,,,,1199.9413436000468,118,22,female,True
399,0.0729539727364975,25,down,down,0.6958785000024363,1.810797099256126,,experiment,cRDM,1.0,,,,1202.6078294999895,118,22,female,True
400,0.0729539727364975,25,up,up,0.7161955999908969,0.4143736155346883,,experiment,cRDM,1.0,,,,1203.974513299996,118,22,female,True
401,0.0729539727364975,25,up,down,0.5042904000147246,1.832408245081623,,experiment,cRDM,1.0,,,,1206.7744143000457,118,22,female,True
402,0.0729539727364975,25,up,down,0.6813594999839552,1.9448345072783888,,experiment,cRDM,1.0,,,,1209.474345399998,118,22,female,True
403,0.0729539727364975,25,up,up,0.3671977000194601,1.951030070730454,,experiment,cRDM,1.0,,,,1212.374187400041,118,22,female,True
404,0.0729539727364975,25,up,down,0.7118999999947846,1.2914586247022983,,experiment,cRDM,1.0,,,,1214.340807600005,118,22,female,True
405,0.0729539727364975,25,down,up,0.5234181999694556,1.808431299551072,,experiment,cRDM,1.0,,,,1217.1072899000137,118,22,female,True
406,0.0729539727364975,25,down,up,0.5240652999491431,1.2038881154568986,,experiment,cRDM,1.0,,,,1219.09062480001,118,22,female,True
407,0.0729539727364975,25,up,up,0.3505088000092655,1.9863998739007984,,experiment,cRDM,1.0,,,,1221.8738632000168,118,22,female,True
408,0.0729539727364975,25,down,down,0.5850316999712959,1.7632224858190786,,experiment,cRDM,1.0,,,,1224.3236830999958,118,22,female,True
409,0.0729539727364975,25,down,down,0.6890152999549173,1.403773117359414,,experiment,cRDM,1.0,,,,1226.573686100019,118,22,female,True
410,0.0729539727364975,25,down,up,0.4897825000225566,1.3782341922197,,experiment,cRDM,1.0,,,,1228.90691770002,118,22,female,True
411,0.0729539727364975,25,up,down,0.6311794000212103,1.9620493881811316,,experiment,cRDM,1.0,,,,1231.6235296000375,118,22,female,True
412,0.0729539727364975,25,down,up,0.4482840000418946,1.4582260118541286,,experiment,cRDM,1.0,,,,1233.9734077000176,118,22,female,True
413,0.0729539727364975,25,down,down,0.8416854999959469,0.8152929632434058,,experiment,cRDM,1.0,,,,1235.4900063000389,118,22,female,True
414,0.0729539727364975,25,down,up,0.4002528000273742,1.9205533885696493,,experiment,cRDM,1.0,,,,1238.523273000028,118,22,female,True
415,0.0729539727364975,25,up,down,0.5148322999593802,0.3430662439416886,,experiment,cRDM,1.0,,,,1239.5398738000076,118,22,female,True
416,0.0729539727364975,25,up,up,0.4489095999742858,0.9883440903283368,,experiment,cRDM,1.0,,,,1241.2897959999973,118,22,female,True
417,0.0729539727364975,25,down,up,0.5493997000157833,0.5039309220389309,,experiment,cRDM,1.0,,,,1242.506304300041,118,22,female,True
418,0.0729539727364975,25,up,down,0.4002477999893017,1.8664105040881944,,experiment,cRDM,1.0,,,,1245.1729968000436,118,22,female,True
419,0.0729539727364975,25,down,up,0.6758147000218742,1.5785870985936814,,experiment,cRDM,1.0,,,,1247.422913200047,118,22,female,True
420,0.0729539727364975,25,up,down,0.5741942999884486,0.4623982338459371,,experiment,cRDM,1.0,,,,1248.8395453999983,118,22,female,True
421,0.0729539727364975,25,up,down,0.4302446999936364,1.869558990514884,,experiment,cRDM,1.0,,,,1251.5394648000365,118,22,female,True
422,122.0,25,M,up,0.9897492000018246,0.7589159014028071,,experiment,emotion,1.0,,,,1291.6879521000085,118,22,female,True
423,114.0,25,M,down,0.4361835999879986,1.4993985517369746,,experiment,emotion,1.0,,,,1294.454515599995,118,22,female,True
424,119.0,25,F,up,0.6408899000380188,1.5169909245209874,,experiment,emotion,1.0,,,,1296.6877797000343,118,22,female,True
425,122.0,25,F,up,0.5694069000310265,1.8517765979636367,,experiment,emotion,1.0,,,,1299.4543300000369,118,22,female,True
426,119.0,25,M,up,0.4978889999911189,0.8382824728651401,,experiment,emotion,1.0,,,,1301.1209490000035,118,22,female,True
427,117.0,25,F,up,0.4809101999853737,1.7725369356759064,,experiment,emotion,1.0,,,,1303.6708436000044,118,22,female,True
428,114.0,25,M,down,0.6411994000081904,0.4493597662995297,,experiment,emotion,1.0,,,,1304.8874614000088,118,22,female,True
429,117.0,25,M,down,0.5751292000059038,1.4079675503060862,,experiment,emotion,1.0,,,,1307.2205831000465,118,22,female,True
430,122.0,25,F,down,0.5834585999837145,1.3619856284830731,,experiment,emotion,1.0,,,,1309.4373092000023,118,22,female,True
431,117.0,25,F,down,0.5887906000134535,0.9111373557905148,,experiment,emotion,1.0,,,,1311.2039007000276,118,22,female,True
432,119.0,25,F,up,0.5425131000229158,1.2627314814651491,,experiment,emotion,1.0,,,,1313.3371497000337,118,22,female,True
433,122.0,25,F,down,0.6066414999659173,0.64752995388267,,experiment,emotion,1.0,,,,1314.7870923000155,118,22,female,True
434,119.0,25,F,up,0.8629563000285998,1.107258702892502,,experiment,emotion,1.0,,,,1316.7536817000364,118,22,female,True
435,114.0,25,F,up,0.6454574000090361,1.970404558626392,,experiment,emotion,1.0,,,,1319.8702579000385,118,22,female,True
436,117.0,25,M,up,0.6931762999738567,0.4086161880454282,,experiment,emotion,1.0,,,,1321.2035158000072,118,22,female,True
437,114.0,25,M,down,0.5675562000251375,0.903227496323126,,experiment,emotion,1.0,,,,1323.0701336000348,118,22,female,True
438,122.0,25,M,up,0.6473605000064708,1.9518354169022096,,experiment,emotion,1.0,,,,1325.8533559000352,118,22,female,True
439,114.0,25,M,up,0.9279641000321136,1.5545344012602873,,experiment,emotion,1.0,,,,1328.319736400037,118,22,female,True
440,119.0,25,F,down,0.7395157000282779,0.8745691258586001,,experiment,emotion,1.0,,,,1330.403175500047,118,22,female,True
441,119.0,25,M,up,0.6479528999770992,1.5536043245403306,,experiment,emotion,1.0,,,,1332.969782500004,118,22,female,True
442,117.0,25,M,down,0.6410321000148542,1.619398482473098,,experiment,emotion,1.0,,,,1335.5196570000262,118,22,female,True
443,117.0,25,F,up,0.6402366000111215,1.0871726232170342,,experiment,emotion,1.0,,,,1337.5194711000076,118,22,female,True
444,114.0,25,M,down,0.8984074000036344,0.506997138635676,,experiment,emotion,1.0,,,,1338.936230399995,118,22,female,True
445,122.0,25,F,down,0.6383573999628425,0.8906621376863231,,experiment,emotion,1.0,,,,1341.0193351000198,118,22,female,True
446,119.0,25,F,up,0.5706445000250824,1.3510366002542151,,experiment,emotion,1.0,,,,1343.2860473000328,118,22,female,True
447,114.0,25,M,down,0.5837368999491446,1.815131337684404,,experiment,emotion,1.0,,,,1345.9359730000142,118,22,female,True
448,122.0,25,M,up,0.7211169999791309,0.3636363132998726,,experiment,emotion,1.0,,,,1347.15257440001,118,22,female,True
449,122.0,25,F,down,0.5535994000383653,1.619547700111061,,experiment,emotion,1.0,,,,1349.7691234000376,118,22,female,True
450,117.0,25,M,down,0.8996000000042841,1.2506176039904475,,experiment,emotion,1.0,,,,1351.8690829999978,118,22,female,True
451,114.0,25,F,up,0.383515499997884,1.2055542830565216,,experiment,emotion,1.0,,,,1354.235694300034,118,22,female,True
452,117.0,25,F,down,0.4854729000362567,1.742097864169626,,experiment,emotion,1.0,,,,1356.6522166000211,118,22,female,True
453,119.0,25,F,down,0.681008399988059,0.987395379289624,,experiment,emotion,1.0,,,,1358.4187427000145,118,22,female,True
454,114.0,25,M,down,0.7942790999659337,0.3238707958166988,,experiment,emotion,1.0,,,,1359.6854454000131,118,22,female,True
455,122.0,25,M,down,0.78159859997686,0.3760687427090374,,experiment,emotion,1.0,,,,1361.1520706000156,118,22,female,True
456,119.0,25,M,up,0.6186838000430726,0.5429470418920747,,experiment,emotion,1.0,,,,1362.7520056000212,118,22,female,True
457,122.0,25,F,up,0.961125699977856,1.932323647477766,,experiment,emotion,1.0,,,,1365.5685565000167,118,22,female,True
458,114.0,25,F,down,0.6258738999604248,1.2446618794933817,,experiment,emotion,1.0,,,,1368.0518070000107,118,22,female,True
459,119.0,25,M,up,0.7646452999906614,0.8511738649971721,,experiment,emotion,1.0,,,,1369.7850589000154,118,22,female,True
460,117.0,25,F,down,0.8387312999693677,1.2359389744278548,,experiment,emotion,1.0,,,,1372.0849683000124,118,22,female,True
461,117.0,25,M,down,0.7574368999921717,0.8193688386594775,,experiment,emotion,1.0,,,,1374.0182488000137,118,22,female,True
462,119.0,25,M,up,1.1282262000022456,0.5048467894167606,,experiment,emotion,1.0,,,,1375.5515143999946,118,22,female,True
463,122.0,25,M,down,0.8895923999953084,0.695419896230661,,experiment,emotion,1.0,,,,1377.6681217000005,118,22,female,True
464,117.0,25,F,up,0.7813461000332609,0.5790816636885332,,experiment,emotion,1.0,,,,1379.401307000022,118,22,female,True
465,114.0,25,F,down,0.9286886000190862,0.4327350548180099,,experiment,emotion,1.0,,,,1380.867989899998,118,22,female,True
466,114.0,25,M,down,0.912459199957084,1.8552752418785656,,experiment,emotion,1.0,,,,1383.9181693000137,118,22,female,True
467,117.0,25,F,down,0.7049166000215337,1.9630828415587032,,experiment,emotion,1.0,,,,1387.067764900043,118,22,female,True
468,122.0,25,F,up,0.8590290000429377,0.546219896159718,,experiment,emotion,1.0,,,,1388.6176967000356,118,22,female,True
469,119.0,25,M,down,0.6654513999819756,1.5124466659145568,,experiment,emotion,1.0,,,,1391.2842610999942,118,22,female,True
470,114.0,25,M,down,0.7036059999954887,1.6613126566366412,,experiment,emotion,1.0,,,,1393.8841645999928,118,22,female,True
471,122.0,25,F,down,1.3300090999691747,1.937801122900995,,experiment,emotion,1.0,,,,1396.8006690000184,118,22,female,True
472,119.0,25,M,down,0.8676938000135124,1.4381097948638533,,experiment,emotion,1.0,,,,1399.8339727999992,118,22,female,True
473,119.0,25,F,up,1.3951400999794714,0.4818772446156775,,experiment,emotion,1.0,,,,1401.4506030000048,118,22,female,True
474,114.0,25,F,down,1.4339114000322295,0.452409374580993,,experiment,emotion,1.0,,,,1403.5838087000302,118,22,female,True
475,117.0,25,F,up,0.8476692999829538,0.860058073628134,,experiment,emotion,1.0,,,,1406.1670585999964,118,22,female,True
476,122.0,25,M,down,0.7094357000314631,1.9972635277681308,,experiment,emotion,1.0,,,,1409.300212400034,118,22,female,True
477,117.0,25,M,down,0.6988079000147991,1.1897175942971543,,experiment,emotion,1.0,,,,1411.4668669000384,118,22,female,True
478,117.0,25,F,down,1.1055361000471748,0.6243517690452647,,experiment,emotion,1.0,,,,1413.0501426000264,118,22,female,True
479,117.0,25,F,up,0.6666451999917626,1.0198362867421895,,experiment,emotion,1.0,,,,1415.4500364999983,118,22,female,True
480,122.0,25,M,up,0.9533775000018068,1.6480869116208428,,experiment,emotion,1.0,,,,1418.0332973999905,118,22,female,True
481,119.0,25,M,up,0.8245881000184454,1.8069166045918488,,experiment,emotion,1.0,,,,1421.1001058000256,118,22,female,True
482,114.0,25,M,up,0.6712607000372373,0.904754868684096,,experiment,emotion,1.0,,,,1423.1164425000316,118,22,female,True
483,114.0,25,M,down,0.7693406000034884,1.3883443685845205,,experiment,emotion,1.0,,,,1425.4663534000283,118,22,female,True
484,119.0,25,M,down,0.9674629000364804,1.8175423937695352,,experiment,emotion,1.0,,,,1428.3162561000208,118,22,female,True
485,122.0,25,F,down,0.8736299000447616,1.2203190152524812,,experiment,emotion,1.0,,,,1430.7661478000227,118,22,female,True
486,122.0,25,F,down,0.7822844000183977,1.2430112976858014,,experiment,emotion,1.0,,,,1433.1494122000297,118,22,female,True
487,114.0,25,M,up,0.9476957999868318,1.5014539538131333,,experiment,emotion,1.0,,,,1435.715975900006,118,22,female,True
488,122.0,25,F,down,0.6911374000483193,1.6389444891982217,,experiment,emotion,1.0,,,,1438.5825241000275,118,22,female,True
489,117.0,25,F,down,0.7745960999745876,0.3781442694302264,,experiment,emotion,1.0,,,,1439.9491429000043,118,22,female,True
490,119.0,25,F,up,0.6417041000095196,0.6988340121640713,,experiment,emotion,1.0,,,,1441.6989634000347,118,22,female,True
491,117.0,25,M,up,0.5553658000426367,1.670459289788695,,experiment,emotion,1.0,,,,1444.2823092000326,118,22,female,True
492,114.0,25,F,up,0.5067736000055447,1.6361360206985112,,experiment,emotion,1.0,,,,1446.7488977000469,118,22,female,True
493,119.0,25,F,up,0.8042031999793835,1.0410114104081554,,experiment,emotion,1.0,,,,1448.5654973000055,118,22,female,True
494,117.0,25,F,down,0.8429446999798529,0.8187924454211628,,experiment,emotion,1.0,,,,1450.448776300007,118,22,female,True
495,119.0,25,M,up,0.687135300016962,1.0395651213227977,,experiment,emotion,1.0,,,,1452.598535600002,118,22,female,True
496,114.0,25,M,down,0.4910233999835327,1.2838996432228365,,experiment,emotion,1.0,,,,1454.8486050000065,118,22,female,True
497,122.0,25,F,up,1.0164518000092355,0.8417480259233345,,experiment,emotion,1.0,,,,1456.4652225000318,118,22,female,True
498,119.0,25,M,up,0.7995562000432983,0.858923696578408,,experiment,emotion,1.0,,,,1458.6151427000295,118,22,female,True
499,122.0,25,F,down,1.194641700014472,0.4234143763580971,,experiment,emotion,1.0,,,,1460.115074500034,118,22,female,True
500,114.0,25,M,down,0.6940552999731153,0.5047487710636336,,experiment,emotion,1.0,,,,1462.0816486999977,118,22,female,True
501,117.0,25,M,down,0.7271264999872074,1.9337506297789957,,experiment,emotion,1.0,,,,1464.9815455999924,118,22,female,True
502,0.0729539727364975,25,up,up,0.5976166999898851,1.2962235962901012,,experiment,cRDM,2.0,,,,1505.7800557000446,118,22,female,True
503,0.0729539727364975,25,up,up,0.6976895999978296,0.3073851802861486,,experiment,cRDM,2.0,,,,1506.9300155999954,118,22,female,True
504,0.0729539727364975,25,down,down,0.6556975000421517,0.3907383685493572,,experiment,cRDM,2.0,,,,1508.2799468000303,118,22,female,True
505,0.0729539727364975,25,down,up,0.6124340000096709,1.6638591184990177,,experiment,cRDM,2.0,,,,1510.8632254000404,118,22,female,True
506,0.0729539727364975,25,up,up,0.7485546999960206,0.9619483821156718,,experiment,cRDM,2.0,,,,1512.7131695999997,118,22,female,True
507,0.0729539727364975,25,down,down,0.4386173000093549,1.8384323046772144,,experiment,cRDM,2.0,,,,1515.5630456000215,118,22,female,True
508,0.0729539727364975,25,up,up,0.5203854000428692,1.3847207134209212,,experiment,cRDM,2.0,,,,1517.646292200021,118,22,female,True
509,0.0729539727364975,25,up,up,0.4241777999559417,1.6010053330430023,,experiment,cRDM,2.0,,,,1520.0295479000197,118,22,female,True
510,0.0729539727364975,25,down,down,0.6049054000177421,1.7504299937857786,,experiment,cRDM,2.0,,,,1522.4627781000454,118,22,female,True
511,0.0729539727364975,25,down,up,0.6620505999890156,0.4934773627524761,,experiment,cRDM,2.0,,,,1523.8126955000334,118,22,female,True
512,0.0729539727364975,25,down,down,0.5079773999750614,0.820794629877158,,experiment,cRDM,2.0,,,,1525.56268740003,118,22,female,True
513,0.0729539727364975,25,down,up,0.5567554000299424,1.964288225988095,,experiment,cRDM,2.0,,,,1528.2958922000253,118,22,female,True
514,0.0729539727364975,25,down,up,0.625533800048288,1.4554995010185074,,experiment,cRDM,2.0,,,,1530.5791365000186,118,22,female,True
515,0.0729539727364975,25,down,down,0.4176196999615058,0.5157583408018271,,experiment,cRDM,2.0,,,,1531.9790785000075,118,22,female,True
516,0.0729539727364975,25,up,up,0.4956493000499904,1.9496096799770024,,experiment,cRDM,2.0,,,,1534.6290162000223,118,22,female,True
517,0.0729539727364975,25,up,up,0.4347581000183709,1.3919882941012405,,experiment,cRDM,2.0,,,,1536.7789014000446,118,22,female,True
518,0.0729539727364975,25,up,up,0.3837975999922491,1.289141924408719,,experiment,cRDM,2.0,,,,1538.762181000027,118,22,female,True
519,0.0729539727364975,25,up,up,0.4715858999988995,1.0706087782282403,,experiment,cRDM,2.0,,,,1540.5121307999943,118,22,female,True
520,0.0729539727364975,25,down,down,0.6375993000110611,0.9802640670026476,,experiment,cRDM,2.0,,,,1542.2120607999968,118,22,female,True
521,0.0729539727364975,25,up,down,0.3671720999991521,1.1070691365952563,,experiment,cRDM,2.0,,,,1544.2120133000426,118,22,female,True
522,0.0729539727364975,25,up,up,0.5378517999779433,0.3209115367954475,,experiment,cRDM,2.0,,,,1545.211793800001,118,22,female,True
523,0.0729539727364975,25,down,up,0.562106599973049,1.5099825421702835,,experiment,cRDM,2.0,,,,1547.5285507999945,118,22,female,True
524,0.0729539727364975,25,up,up,0.6288773000123911,0.8987974316989888,,experiment,cRDM,2.0,,,,1549.2617823000182,118,22,female,True
525,0.0729539727364975,25,down,down,0.7490452000056393,0.8635438249317244,,experiment,cRDM,2.0,,,,1551.0116121000028,118,22,female,True
526,0.0729539727364975,25,down,up,0.9803191000246444,1.2116874545589529,,experiment,cRDM,2.0,,,,1553.2283323000302,118,22,female,True
527,0.0729539727364975,25,up,down,0.9041411000071092,0.9364413384202452,,experiment,cRDM,2.0,,,,1555.4114941000007,118,22,female,True
528,0.0729539727364975,25,up,up,0.5684764999896288,1.0506688602152596,,experiment,cRDM,2.0,,,,1557.6281815000111,118,22,female,True
529,0.0729539727364975,25,down,up,0.5345820999937132,1.2720351270233814,,experiment,cRDM,2.0,,,,1559.728100200009,118,22,female,True
530,0.0729539727364975,25,up,up,0.7593583999550901,0.9395597998685644,,experiment,cRDM,2.0,,,,1561.4613446000149,118,22,female,True
531,0.0729539727364975,25,down,down,0.6650379000348039,1.2607038006919482,,experiment,cRDM,2.0,,,,1563.7445829000208,118,22,female,True
532,0.0729539727364975,25,down,up,0.6048128999536857,1.0678568514487792,,experiment,cRDM,2.0,,,,1565.727832900011,118,22,female,True
533,0.0729539727364975,25,down,down,0.4945199000067077,0.8704165375343549,,experiment,cRDM,2.0,,,,1567.4611401000293,118,22,female,True
534,0.0729539727364975,25,up,up,0.5405759999994189,0.4464229000514366,,experiment,cRDM,2.0,,,,1568.6610359000042,118,22,female,True
535,0.0729539727364975,25,up,up,0.5646295999758877,0.6895909693089255,,experiment,cRDM,2.0,,,,1570.1610297000152,118,22,female,True
536,0.0729539727364975,25,up,down,0.4002423000056296,1.645241947277968,,experiment,cRDM,2.0,,,,1572.6276250000228,118,22,female,True
537,0.0729539727364975,25,down,up,0.4515413000481203,1.4340957875199147,,experiment,cRDM,2.0,,,,1574.7442008000216,118,22,female,True
538,0.0729539727364975,25,down,down,0.4168046000413596,1.6840201260803016,,experiment,cRDM,2.0,,,,1577.144106200023,118,22,female,True
539,0.0729539727364975,25,up,up,0.6899078999995254,0.4485861433833151,,experiment,cRDM,2.0,,,,1578.2607392999926,118,22,female,True
540,0.0729539727364975,25,down,up,0.4587177999783307,1.133329710928991,,experiment,cRDM,2.0,,,,1580.3439849000424,118,22,female,True
541,0.0729539727364975,25,up,down,0.5614103999687359,1.4080439155509037,,experiment,cRDM,2.0,,,,1582.4772284000064,118,22,female,True
542,0.0729539727364975,25,up,up,0.4254931000177748,1.2410157004800118,,experiment,cRDM,2.0,,,,1584.5272109000362,118,22,female,True
543,0.0729539727364975,25,up,down,0.728883899981156,0.5820291622686165,,experiment,cRDM,2.0,,,,1585.793761100038,118,22,female,True
544,0.0729539727364975,25,down,up,0.5359544000239111,1.2579114591069418,,experiment,cRDM,2.0,,,,1588.0436936999904,118,22,female,True
545,0.0729539727364975,25,down,up,0.5997294000117108,0.6358740851378931,,experiment,cRDM,2.0,,,,1589.4769788000267,118,22,female,True
546,0.0729539727364975,25,up,up,0.6432020000065677,1.363478976482885,,experiment,cRDM,2.0,,,,1591.6934477000032,118,22,female,True
547,0.0729539727364975,25,down,down,0.300488899985794,1.3391100954704125,,experiment,cRDM,2.0,,,,1593.926811500045,118,22,female,True
548,0.0729539727364975,25,down,up,0.6339247999712825,1.4209273719655262,,experiment,cRDM,2.0,,,,1596.026726800017,118,22,female,True
549,0.0729539727364975,25,up,up,0.429966100025922,1.4155741198879983,,experiment,cRDM,2.0,,,,1598.326678500045,118,22,female,True
550,0.0729539727364975,25,up,up,0.593969699984882,1.383391324405164,,experiment,cRDM,2.0,,,,1600.409733300039,118,22,female,True
551,0.0729539727364975,25,down,up,0.4964544000104069,0.5253584570080807,,experiment,cRDM,2.0,,,,1601.7931983000017,118,22,female,True
552,0.0729539727364975,25,up,up,0.5788408000371419,0.9019981369778745,,experiment,cRDM,2.0,,,,1603.4597775000148,118,22,female,True
553,0.0729539727364975,25,down,down,0.4483028000104241,1.876988697557024,,experiment,cRDM,2.0,,,,1606.1763550000032,118,22,female,True
554,0.0729539727364975,25,down,up,0.4681350999744609,1.8729920628871053,,experiment,cRDM,2.0,,,,1608.7595996000457,118,22,female,True
555,0.0729539727364975,25,down,down,0.5798184999730438,1.6955166591697135,,experiment,cRDM,2.0,,,,1611.1928199999966,118,22,female,True
556,0.0729539727364975,25,up,up,0.4002056999597698,0.5796153697814335,,experiment,cRDM,2.0,,,,1612.609360100003,118,22,female,True
557,0.0729539727364975,25,up,up,0.6683313000248745,1.62254757189629,,experiment,cRDM,2.0,,,,1614.9092986999894,118,22,female,True
558,0.0729539727364975,25,down,down,0.5857054000371136,1.0654409199589212,,experiment,cRDM,2.0,,,,1616.909211900027,118,22,female,True
559,0.0729539727364975,25,down,up,0.4607887999736704,1.3144456977998382,,experiment,cRDM,2.0,,,,1619.0758926999988,118,22,female,True
560,0.0729539727364975,25,up,down,0.7211676000151783,0.3491910265719732,,experiment,cRDM,2.0,,,,1620.1425153000164,118,22,female,True
561,0.0729539727364975,25,up,up,0.3504767999984324,1.012790717506837,,experiment,cRDM,2.0,,,,1622.1257648000028,118,22,female,True
562,0.0729539727364975,25,up,down,0.5529668999952264,1.625856671041667,,experiment,cRDM,2.0,,,,1624.425703899993,118,22,female,True
563,0.0729539727364975,25,up,down,0.4168202999862842,1.186202064775459,,experiment,cRDM,2.0,,,,1626.4256035000435,118,22,female,True
564,0.0729539727364975,25,up,up,0.432741199969314,0.8439227688389206,,experiment,cRDM,2.0,,,,1627.9588985000155,118,22,female,True
565,0.0729539727364975,25,down,down,0.6557396000134759,0.7100797972830584,,experiment,cRDM,2.0,,,,1629.3588521000347,118,22,female,True
566,0.0729539727364975,25,down,up,0.3503334000124596,1.8794432376218009,,experiment,cRDM,2.0,,,,1632.158734800003,118,22,female,True
567,0.0729539727364975,25,up,up,0.591955500014592,1.3218124779808378,,experiment,cRDM,2.0,,,,1634.1586876999936,118,22,female,True
568,0.0729539727364975,25,down,down,0.6343812000122853,0.8022867532492628,,experiment,cRDM,2.0,,,,1635.825269000023,118,22,female,True
569,0.0729539727364975,25,down,up,0.4407979000243358,0.926567396350104,,experiment,cRDM,2.0,,,,1637.6418687000405,118,22,female,True
570,0.0729539727364975,25,down,down,0.4869090999709442,1.4908266128361556,,experiment,cRDM,2.0,,,,1639.8417773999972,118,22,female,True
571,0.0729539727364975,25,up,up,0.4715493000112474,0.8793580483906553,,experiment,cRDM,2.0,,,,1641.4750973000191,118,22,female,True
572,0.0729539727364975,25,down,down,0.9666355000226758,0.5148967636577162,,experiment,cRDM,2.0,,,,1642.725028100016,118,22,female,True
573,0.0729539727364975,25,down,up,0.3838378000073135,1.5214118422952634,,experiment,cRDM,2.0,,,,1645.4582452000468,118,22,female,True
574,0.0729539727364975,25,down,down,0.648417700023856,0.728299474829331,,experiment,cRDM,2.0,,,,1646.858194200031,118,22,female,True
575,0.0729539727364975,25,up,up,0.644203900010325,1.3788039341864733,,experiment,cRDM,2.0,,,,1649.1414380000206,118,22,female,True
576,0.0729539727364975,25,up,up,0.5066146000172012,1.9065051685862968,,experiment,cRDM,2.0,,,,1651.9580073000398,118,22,female,True
577,0.0729539727364975,25,down,down,0.6027808000217192,0.9283595333400954,,experiment,cRDM,2.0,,,,1653.657943600032,118,22,female,True
578,0.0729539727364975,25,up,up,0.5274248000350781,0.996769984289478,,experiment,cRDM,2.0,,,,1655.5412235000404,118,22,female,True
579,0.0729539727364975,25,down,down,0.4715269000153057,0.5601434361147137,,experiment,cRDM,2.0,,,,1656.8911055999924,118,22,female,True
580,0.0729539727364975,25,up,up,0.5032597000245005,0.9579177827756872,,experiment,cRDM,2.0,,,,1658.5744367000298,118,22,female,True
581,0.0729539727364975,25,up,up,0.6562904000165872,1.0779991275283014,,experiment,cRDM,2.0,,,,1660.4243480000296,118,22,female,True
582,122.0,25,M,down,0.650092699972447,0.4631498051164366,,experiment,emotion,2.0,,,,1701.4895279000048,118,22,female,True
583,114.0,25,M,down,0.6318491999991238,0.303675903999674,,experiment,emotion,2.0,,,,1702.722816499998,118,22,female,True
584,119.0,25,F,up,0.716970500012394,1.9200664313961813,,experiment,emotion,2.0,,,,1705.5726770000183,118,22,female,True
585,122.0,25,F,up,1.0175227000145242,0.6368784087099346,,experiment,emotion,2.0,,,,1707.189119000046,118,22,female,True
586,119.0,25,M,up,0.8814497999846935,1.97341218274809,,experiment,emotion,2.0,,,,1710.43917279999,118,22,female,True
587,117.0,25,F,up,0.6547836999525316,1.510968891869657,,experiment,emotion,2.0,,,,1713.1058403000352,118,22,female,True
588,114.0,25,M,down,0.73010460002115,1.2766707414056948,,experiment,emotion,2.0,,,,1715.3055199999944,118,22,female,True
589,117.0,25,M,down,0.4273616999853402,1.020997977464709,,experiment,emotion,2.0,,,,1717.3222632000106,118,22,female,True
590,122.0,25,F,up,0.5489288000389934,1.4490746515696709,,experiment,emotion,2.0,,,,1719.4887367000338,118,22,female,True
591,117.0,25,F,down,0.851971100026276,1.7815753479030794,,experiment,emotion,2.0,,,,1722.088642399991,118,22,female,True
592,119.0,25,F,up,0.6697083000326529,1.281825864611242,,experiment,emotion,2.0,,,,1724.521997200034,118,22,female,True
593,122.0,25,F,up,0.5853496000054292,0.850774147350603,,experiment,emotion,2.0,,,,1726.305282300047,118,22,female,True
594,119.0,25,F,down,1.1218124000006355,0.5627402746293872,,experiment,emotion,2.0,,,,1727.7218707000138,118,22,female,True
595,114.0,25,F,down,0.5233066999935545,1.753250396536285,,experiment,emotion,2.0,,,,1730.8883397000027,118,22,female,True
596,117.0,25,M,down,0.55631249997532,1.1026910790393734,,experiment,emotion,2.0,,,,1732.7883673000033,118,22,female,True
597,114.0,25,M,down,0.7737078000209294,1.4903599926165156,,experiment,emotion,2.0,,,,1735.104952600028,118,22,female,True
598,122.0,25,M,down,0.654209100001026,1.3393937815356092,,experiment,emotion,2.0,,,,1737.4884707000456,118,22,female,True
599,114.0,25,M,down,0.5542302000103518,1.5594761945623754,,experiment,emotion,2.0,,,,1739.971402199997,118,22,female,True
600,119.0,25,F,up,0.6049246999900788,1.1438869329849684,,experiment,emotion,2.0,,,,1741.9546996999998,118,22,female,True
601,119.0,25,M,down,0.6230932000325993,1.533412778219865,,experiment,emotion,2.0,,,,1744.3545880000456,118,22,female,True
602,117.0,25,M,up,0.7344238000223413,0.8668626710119685,,experiment,emotion,2.0,,,,1746.1211958000204,118,22,female,True
603,117.0,25,F,up,1.056542799982708,0.6446001750037158,,experiment,emotion,2.0,,,,1747.7711198999896,118,22,female,True
604,114.0,25,M,down,0.5612288999836892,0.7081103793015635,,experiment,emotion,2.0,,,,1749.8043976000044,118,22,female,True
605,122.0,25,F,down,0.6110980999656022,1.8333602576120256,,experiment,emotion,2.0,,,,1752.48752710002,118,22,female,True
606,119.0,25,F,down,0.9467325000441632,1.3926105280879149,,experiment,emotion,2.0,,,,1754.770888900035,118,22,female,True
607,114.0,25,M,down,1.0718593000201508,0.6848185684608774,,experiment,emotion,2.0,,,,1756.6707880999893,118,22,female,True
608,122.0,25,M,up,0.6415684999665245,1.0297522989975934,,experiment,emotion,2.0,,,,1759.0540547000128,118,22,female,True
609,122.0,25,F,down,0.9916619000141508,1.1293192641704717,,experiment,emotion,2.0,,,,1761.1039656000212,118,22,female,True
610,117.0,25,M,up,0.6170696999761276,1.4332905536212046,,experiment,emotion,2.0,,,,1763.820572800003,118,22,female,True
611,114.0,25,F,down,0.3668592000030912,0.8764336286273653,,experiment,emotion,2.0,,,,1765.5871328000212,118,22,female,True
612,117.0,25,F,up,0.6915850000223145,1.7327254628396174,,experiment,emotion,2.0,,,,1767.9870627000346,118,22,female,True
613,119.0,25,F,down,0.7766997000435367,0.5376516538414444,,experiment,emotion,2.0,,,,1769.4869318000274,118,22,female,True
614,114.0,25,M,down,0.8400231000268832,0.782954103945118,,experiment,emotion,2.0,,,,1771.303596900019,118,22,female,True
615,122.0,25,M,up,0.6582972999894992,1.5692895248781298,,experiment,emotion,2.0,,,,1774.0033492000075,118,22,female,True
616,119.0,25,M,down,0.6311600999906659,1.7615153782044315,,experiment,emotion,2.0,,,,1776.7034385000006,118,22,female,True
617,122.0,25,F,up,0.8573111000005156,1.207912398475084,,experiment,emotion,2.0,,,,1778.8033189999987,118,22,female,True
618,114.0,25,F,down,0.7576284999959171,0.8766660753959896,,experiment,emotion,2.0,,,,1780.819920600043,118,22,female,True
619,119.0,25,M,down,1.0032191000063904,0.931689380156572,,experiment,emotion,2.0,,,,1782.7864033000078,118,22,female,True
620,117.0,25,F,down,0.912828200031072,0.3034747935706749,,experiment,emotion,2.0,,,,1784.3697912000353,118,22,female,True
621,117.0,25,M,up,0.6670375000103377,1.0252094014766926,,experiment,emotion,2.0,,,,1786.5697048000293,118,22,female,True
622,119.0,25,M,down,0.7105691999895498,1.66853740829963,,experiment,emotion,2.0,,,,1789.1860859000008,118,22,female,True
623,122.0,25,M,up,1.0551502999733202,1.7984567755079492,,experiment,emotion,2.0,,,,1791.9694851000097,118,22,female,True
624,117.0,25,F,up,1.5636785000097009,1.2819704742118927,,experiment,emotion,2.0,,,,1794.5859514999902,118,22,female,True
625,114.0,25,F,down,0.9699800999951548,0.7670135064007493,,experiment,emotion,2.0,,,,1797.2026213000065,118,22,female,True
626,114.0,25,M,up,0.8110558000043966,0.4702014076539281,,experiment,emotion,2.0,,,,1798.9025879999972,118,22,female,True
627,117.0,25,F,down,0.6014489000081085,1.0323830448962554,,experiment,emotion,2.0,,,,1801.019168800034,118,22,female,True
628,122.0,25,F,down,0.5885065000038594,0.4290981560423563,,experiment,emotion,2.0,,,,1802.3191101000407,118,22,female,True
629,119.0,25,M,up,0.8342238000477664,1.021420787813199,,experiment,emotion,2.0,,,,1804.2023950000291,118,22,female,True
630,114.0,25,M,down,0.6359486999572255,1.3910223652548634,,experiment,emotion,2.0,,,,1806.685673800006,118,22,female,True
631,122.0,25,F,up,0.8851050999946892,1.0389987318767655,,experiment,emotion,2.0,,,,1808.6355635999932,118,22,female,True
632,119.0,25,M,down,0.5144723000121303,0.3602997700742411,,experiment,emotion,2.0,,,,1810.1521860000207,118,22,female,True
633,119.0,25,F,up,0.7653952999971807,1.0418668631217831,,experiment,emotion,2.0,,,,1811.9852980000437,118,22,female,True
634,114.0,25,F,up,0.6221732000121847,0.6664344052290743,,experiment,emotion,2.0,,,,1813.685424900032,118,22,female,True
635,117.0,25,F,down,0.5953040000167675,0.8464032796231147,,experiment,emotion,2.0,,,,1815.4353102000316,118,22,female,True
636,122.0,25,M,down,0.5397706999792717,1.7434256571585518,,experiment,emotion,2.0,,,,1818.0518915000137,118,22,female,True
637,117.0,25,M,down,0.5971378000103869,1.449585418315717,,experiment,emotion,2.0,,,,1820.318477199995,118,22,female,True
638,117.0,25,F,down,0.7331539999577217,0.4872849037108767,,experiment,emotion,2.0,,,,1821.651749200013,118,22,female,True
639,117.0,25,F,down,0.7318993000080809,0.3947154336292226,,experiment,emotion,2.0,,,,1823.051724800025,118,22,female,True
640,122.0,25,M,up,0.7806807999731973,0.9335665433237148,,experiment,emotion,2.0,,,,1824.9849195000131,118,22,female,True
641,119.0,25,M,up,0.8437406999873929,1.347971867146939,,experiment,emotion,2.0,,,,1827.384859300044,118,22,female,True
642,114.0,25,M,down,0.7156889999751002,1.1559913972478346,,experiment,emotion,2.0,,,,1829.6679594000448,118,22,female,True
643,114.0,25,M,up,0.4609209999907762,1.3857066026732556,,experiment,emotion,2.0,,,,1832.0346977000008,118,22,female,True
644,119.0,25,M,down,0.3835123999742791,1.2664897840447584,,experiment,emotion,2.0,,,,1834.0346159000185,118,22,female,True
645,122.0,25,F,down,0.91637069999706,0.437032782970393,,experiment,emotion,2.0,,,,1835.1512455000195,118,22,female,True
646,122.0,25,F,up,0.5338202000129968,1.4738087483127296,,experiment,emotion,2.0,,,,1837.8178362000035,118,22,female,True
647,114.0,25,M,down,0.546496799972374,0.8825708356507382,,experiment,emotion,2.0,,,,1839.5010923999944,118,22,female,True
648,122.0,25,F,up,0.8336561999749392,1.6225303153671464,,experiment,emotion,2.0,,,,1841.9509861000115,118,22,female,True
649,117.0,25,F,up,0.6860912999836728,1.0006824489841415,,experiment,emotion,2.0,,,,1844.067547500017,118,22,female,True
650,119.0,25,F,down,0.6967093999846838,0.715530576958678,,experiment,emotion,2.0,,,,1845.7508702999912,118,22,female,True
651,117.0,25,M,down,0.5601285000448115,1.4401778017380094,,experiment,emotion,2.0,,,,1848.1674835000304,118,22,female,True
652,114.0,25,F,up,0.7937305999803357,0.5992458624660162,,experiment,emotion,2.0,,,,1849.583886700042,118,22,female,True
653,119.0,25,F,down,0.7442794000380673,0.3701798814045405,,experiment,emotion,2.0,,,,1851.01733230002,118,22,female,True
654,117.0,25,F,down,0.6040237999986857,1.0756911287221202,,experiment,emotion,2.0,,,,1853.1006135999924,118,22,female,True
655,119.0,25,M,up,0.8148913999903016,1.8185060736501828,,experiment,emotion,2.0,,,,1855.7837205000103,118,22,female,True
656,114.0,25,M,down,0.7541973000043072,0.4687547501076419,,experiment,emotion,2.0,,,,1857.350429000042,118,22,female,True
657,122.0,25,F,down,0.6719391999649815,1.7608103413085554,,experiment,emotion,2.0,,,,1860.133670100011,118,22,female,True
658,119.0,25,M,down,0.8117295000120066,1.0265182642039623,,experiment,emotion,2.0,,,,1862.116915600025,118,22,female,True
659,122.0,25,F,down,0.6741482999641448,1.9228968971260685,,experiment,emotion,2.0,,,,1865.133479000011,118,22,female,True
660,114.0,25,M,down,0.939215200021863,0.4566445061267437,,experiment,emotion,2.0,,,,1866.53341730003,118,22,female,True
661,117.0,25,M,down,0.8792899000109173,1.482447545744943,,experiment,emotion,2.0,,,,1869.2333240000296,118,22,female,True
662,0.0729539727364975,25,up,down,0.517015999997966,0.4985115572258917,,experiment,cRDM,3.0,,,,1906.8486067000197,118,22,female,True
663,0.0729539727364975,25,up,up,0.6144696000264958,1.387544572792307,,experiment,cRDM,3.0,,,,1909.0151794000408,118,22,female,True
664,0.0729539727364975,25,down,down,0.5271638000267558,1.759781968149437,,experiment,cRDM,3.0,,,,1911.6484341000323,118,22,female,True
665,0.0729539727364975,25,down,up,0.4755430999794043,0.7869133933811421,,experiment,cRDM,3.0,,,,1913.215035900008,118,22,female,True
666,0.0729539727364975,25,up,down,0.5345964999869466,0.5431471286947815,,experiment,cRDM,3.0,,,,1914.5150088000228,118,22,female,True
667,0.0729539727364975,25,down,down,0.5513418999616988,0.4436412959735299,,experiment,cRDM,3.0,,,,1915.7482796999973,118,22,female,True
668,0.0729539727364975,25,up,up,0.5913977000163868,0.496810313220987,,experiment,cRDM,3.0,,,,1917.0482255000388,118,22,female,True
669,0.0729539727364975,25,up,up,0.599425699969288,1.6985372299988597,,experiment,cRDM,3.0,,,,1919.598167499993,118,22,female,True
670,0.0729539727364975,25,down,down,0.4346382999792695,1.5362523096567744,,experiment,cRDM,3.0,,,,1921.998051200004,118,22,female,True
671,0.0729539727364975,25,down,up,0.5373098999843933,0.9230664306654036,,experiment,cRDM,3.0,,,,1923.6313187000344,118,22,female,True
672,0.0729539727364975,25,down,down,0.5550363000365905,1.8885917033906297,,experiment,cRDM,3.0,,,,1926.314558600017,118,22,female,True
673,0.0729539727364975,25,down,up,0.583575299999211,1.7396726716740898,,experiment,cRDM,3.0,,,,1928.881023199996,118,22,female,True
674,0.0729539727364975,25,down,down,0.6076159999938682,1.8935116041230784,,experiment,cRDM,3.0,,,,1931.6310247000076,118,22,female,True
675,0.0729539727364975,25,down,up,0.5590060999966227,1.6422612129874763,,experiment,cRDM,3.0,,,,1934.147592600028,118,22,female,True
676,0.0729539727364975,25,up,down,0.3838170999661088,1.589610877038488,,experiment,cRDM,3.0,,,,1936.5475085999933,118,22,female,True
677,0.0729539727364975,25,up,up,0.8075302999932319,1.6916348528864544,,experiment,cRDM,3.0,,,,1938.9140971000304,118,22,female,True
678,0.0729539727364975,25,up,up,0.824678499950096,0.98713655749426,,experiment,cRDM,3.0,,,,1940.9809293000144,118,22,female,True
679,0.0729539727364975,25,up,up,0.677104500005953,0.8090578898437162,,experiment,cRDM,3.0,,,,1942.8805226000256,118,22,female,True
680,0.0729539727364975,25,down,down,0.6072227000258863,0.8662085398948609,,experiment,cRDM,3.0,,,,1944.6804395000215,118,22,female,True
681,0.0729539727364975,25,up,up,0.565156200027559,1.5829630287702996,,experiment,cRDM,3.0,,,,1947.1304547000327,118,22,female,True
682,0.0729539727364975,25,up,up,0.673571300052572,0.885977448077478,,experiment,cRDM,3.0,,,,1948.847054200014,118,22,female,True
683,0.0729539727364975,25,down,down,0.8173669000389054,0.5079762093685076,,experiment,cRDM,3.0,,,,1950.2802294000285,118,22,female,True
684,0.0729539727364975,25,up,up,0.6110575000056997,1.7598226041532818,,experiment,cRDM,3.0,,,,1953.1135674000247,118,22,female,True
685,0.0729539727364975,25,down,down,0.5474401999963447,1.1235851413998927,,experiment,cRDM,3.0,,,,1955.1301552000225,118,22,female,True
686,0.0729539727364975,25,down,up,0.8258554000058211,0.7145038787447375,,experiment,cRDM,3.0,,,,1956.6467746000271,118,22,female,True
687,0.0729539727364975,25,up,down,0.796323399990797,1.9196766212325425,,experiment,cRDM,3.0,,,,1959.6633026000345,118,22,female,True
688,0.0729539727364975,25,up,up,0.6269864999921992,0.3761603720405232,,experiment,cRDM,3.0,,,,1961.0966359000304,118,22,female,True
689,0.0729539727364975,25,down,up,0.5347809999948367,1.734615667267234,,experiment,cRDM,3.0,,,,1963.729837300023,118,22,female,True
690,0.0729539727364975,25,up,up,0.6994687999831513,0.4204831718415264,,experiment,cRDM,3.0,,,,1964.9631305999935,118,22,female,True
691,0.0729539727364975,25,down,down,0.4969062999589368,0.9029830141091482,,experiment,cRDM,3.0,,,,1966.829709200014,118,22,female,True
692,0.0729539727364975,25,down,up,0.4796627000323497,1.024875263539891,,experiment,cRDM,3.0,,,,1968.6129946000287,118,22,female,True
693,0.0729539727364975,25,down,down,0.6440013999817893,1.3680330893042918,,experiment,cRDM,3.0,,,,1970.7295798000412,118,22,female,True
694,0.0729539727364975,25,up,down,0.4877506999764591,0.4673092585270706,,experiment,cRDM,3.0,,,,1972.1128976999896,118,22,female,True
695,0.0729539727364975,25,up,up,0.4955255999811925,1.5759780638528056,,experiment,cRDM,3.0,,,,1974.446093800012,118,22,female,True
696,0.0729539727364975,25,up,up,0.5290521999704652,1.8643141258428848,,experiment,cRDM,3.0,,,,1977.0625379999983,118,22,female,True
697,0.0729539727364975,25,down,up,0.6573302000178955,0.3709589695312641,,experiment,cRDM,3.0,,,,1978.2293127000448,118,22,female,True
698,0.0729539727364975,25,down,down,0.4972344000125304,0.8140085909279589,,experiment,cRDM,3.0,,,,1979.962424700032,118,22,female,True
699,0.0729539727364975,25,up,up,0.5960488999844529,0.7982421049770575,,experiment,cRDM,3.0,,,,1981.5125255000312,118,22,female,True
700,0.0729539727364975,25,down,down,1.032836899976246,1.8199892946843796,,experiment,cRDM,3.0,,,,1984.1957721000072,118,22,female,True
701,0.0729539727364975,25,up,up,0.4539506000000983,0.5476125070422955,,experiment,cRDM,3.0,,,,1986.045669700019,118,22,female,True
702,0.0729539727364975,25,up,up,0.3838013000204228,1.2705062908914666,,experiment,cRDM,3.0,,,,1988.0289747000209,118,22,female,True
703,0.0729539727364975,25,up,up,0.4880758000072092,1.8975049805134327,,experiment,cRDM,3.0,,,,1990.5955150999944,118,22,female,True
704,0.0729539727364975,25,down,down,0.4761425000033341,1.459279334567816,,experiment,cRDM,3.0,,,,1992.7954523999945,118,22,female,True
705,0.0729539727364975,25,down,up,0.455229299957864,1.862793870357204,,experiment,cRDM,3.0,,,,1995.395349600003,118,22,female,True
706,0.0729539727364975,25,up,up,0.5019418000010774,0.6605881312804316,,experiment,cRDM,3.0,,,,1996.7786506999985,118,22,female,True
707,0.0729539727364975,25,down,down,0.6001737999613397,1.317081370557086,,experiment,cRDM,3.0,,,,1998.8618740999957,118,22,female,True
708,0.0729539727364975,25,down,up,0.2671732999733649,1.2255332850223273,,experiment,cRDM,3.0,,,,2000.9451309000144,118,22,female,True
709,0.0729539727364975,25,up,up,0.7024742999929003,1.8837983279358992,,experiment,cRDM,3.0,,,,2003.4950780000072,118,22,female,True
710,0.0729539727364975,25,up,up,0.7419205000041984,0.4576346665699602,,experiment,cRDM,3.0,,,,2004.9116531999896,118,22,female,True
711,0.0729539727364975,25,down,down,0.4503853000351228,1.3450737053170274,,experiment,cRDM,3.0,,,,2007.2782017000136,118,22,female,True
712,0.0729539727364975,25,up,down,0.5486635000561364,1.7893848437620103,,experiment,cRDM,3.0,,,,2009.7779572000145,118,22,female,True
713,0.0729539727364975,25,down,up,0.4003823000239208,1.9891530566529123,,experiment,cRDM,3.0,,,,2012.5779516000184,118,22,female,True
714,0.0729539727364975,25,down,down,0.6859314999892376,0.979246523643126,,experiment,cRDM,3.0,,,,2014.244653000031,118,22,female,True
715,0.0729539727364975,25,down,up,0.526767099974677,0.6839325304385713,,experiment,cRDM,3.0,,,,2015.8778203999973,118,22,female,True
716,0.0729539727364975,25,up,up,0.6910386999952607,0.3795642352532104,,experiment,cRDM,3.0,,,,2017.044547100028,118,22,female,True
717,0.0729539727364975,25,up,down,0.4165926999994553,1.1656131406860424,,experiment,cRDM,3.0,,,,2019.161139700038,118,22,female,True
718,0.0729539727364975,25,down,up,0.4531601999769918,1.0558222294635091,,experiment,cRDM,3.0,,,,2020.894430799992,118,22,female,True
719,0.0729539727364975,25,down,up,0.5057014999911189,1.7417447771779893,,experiment,cRDM,3.0,,,,2023.3609761000264,118,22,female,True
720,0.0729539727364975,25,up,up,0.613206000009086,1.146737196915831,,experiment,cRDM,3.0,,,,2025.2774036999908,118,22,female,True
721,0.0729539727364975,25,up,down,0.5273875999846496,0.5026177504333897,,experiment,cRDM,3.0,,,,2026.6442011999895,118,22,female,True
722,0.0729539727364975,25,up,up,0.4004789000027813,1.8280010445357573,,experiment,cRDM,3.0,,,,2029.2771359000471,118,22,female,True
723,0.0729539727364975,25,up,up,0.3505263999686576,1.097214257288327,,experiment,cRDM,3.0,,,,2031.0440102000136,118,22,female,True
724,0.0729539727364975,25,up,up,0.6026161000481807,1.5283868174461128,,experiment,cRDM,3.0,,,,2033.2439720000257,118,22,female,True
