,stimLvl,stimTime,rand,response,rt,precedingITI,trialNumber,trialType,stimuli,block,estIntens,estThres,estSlope,trialStart,subject,age,gender,headRest
0,0.9,100,down,,,0.3913606606076518,,introTrial,cRDM,,,,,283.47551929999827,1006,22,female,True
1,150.0,100,F,,,1.1313706100532142,,introTrial,emotion,,,,,288.558686999997,1006,22,female,True
2,0.9,25,up,up,1.2570012000032875,0.7665889534218735,,tutorial,cRDM,,,,,344.88989539999966,1006,22,female,True
3,0.9,25,up,up,0.7298263999982737,1.856972164923792,,tutorial,cRDM,,,,,348.2731145999969,1006,22,female,True
4,0.9,25,down,down,0.6141275000009045,0.5165958299965592,,tutorial,cRDM,,,,,349.78976299999704,1006,22,female,True
5,0.9,25,down,down,0.7529074999984005,1.64404881079148,,tutorial,cRDM,,,,,352.3229810999983,1006,22,female,True
6,0.9,25,up,up,0.416804399999819,1.1236644458082916,,tutorial,cRDM,,,,,354.4728842999976,1006,22,female,True
7,0.9,25,down,down,0.8160581000011007,0.8990843327011531,,tutorial,cRDM,,,,,356.0728433999975,1006,22,female,True
8,0.9,25,up,up,0.4002503999981854,1.1572539430831057,,tutorial,cRDM,,,,,358.3227491999969,1006,22,female,True
9,0.9,25,down,down,0.3171149000008881,1.6928831482963425,,tutorial,cRDM,,,,,360.7060212999968,1006,22,female,True
10,0.9,25,up,up,0.3671427999979642,0.6473014526701701,,tutorial,cRDM,,,,,362.0392947999972,1006,22,female,True
11,0.9,25,down,down,0.3671534999994037,0.4367882362327937,,tutorial,cRDM,,,,,363.1725603999985,1006,22,female,True
12,200.0,25,M,up,1.128580200002034,0.5137032419188309,,tutorial,emotion,,,,,370.3722996999968,1006,22,female,True
13,200.0,25,M,up,0.7887075999969966,0.7486947044888047,,tutorial,emotion,,,,,372.52222739999706,1006,22,female,True
14,200.0,25,F,up,0.5187764000002062,1.82399825796504,,tutorial,emotion,,,,,375.4221212999983,1006,22,female,True
15,0.0,25,F,down,0.4498835000013059,1.8389250233113763,,tutorial,emotion,,,,,378.0720333999998,1006,22,female,True
16,0.0,25,M,down,0.4001792000017303,1.8079652506003117,,tutorial,emotion,,,,,380.6219196999991,1006,22,female,True
17,200.0,25,F,down,0.2835153999985778,1.306579360060229,,tutorial,emotion,,,,,382.6218644000001,1006,22,female,True
18,0.0,25,M,down,0.8124375000006694,0.902322500328368,,tutorial,emotion,,,,,384.2384585999971,1006,22,female,True
19,200.0,25,M,up,0.3335885999986203,1.6570093699157806,,tutorial,emotion,,,,,386.9882737999978,1006,22,female,True
20,0.0,25,F,down,0.3835588000001735,0.911278229902278,,tutorial,emotion,,,,,388.6049688999992,1006,22,female,True
21,0.0,25,F,down,0.4490173999984108,1.136885181237228,,tutorial,emotion,,,,,390.4549004,1006,22,female,True
22,0.29,25,up,up,0.3505294999995385,1.7708873822476938,,psi_staircase_training,cRDM,,0.25,0.2569312402994632,0.105,409.9208384999984,1006,22,female,True
23,0.25,25,up,up,0.2838330000013229,1.951073619867485,,psi_staircase_training,cRDM,,0.2191026665318312,0.2260132002683492,0.1046863203387393,412.5707218999996,1006,22,female,True
24,0.21,25,down,up,0.3671782999990682,0.3294011500885012,,psi_staircase_training,cRDM,,0.1900540959403307,0.1968497961554001,0.1029467298424999,413.6040624999987,1006,22,female,True
25,0.32,25,down,down,0.4239407999994,1.0069575053611166,,psi_staircase_training,cRDM,,0.2819387795981387,0.2893209636160949,0.1118312579561586,415.30397679999805,1006,22,female,True
26,0.29,25,up,up,0.350661399999808,0.720406719080829,,psi_staircase_training,cRDM,,0.259426876942127,0.2667634756990502,0.1111406957765679,416.72057909999785,1006,22,female,True
27,0.27,25,down,up,0.4168074000008346,1.0834068410136208,,psi_staircase_training,cRDM,,0.238671950950526,0.2458822432686334,0.109227304305105,418.5038567999982,1006,22,female,True
28,0.34,25,up,up,0.4400395000011485,0.7535620193155613,,psi_staircase_training,cRDM,,0.3095700646318685,0.3173617612486154,0.1180348840050718,419.9538193999979,1006,22,female,True
29,0.33,25,down,down,0.2839298999970197,0.9328064419253485,,psi_staircase_training,cRDM,,0.2918098075291885,0.2995539490843272,0.1173144817028677,421.58698709999953,1006,22,female,True
30,0.32,25,down,down,0.4202050999992934,0.3738926165839099,,psi_staircase_training,cRDM,,0.2760740137711686,0.2836649683739273,0.1149938826030014,422.6536899999992,1006,22,female,True
31,0.31,25,up,up,0.4229111000022385,1.1281962120204838,,psi_staircase_training,cRDM,,0.2624584113970729,0.2698322462424223,0.1117047779777088,424.48701599999913,1006,22,female,True
32,0.26,25,down,down,0.4273332000011578,1.667370471397465,,psi_staircase_training,cRDM,,0.2507345041127192,0.2578711164378538,0.1081111405410598,426.8535518999997,1006,22,female,True
33,0.26,25,down,up,0.2672342000005301,1.58856074383067,,psi_staircase_training,cRDM,,0.2349871353816606,0.2425891906891059,0.1151620450013208,429.13679989999946,1006,22,female,True
34,0.32,25,down,down,0.3838410999996995,0.7832233677128084,,psi_staircase_training,cRDM,,0.2787649633174042,0.2854390348502935,0.1011042007889481,430.6200788999995,1006,22,female,True
35,0.31,25,up,up,0.3837951999994402,0.4699241848869591,,psi_staircase_training,cRDM,,0.2702390911418558,0.2765242444659059,0.0952125551146111,431.7867210999975,1006,22,female,True
36,0.3,25,up,up,0.610937900000863,0.9862319998490072,,psi_staircase_training,cRDM,,0.2632117300449702,0.2691289466605627,0.0896387540748405,433.4699503999982,1006,22,female,True
37,0.3,25,down,down,0.5526773000019602,1.6443296095628053,,psi_staircase_training,cRDM,,0.256994057255387,0.2626248193936111,0.08529931137423,436.0031982,1006,22,female,True
38,0.26,25,down,down,0.3171683000000485,0.7850507297970954,,psi_staircase_training,cRDM,,0.2522578269768805,0.2575875917398091,0.0807395611649547,437.6198103999996,1006,22,female,True
39,0.25,25,up,up,0.5417665999993915,1.529401364099872,,psi_staircase_training,cRDM,,0.2404473098587549,0.2465551977265166,0.0925271954811087,439.85309979999874,1006,22,female,True
40,0.25,25,up,up,0.4836056999993161,1.874192245615384,,psi_staircase_training,cRDM,,0.2270869799600492,0.2340361745767587,0.1052719864309126,442.5362991999973,1006,22,female,True
41,0.25,25,up,up,0.4168210999996518,1.452139865472842,,psi_staircase_training,cRDM,,0.2135232722973858,0.2211911801265249,0.1161596319380171,444.7528790999968,1006,22,female,True
42,0.25,25,up,up,0.4961280999996234,1.9039743978164267,,psi_staircase_training,cRDM,,0.2006465373057014,0.2088726768308765,0.1246161744255598,447.3527889999969,1006,22,female,True
43,0.24,25,down,up,0.3004349000002548,0.715691762211933,,psi_staircase_training,cRDM,,0.1890298024987273,0.1976498302188351,0.1305831094445547,448.85276729999896,1006,22,female,True
44,0.25,25,down,down,0.3838240000004589,0.6064216334111352,,psi_staircase_training,cRDM,,0.2266353187403672,0.2341858075292773,0.1143808739248228,450.1526750999983,1006,22,female,True
45,0.25,25,down,up,0.4769395000002987,1.6912004345596106,,psi_staircase_training,cRDM,,0.2156175353725855,0.2237370709527691,0.1230012521691533,452.5359312000001,1006,22,female,True
46,0.27,25,up,up,0.5431626999998116,1.7946727818951516,,psi_staircase_training,cRDM,,0.2461711709417303,0.2530113878474895,0.1036211044595203,455.0858154999987,1006,22,female,True
47,0.25,25,up,down,0.4167955999982951,0.8371770813770516,,psi_staircase_training,cRDM,,0.2384146382737802,0.2455251314561747,0.1077154667699579,456.7357979999979,1006,22,female,True
48,0.3,25,down,down,0.7495259000024816,0.3749002491129608,,psi_staircase_training,cRDM,,0.2606877622220276,0.2663333673129075,0.0855241643531374,457.80239529999744,1006,22,female,True
49,0.28,25,down,down,0.8352874999982305,1.2560791602873451,,psi_staircase_training,cRDM,,0.2577941881677072,0.263034642756109,0.079386618845806,460.0856497999994,1006,22,female,True
50,0.28,25,up,up,0.3671353999998246,0.8375035976562502,,psi_staircase_training,cRDM,,0.253531132004811,0.2586714971504895,0.0778703835066913,462.0522469999996,1006,22,female,True
51,0.28,25,up,up,0.4167899999993096,0.868076252859854,,psi_staircase_training,cRDM,,0.250020447982497,0.2550074818101858,0.075547597440515,463.618849399998,1006,22,female,True
52,100.0,25,M,up,0.7448007999992114,1.0383630143181817,,psi_staircase_training,emotion,,100.0,100.0,25.00050000000001,469.9851119999985,1006,22,female,True
53,55.0,25,M,up,0.3834896000007575,1.3948365940874203,,psi_staircase_training,emotion,,54.7428094675419,54.7428094675419,25.00050000000011,472.48515309999857,1006,22,female,True
54,32.0,25,F,down,0.536443799999688,1.450300180746355,,psi_staircase_training,emotion,,31.96124636773396,31.96124636773396,24.34819504815393,474.718438099997,1006,22,female,True
55,45.0,25,F,up,0.5841771999985212,0.3491218129661458,,psi_staircase_training,emotion,,44.995563347624845,44.995563347624845,25.558429500417464,476.0017282999979,1006,22,female,True
56,30.0,25,M,down,0.6159411999979056,0.5554339926663177,,psi_staircase_training,emotion,,34.554257039774626,34.554257039774626,24.96788539775001,477.5350007999986,1006,22,female,True
57,40.0,25,F,down,0.3168292999980622,0.5689017099009483,,psi_staircase_training,emotion,,40.47330514418536,40.47330514418536,22.495191219701898,479.08493739999903,1006,22,female,True
58,53.0,25,M,down,0.5513630000023113,1.7743699963666104,,psi_staircase_training,emotion,,46.87919291965133,46.87919291965133,23.19092239554899,481.6515026999987,1006,22,female,True
59,69.0,25,F,down,0.2668264999992971,1.281208622335463,,psi_staircase_training,emotion,,55.88827411409554,55.88827411409554,29.605855662144567,483.8347667999988,1006,22,female,True
60,82.0,25,F,down,0.5245888999997987,1.8840123414809635,,psi_staircase_training,emotion,,66.14791386857182,66.14791386857182,34.35131506104303,486.5013072999973,1006,22,female,True
61,92.0,25,M,down,0.2669050000004063,1.9891858926602328,,psi_staircase_training,emotion,,76.31062455060054,76.31062455060054,37.32430622361098,489.3678464999976,1006,22,female,True
62,102.0,25,F,down,0.3168636000009428,1.287567036942613,,psi_staircase_training,emotion,,86.01558517162616,86.01558517162616,39.26105521671029,491.40114790000007,1006,22,female,True
63,111.0,25,F,down,0.3668580999983533,1.808054922074482,,psi_staircase_training,emotion,,95.62147911539287,95.62147911539287,40.72292512203708,493.9843571999991,1006,22,female,True
64,121.0,25,F,down,0.3670167999989644,0.9313263312262317,,psi_staircase_training,emotion,,105.33381095280996,105.33381095280996,41.67858342390238,495.6841339999992,1006,22,female,True
65,132.0,25,M,down,0.2502640999991854,0.5182163155387141,,psi_staircase_training,emotion,,115.71987581880036,115.71987581880036,42.160838069291536,496.9841809999998,1006,22,female,True
66,142.0,25,M,down,0.3668524000022444,1.8957862942497845,,psi_staircase_training,emotion,,127.39945281646872,127.39945281646872,41.97342079809293,499.6508624999988,1006,22,female,True
67,151.0,25,F,up,0.4654229000007035,0.8108586567774911,,psi_staircase_training,emotion,,140.38173621652578,140.38173621652578,40.711352847927,501.2674364999984,1006,22,female,True
68,133.0,25,F,up,0.2338324000011198,1.3758886264797952,,psi_staircase_training,emotion,,130.30495813547893,130.30495813547893,42.661776704579246,503.4671713999997,1006,22,female,True
69,123.0,25,M,up,0.3168473000005178,0.4956553715860523,,psi_staircase_training,emotion,,123.002323207337,123.002323207337,43.43265087622453,504.7339952999973,1006,22,female,True
70,117.0,25,M,up,0.2337211000012757,0.4254284827101384,,psi_staircase_training,emotion,,117.35791707002237,117.35791707002237,43.640836960647725,505.9339848999989,1006,22,female,True
71,113.0,25,M,up,0.2503150000011374,0.5708100209745759,,psi_staircase_training,emotion,,112.6926416897789,112.6926416897789,43.717064524307865,507.2670842999978,1006,22,female,True
72,109.0,25,M,up,0.3002048000016657,1.3307914002836554,,psi_staircase_training,emotion,,108.680148644963,108.680148644963,43.73886888280546,509.3674174999978,1006,22,female,True
73,104.0,25,F,up,0.3168549000001803,1.1475170317462362,,psi_staircase_training,emotion,,105.07330177204484,105.07330177204484,43.74803954272392,511.2837408999985,1006,22,female,True
74,100.0,25,F,up,0.3168121000016981,1.4924776507457878,,psi_staircase_training,emotion,,101.68265959551223,101.68265959551223,43.77659385104327,513.5336614999978,1006,22,female,True
75,96.0,25,F,up,0.3001691999998002,1.2723253630615272,,psi_staircase_training,emotion,,98.49253969387632,98.49253969387632,43.81958390724251,515.5671889999976,1006,22,female,True
76,91.0,25,M,up,0.3501556999981403,0.3440699170065878,,psi_staircase_training,emotion,,95.44654773128408,95.44654773128408,43.88384383555574,516.6835601999992,1006,22,female,True
77,87.0,25,M,up,0.3001997000028495,0.3411029362686426,,psi_staircase_training,emotion,,92.45469618359728,92.45469618359728,43.9873008324292,517.8168089999999,1006,22,female,True
78,82.0,25,F,up,0.4712340000005497,1.88725228227834,,psi_staircase_training,emotion,,89.54248774975542,89.54248774975542,44.1153223404668,520.466681599999,1006,22,female,True
79,78.0,25,F,up,0.2668116999993799,0.7241150569664325,,psi_staircase_training,emotion,,86.6392646444175,86.6392646444175,44.282349620971445,522.0167065999995,1006,22,female,True
80,75.0,25,M,up,0.2668470999997225,0.6418448195901938,,psi_staircase_training,emotion,,83.77885540860137,83.77885540860137,44.469584716106766,523.4333063999984,1006,22,female,True
81,72.0,25,M,up,0.3668407000004663,1.694718264820166,,psi_staircase_training,emotion,,80.99319006323715,80.99319006323715,44.65966001655868,525.8832163999978,1006,22,female,True
82,0.29,25,up,up,0.3005389000027207,0.683374321442896,,psi_staircase,cRDM,,0.25,0.2569312402994632,0.105,552.3822503999982,1006,22,female,True
83,0.25,25,up,up,0.3168766000017058,0.4175542577381488,,psi_staircase,cRDM,,0.2191026665318312,0.2260132002683492,0.1046863203387393,553.4658038999987,1006,22,female,True
84,0.21,25,down,down,0.5001187000016216,1.6418972966850656,,psi_staircase,cRDM,,0.1900540959403307,0.1968497961554001,0.1029467298424999,555.7987694999974,1006,22,female,True
85,0.18,25,down,down,0.5121393000008538,0.5561487628288182,,psi_staircase,cRDM,,0.1635257589279754,0.1701521334256793,0.1003816477568649,557.0987432000002,1006,22,female,True
86,0.15,25,up,up,0.3004826000033063,0.6423754062696536,,psi_staircase,cRDM,,0.1401895574244936,0.1466013351187503,0.0971307628663642,558.5153245999973,1006,22,female,True
87,0.13,25,down,down,0.3337967999977991,0.9102909381976216,,psi_staircase,cRDM,,0.1198760602145479,0.1260554767618333,0.0936107694196103,560.0986349999985,1006,22,female,True
88,0.11,25,up,up,0.2671381999971345,1.1367098719093105,,psi_staircase,cRDM,,0.1025773523696548,0.1084910344569865,0.0895852101993795,561.898551899998,1006,22,female,True
89,0.09,25,down,down,0.300541599997814,1.2896032051129689,,psi_staircase,cRDM,,0.087844325958594,0.0934818215320969,0.0854013148647635,563.8653857999998,1006,22,female,True
90,0.08,25,down,up,0.4296439999998256,1.921447367501376,,psi_staircase,cRDM,,0.0751852092118086,0.0805556301471181,0.0813554535472043,566.4652929999975,1006,22,female,True
91,0.13,25,up,down,0.3171255999986897,1.0892148873164846,,psi_staircase,cRDM,,0.1145374077699418,0.1210371210567565,0.0984628819128368,568.2482977,1006,22,female,True
92,0.2,25,down,up,0.400234000000637,1.550395275555424,,psi_staircase,cRDM,,0.163694178028886,0.1714746156794365,0.1178643241341766,570.4815824999969,1006,22,female,True
93,0.3,25,down,down,0.3333081999990099,1.8890499244537071,,psi_staircase,cRDM,,0.2302025415992222,0.2388716034121065,0.1313259172998717,573.0653053999995,1006,22,female,True
94,0.27,25,down,down,0.5974876000000222,1.1286855477254,,psi_staircase,cRDM,,0.2117353704735519,0.2203530879314025,0.1305481117346899,574.8813910999997,1006,22,female,True
95,0.25,25,up,up,0.5638816999999108,1.161737098328515,,psi_staircase,cRDM,,0.1954177112049015,0.2039379826194373,0.129071920734813,576.8980147000002,1006,22,female,True
96,0.23,25,up,down,0.2505493000026035,1.5838515379875984,,psi_staircase,cRDM,,0.1812102096733406,0.1896212605192331,0.1274173597598553,579.3145345999983,1006,22,female,True
97,0.29,25,down,down,0.6174635000024864,1.9671808359355183,,psi_staircase,cRDM,,0.234045698685632,0.2426999154706412,0.1311010328838744,581.9644455999987,1006,22,female,True
98,0.28,25,down,down,0.6288592999990215,1.7926815167623225,,psi_staircase,cRDM,,0.2203689624544771,0.228856808932991,0.1285807217379224,584.6310273999989,1006,22,female,True
99,0.27,25,up,down,0.2838626999982807,1.8558112895195056,,psi_staircase,cRDM,,0.2090512466329695,0.2173298471194142,0.125410895239631,587.3809698999976,1006,22,female,True
100,0.32,25,up,up,0.4719669000005524,1.0662646403555485,,psi_staircase,cRDM,,0.2565668348005648,0.2659409325009215,0.1420063676934819,589.130877399999,1006,22,female,True
101,0.31,25,up,down,0.4002413000016531,0.4452007645977253,,psi_staircase,cRDM,,0.243595709439609,0.2528758715737052,0.1405833562220543,590.3141529999994,1006,22,female,True
102,0.37,25,up,up,0.4406425999986822,1.6672573247428275,,psi_staircase,cRDM,,0.2953581586306896,0.305338327518275,0.1511876212512224,592.6642415999995,1006,22,female,True
103,0.35,25,down,down,0.350565100001404,1.0454730344765275,,psi_staircase,cRDM,,0.2823794996162836,0.2924027665838308,0.151840505612531,594.430658199999,1006,22,female,True
104,0.34,25,down,down,0.5112358999977005,0.6697291297806587,,psi_staircase,cRDM,,0.2702001398045759,0.2802286507707937,0.1519199459199839,595.7806434999984,1006,22,female,True
105,0.3,25,down,down,0.631606399998418,1.5903505651885474,,psi_staircase,cRDM,,0.2591591241704576,0.269155852432166,0.1514384759623272,598.1471970999992,1006,22,female,True
106,0.3,25,up,down,0.3004049999981362,1.2325457154798016,,psi_staircase,cRDM,,0.247626486266519,0.2576764017691115,0.1522441990438466,600.280415199999,1006,22,female,True
107,0.36,25,up,up,0.4174812999990536,1.2244495412883027,,psi_staircase,cRDM,,0.2874959476353851,0.2975634031778471,0.1525099096680228,602.1803761999981,1006,22,female,True
108,0.36,25,down,down,0.4635907000010775,1.1766493058511451,,psi_staircase,cRDM,,0.2782014457382527,0.288190334432697,0.1513197158952731,604.0303234999992,1006,22,female,True
109,0.3,25,down,down,0.6398924999994051,0.3483924504717134,,psi_staircase,cRDM,,0.2701445810816976,0.2800179483508175,0.1495697044781249,605.0969619999996,1006,22,female,True
110,0.29,25,up,up,0.4307270000026619,0.3759334912437206,,psi_staircase,cRDM,,0.2597561460313963,0.2698102040497594,0.1523069532028589,606.3801524999981,1006,22,female,True
111,0.29,25,up,up,0.4894458999988273,1.8862048787487813,,psi_staircase,cRDM,,0.2498465974158539,0.2600513236129907,0.1545893958953257,608.9634418999995,1006,22,female,True
112,0.29,25,down,up,0.4467939999994996,0.6931700739690337,,psi_staircase,cRDM,,0.2407515399272006,0.2510470354992517,0.155964443354976,610.4301008000002,1006,22,female,True
113,0.35,25,up,up,0.5608204999989539,1.7936516120136352,,psi_staircase,cRDM,,0.27162871667984,0.2817542162996293,0.1533892080123384,612.9299522999972,1006,22,female,True
114,0.29,25,down,down,0.3504896000013104,1.5459036458900648,,psi_staircase,cRDM,,0.2650573710896108,0.275066278055989,0.1516229687709846,615.2965778999969,1006,22,female,True
115,0.29,25,up,up,0.4002274999984365,1.431374489855582,,psi_staircase,cRDM,,0.2563025301667019,0.2664898376663704,0.1543255234633879,617.4131498999996,1006,22,female,True
116,0.29,25,down,down,0.3838485000014771,1.5062208412963278,,psi_staircase,cRDM,,0.2481706626144698,0.2584774407535284,0.1561353607499304,619.5964010999996,1006,22,female,True
117,0.28,25,up,up,0.4342677999993611,0.5090362756506741,,psi_staircase,cRDM,,0.2406562945395405,0.2510381966005641,0.1572733983111049,620.7795452999999,1006,22,female,True
118,0.28,25,down,down,0.2671927000010328,0.7267151315457894,,psi_staircase,cRDM,,0.2334132267411801,0.2438662396050551,0.1583506419178502,622.1963126999981,1006,22,female,True
119,0.27,25,up,up,0.4002779000002192,0.4702997112735817,,psi_staircase,cRDM,,0.2266835644943764,0.2371803984096745,0.159014478432041,623.3629212999986,1006,22,female,True
120,0.27,25,up,down,0.5759295999996539,1.08671731828449,,psi_staircase,cRDM,,0.2201393107179023,0.2306822523451399,0.1597129551179561,625.1128727999967,1006,22,female,True
121,0.31,25,down,down,0.5377478000009432,0.9914813897118722,,psi_staircase,cRDM,,0.2431761033300483,0.253609101266845,0.1580474397126997,626.9461427999995,1006,22,female,True
122,0.31,25,down,down,0.4340830000001006,0.3124786409484462,,psi_staircase,cRDM,,0.2377295968205362,0.2481293675828168,0.1575440877621898,628.0627368999994,1006,22,female,True
123,0.26,25,down,down,0.4202122000024246,0.4185917451684084,,psi_staircase,cRDM,,0.2327199770682422,0.243076006922563,0.1568814653256049,629.1796843999982,1006,22,female,True
124,0.26,25,up,down,0.5388238999985333,0.5657411034758113,,psi_staircase,cRDM,,0.226536583331885,0.2369847354699881,0.1582770077363757,630.446003099998,1006,22,female,True
125,0.33,25,up,up,0.5316467999982706,0.732058428052496,,psi_staircase,cRDM,,0.2461900867926804,0.2564060377639355,0.1547594377971362,631.9791812999974,1006,22,female,True
126,0.26,25,down,down,0.2505076999987068,1.730105683798922,,psi_staircase,cRDM,,0.2421036745924238,0.2522252648992907,0.1533299865975393,634.5125153999979,1006,22,female,True
127,0.26,25,down,down,0.6626362999995763,1.0436066654350555,,psi_staircase,cRDM,,0.2362182663271785,0.246468976476267,0.1552859977654574,636.2291587,1006,22,female,True
128,0.26,25,down,down,0.4954671000014059,1.1582095025948815,,psi_staircase,cRDM,,0.2306147613855987,0.2409632567279434,0.1567673264812844,638.3123783999981,1006,22,female,True
129,0.26,25,up,up,0.3671480999983032,1.17900842754158,,psi_staircase,cRDM,,0.2252778294180599,0.2357009198838657,0.1578973533776289,640.2456343999984,1006,22,female,True
130,0.25,25,up,down,0.2671184999999241,1.267267305355566,,psi_staircase,cRDM,,0.220187699874389,0.2306683706930213,0.1587696268504227,642.1955854999978,1006,22,female,True
131,0.34,25,up,up,0.3505417000014859,1.1140953666469249,,psi_staircase,cRDM,,0.2368592511595018,0.247131367524523,0.1556102763326135,643.9787944999989,1006,22,female,True
132,100.0,25,M,down,0.6146188999991864,1.5372584218951666,,psi_staircase,emotion,,100.0,100.0,25.00050000000001,650.5452482999972,1006,22,female,True
133,145.0,25,M,up,0.8950311999979021,1.992769085696872,,psi_staircase,emotion,,145.25719053245996,145.25719053245996,25.00050000000028,653.5118133999968,1006,22,female,True
134,121.0,25,F,up,0.383495000001858,0.6569545053279755,,psi_staircase,emotion,,120.36392901436103,120.36392901436103,25.71326925488699,655.4284012999997,1006,22,female,True
135,97.0,25,F,up,0.2835018999976455,0.3440862640261148,,psi_staircase,emotion,,102.3887610608496,102.3887610608496,26.14633372628729,656.5283535999988,1006,22,female,True
136,73.0,25,M,up,0.3001819000019168,0.6597123993482429,,psi_staircase,emotion,,82.84358992132628,82.84358992132628,31.43229144782805,657.9616346999974,1006,22,female,True
137,52.0,25,F,up,0.2668376000001444,1.7398097240185677,,psi_staircase,emotion,,62.56682795453205,62.56682795453205,34.340881921268696,660.4948874999973,1006,22,female,True
138,39.0,25,M,up,0.3835098000017751,1.277773294350396,,psi_staircase,emotion,,44.537529999832266,44.537529999832266,34.280036470022296,662.5614549999991,1006,22,female,True
139,30.0,25,F,up,0.4214604000007966,0.536060771648346,,psi_staircase,emotion,,31.25768922554525,31.25768922554525,32.2565576948039,663.8614025999996,1006,22,female,True
140,22.0,25,F,down,0.3668667000019923,0.9214517810203192,,psi_staircase,emotion,,22.18477274067352,22.18477274067352,29.37991440897152,665.5779917,1006,22,female,True
141,40.0,25,M,down,0.3837362000012945,0.6434368517562011,,psi_staircase,emotion,,29.711869272969174,29.711869272969174,32.91942046958947,666.9946722999994,1006,22,female,True
142,51.0,25,F,down,0.3168521999978111,1.689449325195331,,psi_staircase,emotion,,38.78713263943168,38.78713263943168,38.27445969263977,669.4445515999978,1006,22,female,True
143,55.0,25,F,down,0.4002010999975027,0.5880115079430623,,psi_staircase,emotion,,47.03527172452352,47.03527172452352,39.98827229585063,670.7945091000001,1006,22,female,True
144,59.0,25,F,down,0.4001736000027449,1.256599268138635,,psi_staircase,emotion,,53.81642059511193,53.81642059511193,40.50953276516439,672.8111059999974,1006,22,female,True
145,66.0,25,M,down,0.3002360000027693,1.0804101916882118,,psi_staircase,emotion,,59.59533698550192,59.59533698550192,40.768198818246674,674.661015499998,1006,22,female,True
146,74.0,25,M,down,0.2835039000019606,1.9045626813823848,,psi_staircase,emotion,,64.9581237667024,64.9581237667024,41.06837396275653,677.327595499999,1006,22,female,True
147,81.0,25,F,up,0.4566500999972049,0.9997137401075372,,psi_staircase,emotion,,70.1546222896294,70.1546222896294,41.47572141358429,679.0941845999987,1006,22,female,True
148,77.0,25,F,down,0.4168748000010964,1.8079895055261623,,psi_staircase,emotion,,66.77948140072981,66.77948140072981,41.16016100986819,681.7274360999982,1006,22,female,True
149,84.0,25,M,up,0.4547845000015513,1.431937436705446,,psi_staircase,emotion,,71.34192895782269,71.34192895782269,41.55134985006621,683.944028599999,1006,22,female,True
150,80.0,25,M,down,0.3001446000016585,1.7681505213803888,,psi_staircase,emotion,,68.5202803322855,68.5202803322855,41.24539158365235,686.510585699998,1006,22,female,True
151,87.0,25,M,down,0.3332722000013746,0.6954319489781136,,psi_staircase,emotion,,72.6168203505682,72.6168203505682,41.64113395096913,687.9774490999989,1006,22,female,True
152,91.0,25,M,down,0.3835046000021975,1.2811095198448732,,psi_staircase,emotion,,76.7257102847224,76.7257102847224,42.15192201886976,690.0437872000002,1006,22,female,True
153,95.0,25,F,up,0.4005889999971259,0.6825755207825918,,psi_staircase,emotion,,80.68031878678553,80.68031878678553,42.64458435662674,691.4769586999973,1006,22,female,True
154,93.0,25,F,down,0.3334528999985195,1.5040337732853888,,psi_staircase,emotion,,78.40114096075317,78.40114096075317,42.363637338883606,693.7436659999985,1006,22,female,True
155,97.0,25,F,up,0.3502855000006093,1.161728358241994,,psi_staircase,emotion,,82.00032224006678,82.00032224006678,42.81552641846628,695.6767996999988,1006,22,female,True
156,95.0,25,M,up,0.4723329000007652,0.5168996166951506,,psi_staircase,emotion,,79.95754647920499,79.95754647920499,42.55564696687201,696.9435432999999,1006,22,female,True
157,92.0,25,M,up,0.3335126000019954,0.7765413121499437,,psi_staircase,emotion,,78.04403681186508,78.04403681186508,42.31083886665627,698.5434921999986,1006,22,female,True
158,61.0,25,F,up,0.4191843000007793,1.956152184781616,,psi_staircase,emotion,,76.19790608837553,76.19790608837553,42.09216823729971,701.2766357999972,1006,22,female,True
159,57.0,25,F,down,0.4001951999998709,1.3587013463720012,,psi_staircase,emotion,,73.20709403447583,73.20709403447583,42.491127437982655,703.4266256999981,1006,22,female,True
160,91.0,25,M,down,0.349898899999971,1.5743112490927391,,psi_staircase,emotion,,74.82197494789209,74.82197494789209,42.26128932766544,705.7767988999985,1006,22,female,True
161,95.0,25,M,down,0.3835097000010137,1.392926756259787,,psi_staircase,emotion,,77.62524712865161,77.62524712865161,42.657197769868176,707.9264618999987,1006,22,female,True
162,98.0,25,F,down,0.3501819999983127,0.8466106548512684,,psi_staircase,emotion,,80.40309533779755,80.40309533779755,43.08326526383148,709.5597137999976,1006,22,female,True
163,100.0,25,M,down,0.3168107000019518,0.792977271456637,,psi_staircase,emotion,,83.12382739086769,83.12382739086769,43.49971555080827,711.1263515999999,1006,22,female,True
164,102.0,25,F,up,0.5989479999989271,1.444899008539427,,psi_staircase,emotion,,85.75616714980742,85.75616714980742,43.87976276605688,713.3429288999978,1006,22,female,True
165,101.0,25,M,down,0.3168331999986549,1.721694045966939,,psi_staircase,emotion,,84.32163170470616,84.32163170470616,43.683964081254345,716.0261754999992,1006,22,female,True
166,103.0,25,F,up,0.3501578000032168,1.68272645624874,,psi_staircase,emotion,,86.78624926567849,86.78624926567849,44.0309085855275,718.492747799999,1006,22,female,True
167,102.0,25,M,up,0.3165836000007402,1.9319406836744115,,psi_staircase,emotion,,85.4345996827326,85.4345996827326,43.84872217020899,721.1762353999984,1006,22,female,True
168,100.0,25,F,down,0.4263052999995125,0.361013758154011,,psi_staircase,emotion,,84.14788546488344,84.14788546488344,43.67082172769688,722.292599299999,1006,22,female,True
169,103.0,25,M,up,0.3835690000014438,1.8157950870049373,,psi_staircase,emotion,,86.35839439066672,86.35839439066672,43.96601653682151,724.8757454999977,1006,22,female,True
170,101.0,25,M,up,0.5317574999971839,0.6240245864309637,,psi_staircase,emotion,,85.14290429935568,85.14290429935568,43.79700241137106,726.2591077999969,1006,22,female,True
171,69.0,25,F,down,0.3834930999983044,0.6965728609983046,,psi_staircase,emotion,,83.95284611280913,83.95284611280913,43.63794499047674,727.8423907999968,1006,22,female,True
172,107.0,25,F,up,0.266951000001427,1.7392215292710709,,psi_staircase,emotion,,85.12233593966864,85.12233593966864,43.49174212667195,730.3589575999977,1006,22,female,True
173,62.0,25,F,down,0.3500691000008373,1.789301891688846,,psi_staircase,emotion,,84.13632323705107,84.13632323705107,43.29248611728336,732.9255303999998,1006,22,female,True
174,112.0,25,M,up,0.3001987999996345,1.8555145891161384,,psi_staircase,emotion,,85.08092928145246,85.08092928145246,43.0942466216901,735.5587591999974,1006,22,female,True
175,57.0,25,M,down,0.400174499998684,1.207483358670654,,psi_staircase,emotion,,84.25221401149958,84.25221401149958,42.86331136054742,737.542028099997,1006,22,female,True
176,115.0,25,F,up,0.4192519999996875,1.1909656367897163,,psi_staircase,emotion,,85.04407298122456,85.04407298122456,42.63008200281363,739.5086021999996,1006,22,female,True
177,54.0,25,F,down,0.5039636000001337,0.887563969513596,,psi_staircase,emotion,,84.31714135923352,84.31714135923352,42.37415018309325,741.1918983999967,1006,22,female,True
178,118.0,25,F,up,0.3001560999982757,0.8761638328667383,,psi_staircase,emotion,,85.01123705725047,85.01123705725047,42.11391260564736,742.9418570999987,1006,22,female,True
179,52.0,25,M,down,0.3001838000018324,1.5042370223868071,,psi_staircase,emotion,,84.37612462216093,84.37612462216093,41.83499687906297,745.2084117999984,1006,22,female,True
180,120.0,25,M,up,0.4168312000001606,0.8334062669060036,,psi_staircase,emotion,,84.99879294202248,84.99879294202248,41.55011010901926,746.8250165999998,1006,22,female,True
181,50.0,25,M,down,0.283643499999016,1.5470588612751914,,psi_staircase,emotion,,84.43104090364528,84.43104090364528,41.250064976571245,749.1747829999986,1006,22,female,True
182,0.2337689926271638,25,down,up,0.6658581000010599,1.1425922485422402,,experiment,cRDM,0.0,,,,772.4739964999972,1006,22,female,True
183,0.2337689926271638,25,up,down,0.3337878999991517,0.701368130137834,,experiment,cRDM,0.0,,,,774.0907040999991,1006,22,female,True
184,0.2337689926271638,25,down,down,0.4875487999997858,1.23303425594081,,experiment,cRDM,0.0,,,,776.0072715999995,1006,22,female,True
185,0.2337689926271638,25,up,up,0.4746631999987585,0.4090422535783908,,experiment,cRDM,0.0,,,,777.1741540000003,1006,22,female,True
186,0.2337689926271638,25,down,down,0.5076544000003196,1.2331131842169891,,experiment,cRDM,0.0,,,,779.1571287999977,1006,22,female,True
187,0.2337689926271638,25,down,down,0.5154685000015888,1.869438334773464,,experiment,cRDM,0.0,,,,781.7903927999978,1006,22,female,True
188,0.2337689926271638,25,up,up,0.4332021999980497,1.9146743292916348,,experiment,cRDM,0.0,,,,784.4736532999996,1006,22,female,True
189,0.2337689926271638,25,down,down,0.2504377999975986,1.8309525266151991,,experiment,cRDM,0.0,,,,787.006878799999,1006,22,female,True
190,0.2337689926271638,25,up,down,0.3004935999997542,1.4208267627016191,,experiment,cRDM,0.0,,,,789.1067819999989,1006,22,female,True
191,0.2337689926271638,25,up,up,0.4166547999993781,0.751557279317625,,experiment,cRDM,0.0,,,,790.5400558999972,1006,22,female,True
192,0.2337689926271638,25,down,down,0.4002806000025884,0.559255826369601,,experiment,cRDM,0.0,,,,791.7900104999972,1006,22,female,True
193,0.2337689926271638,25,up,up,0.3838706999995338,1.1882342341146572,,experiment,cRDM,0.0,,,,793.6732134999984,1006,22,female,True
194,0.2337689926271638,25,up,down,0.3503160000000207,1.3637914587295532,,experiment,cRDM,0.0,,,,795.7232044999982,1006,22,female,True
195,0.2337689926271638,25,up,down,0.5857104000024265,0.3740087096895573,,experiment,cRDM,0.0,,,,796.7731279999971,1006,22,female,True
196,0.2337689926271638,25,down,down,0.4634602000005543,1.7382185701671726,,experiment,cRDM,0.0,,,,799.3563931999997,1006,22,female,True
197,0.2337689926271638,25,down,down,0.4654794000016409,1.7288401670459803,,experiment,cRDM,0.0,,,,801.8063368000003,1006,22,female,True
198,0.2337689926271638,25,up,up,0.300497299998824,1.2553589824154567,,experiment,cRDM,0.0,,,,803.7729246999988,1006,22,female,True
199,0.2337689926271638,25,up,down,0.3006330000025627,1.206890000694219,,experiment,cRDM,0.0,,,,805.6561033999969,1006,22,female,True
200,0.2337689926271638,25,down,down,0.5017155000023195,0.7701058644895575,,experiment,cRDM,0.0,,,,807.1061196999981,1006,22,female,True
201,0.2337689926271638,25,down,down,0.5320876000005228,0.9953472343180658,,experiment,cRDM,0.0,,,,808.8727577999998,1006,22,female,True
202,0.2337689926271638,25,up,up,0.3839334000003873,1.9826105020491864,,experiment,cRDM,0.0,,,,811.6558349999978,1006,22,female,True
203,0.2337689926271638,25,down,down,0.3838465000008,1.5000462058726225,,experiment,cRDM,0.0,,,,813.8391926999975,1006,22,female,True
204,0.2337689926271638,25,up,up,0.4167202999997244,0.4493402343746904,,experiment,cRDM,0.0,,,,814.9725550000003,1006,22,female,True
205,0.2337689926271638,25,down,down,0.4381881999979669,0.3923034072208271,,experiment,cRDM,0.0,,,,816.0556274999981,1006,22,female,True
206,0.2337689926271638,25,down,down,0.4167792000007466,1.0778304735989916,,experiment,cRDM,0.0,,,,817.8223940999997,1006,22,female,True
207,0.2337689926271638,25,up,up,0.3670170000004873,0.9890436197747432,,experiment,cRDM,0.0,,,,819.4890285000001,1006,22,female,True
208,0.2337689926271638,25,up,up,0.4345337000013387,1.459465712721462,,experiment,cRDM,0.0,,,,821.6222404999971,1006,22,female,True
209,0.2337689926271638,25,down,down,0.2837021000013919,1.9851412300464764,,experiment,cRDM,0.0,,,,824.2888356999974,1006,22,female,True
210,0.2337689926271638,25,up,up,0.3171970000003057,0.5886316555065192,,experiment,cRDM,0.0,,,,825.5554507999987,1006,22,female,True
211,0.2337689926271638,25,down,down,0.3671476999988954,1.8086729629014284,,experiment,cRDM,0.0,,,,828.0386858999991,1006,22,female,True
212,0.2337689926271638,25,up,up,0.3504401999998663,0.8617068151787415,,experiment,cRDM,0.0,,,,829.5719896999981,1006,22,female,True
213,0.2337689926271638,25,down,down,0.3504810999984329,1.676793902987609,,experiment,cRDM,0.0,,,,831.9218794999979,1006,22,female,True
214,0.2337689926271638,25,up,up,0.4002763999997114,0.7858140794300243,,experiment,cRDM,0.0,,,,833.3884865,1006,22,female,True
215,0.2337689926271638,25,down,down,0.3338254000009328,0.6405077764321647,,experiment,cRDM,0.0,,,,834.705099499999,1006,22,female,True
216,0.2337689926271638,25,up,up,0.3505310000000463,0.3300687182926105,,experiment,cRDM,0.0,,,,835.7217186999987,1006,22,female,True
217,0.2337689926271638,25,down,down,0.3670891000001575,1.178201911080706,,experiment,cRDM,0.0,,,,837.571712099998,1006,22,female,True
218,0.2337689926271638,25,up,up,0.2838477000004786,1.0570513210049883,,experiment,cRDM,0.0,,,,839.2882618999975,1006,22,female,True
219,0.2337689926271638,25,down,down,0.3838039000002027,0.4558157720020505,,experiment,cRDM,0.0,,,,840.4215614999994,1006,22,female,True
220,0.2337689926271638,25,up,down,0.3671532000007573,0.5219749806833265,,experiment,cRDM,0.0,,,,841.6215147000003,1006,22,female,True
221,0.2337689926271638,25,down,up,0.4873616000004404,1.1161150469956975,,experiment,cRDM,0.0,,,,843.4214436999973,1006,22,female,True
222,0.2337689926271638,25,down,down,0.3005198999999265,1.5516496406699791,,experiment,cRDM,0.0,,,,845.7213569999985,1006,22,female,True
223,0.2337689926271638,25,up,down,0.4791846000007354,1.0935167902835736,,experiment,cRDM,0.0,,,,847.5046218999996,1006,22,female,True
224,0.2337689926271638,25,down,down,0.300496200001362,0.3334024571951229,,experiment,cRDM,0.0,,,,848.5879212,1006,22,female,True
225,0.2337689926271638,25,up,up,0.3670351000000664,0.9190365154697226,,experiment,cRDM,0.0,,,,850.1878631,1006,22,female,True
226,0.2337689926271638,25,up,down,0.2839821000015945,0.6943288262229533,,experiment,cRDM,0.0,,,,851.5543229999967,1006,22,female,True
227,0.2337689926271638,25,down,up,0.2838407999988703,1.7768720947203542,,experiment,cRDM,0.0,,,,854.0043808999981,1006,22,female,True
228,0.2337689926271638,25,down,down,0.6014809000007517,1.0214354928780287,,experiment,cRDM,0.0,,,,855.704325499999,1006,22,female,True
229,0.2337689926271638,25,up,up,0.2504144999984419,1.2495369514874417,,experiment,cRDM,0.0,,,,857.8042427999972,1006,22,female,True
230,0.2337689926271638,25,down,down,0.2338558999981614,0.6579017281138393,,experiment,cRDM,0.0,,,,859.1375129999979,1006,22,female,True
231,0.2337689926271638,25,up,up,0.3674315999996906,1.373998628819817,,experiment,cRDM,0.0,,,,861.1708101999975,1006,22,female,True
232,0.2337689926271638,25,up,down,0.3173428000009153,0.4006186187420344,,experiment,cRDM,0.0,,,,862.2539202999978,1006,22,female,True
233,0.2337689926271638,25,up,up,0.350502500001312,1.896292173644769,,experiment,cRDM,0.0,,,,864.8373025000001,1006,22,female,True
234,0.2337689926271638,25,up,down,0.3004576999992423,1.6645568184017894,,experiment,cRDM,0.0,,,,867.1872245999984,1006,22,female,True
235,0.2337689926271638,25,up,up,0.4622744999978749,0.7500851310388819,,experiment,cRDM,0.0,,,,868.6205266999968,1006,22,female,True
236,0.2337689926271638,25,down,down,0.2337799000015366,0.8317408141318381,,experiment,cRDM,0.0,,,,870.1705026999989,1006,22,female,True
237,0.2337689926271638,25,down,up,0.3504472999993595,1.4286586144698643,,experiment,cRDM,0.0,,,,872.2703997999997,1006,22,female,True
238,0.2337689926271638,25,down,down,0.5478055999992648,0.3058328560166229,,experiment,cRDM,0.0,,,,873.2369782999995,1006,22,female,True
239,0.2337689926271638,25,up,up,0.4498540999993565,0.8763528442930049,,experiment,cRDM,0.0,,,,874.9369314999967,1006,22,female,True
240,0.2337689926271638,25,down,down,0.4002733000015723,1.0746169493506823,,experiment,cRDM,0.0,,,,876.7368602999995,1006,22,female,True
241,0.2337689926271638,25,down,up,0.3671858000016073,0.9798565754855686,,experiment,cRDM,0.0,,,,878.4034810999983,1006,22,female,True
242,0.2337689926271638,25,down,down,0.4002655000003869,1.4542943628046057,,experiment,cRDM,0.0,,,,880.5367091999979,1006,22,female,True
243,0.2337689926271638,25,up,down,0.452477099999669,0.4391037201528801,,experiment,cRDM,0.0,,,,881.6532835999969,1006,22,female,True
244,0.2337689926271638,25,down,down,0.5055094000017561,1.6864383910989444,,experiment,cRDM,0.0,,,,884.0533026999983,1006,22,female,True
245,0.2337689926271638,25,up,up,0.3171146999993652,1.2880248063371214,,experiment,cRDM,0.0,,,,886.1198820999998,1006,22,female,True
246,0.2337689926271638,25,up,up,0.4168322000004991,0.5935105698221727,,experiment,cRDM,0.0,,,,887.4031418999984,1006,22,female,True
247,0.2337689926271638,25,down,up,0.3338021000017761,1.3412739058953878,,experiment,cRDM,0.0,,,,889.4197521999995,1006,22,female,True
248,0.2337689926271638,25,up,up,0.3337926999993215,1.7620715251247991,,experiment,cRDM,0.0,,,,891.8696697999985,1006,22,female,True
249,0.2337689926271638,25,down,down,0.5135124000007636,0.538260079790679,,experiment,cRDM,0.0,,,,893.0862875999992,1006,22,female,True
250,0.2337689926271638,25,up,down,0.3836655000013707,0.9265290631459576,,experiment,cRDM,0.0,,,,894.7695868999981,1006,22,female,True
251,0.2337689926271638,25,down,up,0.2838787999971828,1.8201394391802528,,experiment,cRDM,0.0,,,,897.2861128999975,1006,22,female,True
252,0.2337689926271638,25,up,down,0.4570702999990317,1.1803681513439666,,experiment,cRDM,0.0,,,,899.1527092999968,1006,22,female,True
253,0.2337689926271638,25,down,down,0.5904990000017278,0.845053128530614,,experiment,cRDM,0.0,,,,900.7193222999995,1006,22,female,True
254,0.2337689926271638,25,down,up,0.4168425999996543,0.6225268200823575,,experiment,cRDM,0.0,,,,902.2025794999972,1006,22,female,True
255,0.2337689926271638,25,down,up,0.6416128000018944,1.93639823370253,,experiment,cRDM,0.0,,,,904.8191814999992,1006,22,female,True
256,0.2337689926271638,25,down,down,0.4730433000004268,0.8115936211588008,,experiment,cRDM,0.0,,,,906.5357608999984,1006,22,female,True
257,0.2337689926271638,25,down,up,0.6700610000007146,1.8106403416291204,,experiment,cRDM,0.0,,,,909.085712199998,1006,22,female,True
258,0.2337689926271638,25,up,down,0.5692371999975876,0.9148839770731494,,experiment,cRDM,0.0,,,,910.9355958999986,1006,22,female,True
259,0.2337689926271638,25,up,up,0.4607337999987067,1.682075809071368,,experiment,cRDM,0.0,,,,913.452040199998,1006,22,female,True
260,0.2337689926271638,25,up,down,0.4613721000023361,1.8642110409485693,,experiment,cRDM,0.0,,,,916.0354154999986,1006,22,female,True
261,0.2337689926271638,25,up,up,0.3504395000018121,1.9334396685631925,,experiment,cRDM,0.0,,,,918.6853432999995,1006,22,female,True
262,101.0,25,M,down,1.1896276000006765,0.8420259835803066,,experiment,emotion,0.0,,,,922.2351600999972,1006,22,female,True
263,68.0,25,M,down,0.5023265000018,0.4091607766566028,,experiment,emotion,0.0,,,,924.1184496999996,1006,22,female,True
264,90.0,25,F,up,0.300172700000985,0.684950835385745,,experiment,emotion,0.0,,,,925.5850853999982,1006,22,female,True
265,101.0,25,F,up,0.6712034000011045,1.7239685472459785,,experiment,emotion,0.0,,,,928.0016357999992,1006,22,female,True
266,90.0,25,M,down,0.4385883000031754,1.6762980093434832,,experiment,emotion,0.0,,,,930.6182064999994,1006,22,female,True
267,79.0,25,F,up,0.4416521999992255,0.8742210414800438,,experiment,emotion,0.0,,,,932.218155399998,1006,22,female,True
268,68.0,25,M,,,0.6270070410997108,,experiment,emotion,0.0,,,,933.5681033999972,1006,22,female,True
269,79.0,25,M,up,0.7538421000026574,1.5955645921963058,,experiment,emotion,0.0,,,,937.8679574999989,1006,22,female,True
270,101.0,25,F,up,0.7856595999983256,0.9501763950637504,,experiment,emotion,0.0,,,,939.8511342999992,1006,22,female,True
271,79.0,25,F,down,0.5236694000013813,1.1067334372054654,,experiment,emotion,0.0,,,,942.0011229999982,1006,22,female,True
272,90.0,25,F,up,0.3835232999990694,0.8179363483297564,,experiment,emotion,0.0,,,,943.601055799998,1006,22,female,True
273,101.0,25,F,down,0.6557591999990109,1.531165727312074,,experiment,emotion,0.0,,,,945.8009932999994,1006,22,female,True
274,90.0,25,F,down,0.8555197999994562,0.7650465184299242,,experiment,emotion,0.0,,,,947.4842500999983,1006,22,female,True
275,68.0,25,F,up,0.4167747000028612,0.7849303847993883,,experiment,emotion,0.0,,,,949.4175123999994,1006,22,female,True
276,79.0,25,M,up,0.5280356000002939,1.8989386130847643,,experiment,emotion,0.0,,,,952.0007480999992,1006,22,female,True
277,68.0,25,M,down,0.7864399000027333,1.0257868043967464,,experiment,emotion,0.0,,,,953.8173461999976,1006,22,female,True
278,101.0,25,M,up,0.5341832999984035,0.919317188388766,,experiment,emotion,0.0,,,,955.8006051999982,1006,22,female,True
279,68.0,25,M,down,0.383472299999994,1.8315563501298864,,experiment,emotion,0.0,,,,958.4338489999972,1006,22,female,True
280,90.0,25,F,up,0.3836198999997577,1.0247146309690611,,experiment,emotion,0.0,,,,960.1503275999968,1006,22,female,True
281,90.0,25,M,down,0.422761999998329,1.163806434110717,,experiment,emotion,0.0,,,,962.0170510999995,1006,22,female,True
282,79.0,25,M,down,0.4534861000029195,1.6910299591705067,,experiment,emotion,0.0,,,,964.4002871999984,1006,22,female,True
283,79.0,25,F,down,0.6982414000012795,1.3761614568853893,,experiment,emotion,0.0,,,,966.4835452999978,1006,22,female,True
284,68.0,25,M,down,0.5163427000006777,1.8365519511570847,,experiment,emotion,0.0,,,,969.2834385999996,1006,22,female,True
285,101.0,25,F,up,0.8171005000003788,1.8422045953111617,,experiment,emotion,0.0,,,,971.9166764,1006,22,female,True
286,90.0,25,F,down,0.6134880000026897,0.4819685276216595,,experiment,emotion,0.0,,,,973.4832717999998,1006,22,female,True
287,68.0,25,M,up,0.4001763000014762,1.217075266651752,,experiment,emotion,0.0,,,,975.5832091999982,1006,22,female,True
288,101.0,25,M,down,0.4461148000009416,0.581814536410809,,experiment,emotion,0.0,,,,976.8496512999992,1006,22,female,True
289,101.0,25,F,down,0.4296828000005916,1.2135932022705842,,experiment,emotion,0.0,,,,978.7831012999995,1006,22,female,True
290,79.0,25,M,down,0.6250614000018686,1.1353368739168928,,experiment,emotion,0.0,,,,980.5996835999975,1006,22,female,True
291,68.0,25,F,down,0.589156300000468,0.4455644731124156,,experiment,emotion,0.0,,,,981.9496585999988,1006,22,female,True
292,79.0,25,F,up,0.6812719000008656,0.7945232823062814,,experiment,emotion,0.0,,,,983.5995640999972,1006,22,female,True
293,90.0,25,F,down,0.8349231000029249,0.7327377627470055,,experiment,emotion,0.0,,,,985.282883099997,1006,22,female,True
294,68.0,25,M,up,0.2668415000007371,1.236795083252157,,experiment,emotion,0.0,,,,987.616108899998,1006,22,female,True
295,101.0,25,M,down,0.3168331999986549,1.9054162170494768,,experiment,emotion,0.0,,,,990.2159987999984,1006,22,female,True
296,90.0,25,M,up,0.489835000000312,1.7121517551996452,,experiment,emotion,0.0,,,,992.615923399997,1006,22,female,True
297,101.0,25,F,up,0.6736418000000413,1.377727311330361,,experiment,emotion,0.0,,,,994.7491582999974,1006,22,female,True
298,68.0,25,F,down,0.5830471000008401,0.923885323362782,,experiment,emotion,0.0,,,,996.6157566000002,1006,22,female,True
299,90.0,25,M,up,0.452414299998054,0.3807416546670052,,experiment,emotion,0.0,,,,997.8323643999976,1006,22,female,True
300,79.0,25,F,down,0.3168138000000908,1.548788436530103,,experiment,emotion,0.0,,,,1000.1156400999972,1006,22,female,True
301,79.0,25,M,up,0.4715576000016881,1.2170061472625495,,experiment,emotion,0.0,,,,1002.0322080999975,1006,22,female,True
302,90.0,25,M,up,0.4185768999996071,0.3716210906527677,,experiment,emotion,0.0,,,,1003.1321811999989,1006,22,female,True
303,101.0,25,M,down,0.4001968000011402,1.6391407365330846,,experiment,emotion,0.0,,,,1005.4486727999974,1006,22,female,True
304,79.0,25,F,up,0.3668491999997059,0.944086215541085,,experiment,emotion,0.0,,,,1007.098705999997,1006,22,female,True
305,68.0,25,F,down,0.3835687999999209,1.305777127262614,,experiment,emotion,0.0,,,,1009.1152936,1006,22,female,True
306,68.0,25,M,down,0.5068417000002228,0.7450633882494554,,experiment,emotion,0.0,,,,1010.5319151999976,1006,22,female,True
307,79.0,25,F,down,0.4002126999985194,1.5062027678457734,,experiment,emotion,0.0,,,,1012.8151803,1006,22,female,True
308,101.0,25,F,down,0.517019099999743,1.2751698870120085,,experiment,emotion,0.0,,,,1014.7817619999988,1006,22,female,True
309,90.0,25,M,up,0.4680254000013519,0.7855787599796578,,experiment,emotion,0.0,,,,1016.3817019999988,1006,22,female,True
310,68.0,25,M,up,0.5187774999976682,0.3470530265893261,,experiment,emotion,0.0,,,,1017.4649960999996,1006,22,female,True
311,101.0,25,F,down,0.4802376000006916,1.9972030392216735,,experiment,emotion,0.0,,,,1020.2315449999988,1006,22,female,True
312,90.0,25,M,,,0.5617303393209625,,experiment,emotion,0.0,,,,1021.5480167999996,1006,22,female,True
313,90.0,25,F,up,0.2835343000006105,0.7528395522199756,,experiment,emotion,0.0,,,,1024.9980369999976,1006,22,female,True
314,68.0,25,F,down,0.3668579000004683,1.6408021212518755,,experiment,emotion,0.0,,,,1027.3146285999974,1006,22,female,True
315,79.0,25,F,up,0.3668988000026729,0.9642487805913728,,experiment,emotion,0.0,,,,1028.981226,1006,22,female,True
316,101.0,25,M,up,0.2668577999975241,1.1664905508403929,,experiment,emotion,0.0,,,,1030.831147499997,1006,22,female,True
317,79.0,25,M,down,0.3668936999965808,1.7746892919882449,,experiment,emotion,0.0,,,,1033.2810742999973,1006,22,female,True
318,79.0,25,F,up,0.4348030000001017,1.975978256137899,,experiment,emotion,0.0,,,,1035.9309689999973,1006,22,female,True
319,79.0,25,F,down,0.4849104999993869,1.9398592520872664,,experiment,emotion,0.0,,,,1038.5808784999972,1006,22,female,True
320,101.0,25,M,down,0.4919680999992124,0.7436083803794088,,experiment,emotion,0.0,,,,1040.080804199999,1006,22,female,True
321,90.0,25,M,down,1.5137125000001106,1.6490244917429622,,experiment,emotion,0.0,,,,1042.514056,1006,22,female,True
322,68.0,25,M,up,0.4398045000016282,1.3013410004339772,,experiment,emotion,0.0,,,,1045.6139386999969,1006,22,female,True
323,68.0,25,M,up,0.4999489000001631,0.9352613894134794,,experiment,emotion,0.0,,,,1047.263825099999,1006,22,female,True
324,90.0,25,M,up,0.8209381999986363,1.1870292052891105,,experiment,emotion,0.0,,,,1049.2138264999994,1006,22,female,True
325,101.0,25,F,down,0.427063499999349,0.5942270742142836,,experiment,emotion,0.0,,,,1050.9137413999997,1006,22,female,True
326,101.0,25,F,up,1.4500727000013285,0.6022543350439775,,experiment,emotion,0.0,,,,1052.2136885,1006,22,female,True
327,68.0,25,M,down,0.4741728999979386,1.3353228800822772,,experiment,emotion,0.0,,,,1055.2635900999994,1006,22,female,True
328,101.0,25,F,up,0.6069338000015705,1.9327240267642225,,experiment,emotion,0.0,,,,1057.946812099999,1006,22,female,True
329,79.0,25,F,down,0.4813467999993008,0.5885329938505844,,experiment,emotion,0.0,,,,1059.4134344999984,1006,22,female,True
330,90.0,25,F,up,0.5167918999977701,1.0157891219641677,,experiment,emotion,0.0,,,,1061.180048899998,1006,22,female,True
331,79.0,25,M,up,0.4754347999987658,0.7945097263254666,,experiment,emotion,0.0,,,,1062.7633053999998,1006,22,female,True
332,68.0,25,F,up,0.4322200000024168,0.7330321374684561,,experiment,emotion,0.0,,,,1064.246607899997,1006,22,female,True
333,90.0,25,F,up,0.6206501000015123,1.958697490462408,,experiment,emotion,0.0,,,,1066.9131574999992,1006,22,female,True
334,79.0,25,F,down,1.133368500002689,1.5840221879164238,,experiment,emotion,0.0,,,,1069.3963914999986,1006,22,female,True
335,90.0,25,M,up,0.6361256000018329,0.9277335852238946,,experiment,emotion,0.0,,,,1071.7296360999972,1006,22,female,True
336,68.0,25,M,down,0.5364822000010463,0.9528107998004292,,experiment,emotion,0.0,,,,1073.5962658999997,1006,22,female,True
337,101.0,25,F,up,0.7282027999972343,0.908117910149735,,experiment,emotion,0.0,,,,1075.3295132999992,1006,22,female,True
338,90.0,25,M,down,0.3500961000027018,1.2615379734420789,,experiment,emotion,0.0,,,,1077.596098799997,1006,22,female,True
339,101.0,25,F,down,0.5180995000009716,1.4831935607834996,,experiment,emotion,0.0,,,,1079.7626603999995,1006,22,female,True
340,68.0,25,M,up,0.4861172999990231,0.5964601292852154,,experiment,emotion,0.0,,,,1081.1626381999995,1006,22,female,True
341,79.0,25,M,down,0.619413500000519,1.2096502073760087,,experiment,emotion,0.0,,,,1083.1125556999978,1006,22,female,True
342,0.2337689926271638,25,up,up,0.4168327000006684,1.7371187120053724,,experiment,cRDM,1.0,,,,1102.8451860999994,1006,22,female,True
343,0.2337689926271638,25,up,down,0.5550010000006296,1.832087363504476,,experiment,cRDM,1.0,,,,1105.361751999997,1006,22,female,True
344,0.2337689926271638,25,down,down,0.4724371999982395,0.8311023076106023,,experiment,cRDM,1.0,,,,1107.028321599999,1006,22,female,True
345,0.2337689926271638,25,down,down,0.4420067999999446,1.976392175290489,,experiment,cRDM,1.0,,,,1109.7448024999976,1006,22,female,True
346,0.2337689926271638,25,up,up,0.5175569000020914,0.6268883810309462,,experiment,cRDM,1.0,,,,1111.0781900000002,1006,22,female,True
347,0.2337689926271638,25,down,down,0.3171923999980208,0.4665864907616764,,experiment,cRDM,1.0,,,,1112.3281283999968,1006,22,female,True
348,0.2337689926271638,25,up,up,0.4821281999975326,1.4321741964493295,,experiment,cRDM,1.0,,,,1114.4446222999975,1006,22,female,True
349,0.2337689926271638,25,up,down,0.5200638999995135,0.9149968720897884,,experiment,cRDM,1.0,,,,1116.094694199997,1006,22,female,True
350,0.2337689926271638,25,down,up,0.3838857000009739,0.3075932121375531,,experiment,cRDM,1.0,,,,1117.1779556999973,1006,22,female,True
351,0.2337689926271638,25,down,down,0.4168633000008412,1.2180650002525404,,experiment,cRDM,1.0,,,,1119.0945795999978,1006,22,female,True
352,0.2337689926271638,25,down,down,0.4999849000014364,1.4498179944135858,,experiment,cRDM,1.0,,,,1121.2277940999993,1006,22,female,True
353,0.2337689926271638,25,down,down,0.470316199996887,1.946850935828723,,experiment,cRDM,1.0,,,,1123.9444606999969,1006,22,female,True
354,0.2337689926271638,25,down,down,0.3671075999991444,1.874615687856482,,experiment,cRDM,1.0,,,,1126.5609861999983,1006,22,female,True
355,0.2337689926271638,25,down,down,0.333647799998289,1.263922004556982,,experiment,cRDM,1.0,,,,1128.5108889000005,1006,22,female,True
356,0.2337689926271638,25,up,down,0.350398700000369,1.174854321424757,,experiment,cRDM,1.0,,,,1130.3608741999997,1006,22,female,True
357,0.2337689926271638,25,up,down,0.4002608000009786,1.3864532093632258,,experiment,cRDM,1.0,,,,1132.4273842000002,1006,22,female,True
358,0.2337689926271638,25,up,up,0.3504345000001194,1.2622347264655391,,experiment,cRDM,1.0,,,,1134.3773722999977,1006,22,female,True
359,0.2337689926271638,25,up,down,0.383926499998779,0.9798937136605288,,experiment,cRDM,1.0,,,,1136.0439159999987,1006,22,female,True
360,0.2337689926271638,25,down,up,0.4168966000033833,0.8623096290573395,,experiment,cRDM,1.0,,,,1137.5938733000005,1006,22,female,True
361,0.2337689926271638,25,up,down,0.4653701999995974,1.5915639094063565,,experiment,cRDM,1.0,,,,1139.860455099999,1006,22,female,True
362,0.2337689926271638,25,up,down,0.4450190999996266,0.7011175644250883,,experiment,cRDM,1.0,,,,1141.293729699999,1006,22,female,True
363,0.2337689926271638,25,down,up,0.3840149999996356,0.7617871175011823,,experiment,cRDM,1.0,,,,1142.743540299998,1006,22,female,True
364,0.2337689926271638,25,up,up,0.5338115999984439,0.413214386505594,,experiment,cRDM,1.0,,,,1143.8269981999983,1006,22,female,True
365,0.2337689926271638,25,down,down,0.2838330999984464,0.7605081957573194,,experiment,cRDM,1.0,,,,1145.376932299998,1006,22,female,True
366,0.2337689926271638,25,down,down,0.5039312999979302,1.81506897207256,,experiment,cRDM,1.0,,,,1147.8768290999978,1006,22,female,True
367,0.2337689926271638,25,up,up,0.4168193000004976,1.238366082849511,,experiment,cRDM,1.0,,,,1149.8767474999986,1006,22,female,True
368,0.2337689926271638,25,up,down,0.4843395999996573,0.3884607090182935,,experiment,cRDM,1.0,,,,1150.943410699998,1006,22,female,True
369,0.2337689926271638,25,down,up,0.3505146000024979,1.8428433379767373,,experiment,cRDM,1.0,,,,1153.5266121999994,1006,22,female,True
370,0.2337689926271638,25,up,down,0.3005212999996729,0.974423253282015,,experiment,cRDM,1.0,,,,1155.1765786999968,1006,22,female,True
371,0.2337689926271638,25,down,up,0.5226801999997406,1.878126170263428,,experiment,cRDM,1.0,,,,1157.7430341,1006,22,female,True
372,0.2337689926271638,25,down,down,0.400591000001441,1.3911375065420113,,experiment,cRDM,1.0,,,,1159.9097200999968,1006,22,female,True
373,0.2337689926271638,25,down,down,0.5647781999978179,1.4960030123944394,,experiment,cRDM,1.0,,,,1162.092960799997,1006,22,female,True
374,0.2337689926271638,25,up,up,0.4455110000017157,0.8629226351834571,,experiment,cRDM,1.0,,,,1163.7762277999973,1006,22,female,True
375,0.2337689926271638,25,up,down,0.2838255999995454,0.5416829433292323,,experiment,cRDM,1.0,,,,1165.009523599998,1006,22,female,True
376,0.2337689926271638,25,up,up,0.3671586999989813,1.6289467170896312,,experiment,cRDM,1.0,,,,1167.3260856999989,1006,22,female,True
377,0.2337689926271638,25,down,down,0.3504339999999502,1.89099078615877,,experiment,cRDM,1.0,,,,1169.8926605999986,1006,22,female,True
378,0.2337689926271638,25,down,down,0.5638805000016873,0.3036176405743598,,experiment,cRDM,1.0,,,,1170.8759417,1006,22,female,True
379,0.2337689926271638,25,up,down,0.367162599999574,1.4596905932893791,,experiment,cRDM,1.0,,,,1173.1758938999992,1006,22,female,True
380,0.2337689926271638,25,down,up,0.4002729000021645,1.2145244698749869,,experiment,cRDM,1.0,,,,1175.0758322999973,1006,22,female,True
381,0.2337689926271638,25,up,down,0.3672533000026305,1.0765792862649488,,experiment,cRDM,1.0,,,,1176.8423227999992,1006,22,female,True
382,0.2337689926271638,25,up,down,0.333869300000515,0.7955202377575339,,experiment,cRDM,1.0,,,,1178.3256898,1006,22,female,True
383,0.2337689926271638,25,up,up,0.6127640999984578,1.5559372019468334,,experiment,cRDM,1.0,,,,1180.5589717999974,1006,22,female,True
384,0.2337689926271638,25,down,down,0.4169465000013588,1.408606138761202,,experiment,cRDM,1.0,,,,1182.842182299999,1006,22,female,True
385,0.2337689926271638,25,down,down,0.8077472000004491,0.6114144516107036,,experiment,cRDM,1.0,,,,1184.1419909999968,1006,22,female,True
386,0.2337689926271638,25,up,up,0.400266399999964,1.8595523023128824,,experiment,cRDM,1.0,,,,1187.0753711999969,1006,22,female,True
387,0.2337689926271638,25,down,down,0.4483827000003657,0.3600832466066515,,experiment,cRDM,1.0,,,,1188.125317799997,1006,22,female,True
388,0.2337689926271638,25,down,up,0.3504583999965689,1.0182895300097352,,experiment,cRDM,1.0,,,,1189.8586284999983,1006,22,female,True
389,0.2337689926271638,25,up,down,0.3337753000014345,0.6814536490009926,,experiment,cRDM,1.0,,,,1191.2085559999978,1006,22,female,True
390,0.2337689926271638,25,up,up,0.3836518000025535,1.5656010981725668,,experiment,cRDM,1.0,,,,1193.4585184999996,1006,22,female,True
391,0.2337689926271638,25,down,down,0.5416624999998021,1.0803370361160582,,experiment,cRDM,1.0,,,,1195.2250574999998,1006,22,female,True
392,0.2337689926271638,25,up,up,0.2671904999988328,0.7578946429250254,,experiment,cRDM,1.0,,,,1196.7750183999997,1006,22,female,True
393,0.2337689926271638,25,down,down,0.3171261999996204,0.3965427349372779,,experiment,cRDM,1.0,,,,1197.8583427999984,1006,22,female,True
394,0.2337689926271638,25,down,up,0.3171790999986115,1.166797635486044,,experiment,cRDM,1.0,,,,1199.6915993999974,1006,22,female,True
395,0.2337689926271638,25,down,up,0.4505984000024909,1.8885923817634345,,experiment,cRDM,1.0,,,,1202.2581661999975,1006,22,female,True
396,0.2337689926271638,25,up,up,0.4629238000015903,0.4141869068209564,,experiment,cRDM,1.0,,,,1203.3747969999968,1006,22,female,True
397,0.2337689926271638,25,up,down,0.3004719999989902,1.947318996076407,,experiment,cRDM,1.0,,,,1206.0580163999985,1006,22,female,True
398,0.2337689926271638,25,down,down,0.5078016000006755,0.4784349699153319,,experiment,cRDM,1.0,,,,1207.2079371,1006,22,female,True
399,0.2337689926271638,25,down,down,0.5088209999994433,0.8792059119289177,,experiment,cRDM,1.0,,,,1208.8579138999994,1006,22,female,True
400,0.2337689926271638,25,up,down,0.3004906999995,0.9767097961456714,,experiment,cRDM,1.0,,,,1210.6078200999982,1006,22,female,True
401,0.2337689926271638,25,up,down,0.4653268999973079,1.1857452542658868,,experiment,cRDM,1.0,,,,1212.4744464999967,1006,22,female,True
402,0.2337689926271638,25,up,up,0.5540141000019503,0.9968897780481858,,experiment,cRDM,1.0,,,,1214.2077021999976,1006,22,female,True
403,0.2337689926271638,25,up,down,0.4166715000028489,1.890982191284469,,experiment,cRDM,1.0,,,,1216.907581299998,1006,22,female,True
404,0.2337689926271638,25,up,up,0.503899300001649,1.5651182830703998,,experiment,cRDM,1.0,,,,1219.1408744999972,1006,22,female,True
405,0.2337689926271638,25,down,down,0.494653500001732,1.6582188570182876,,experiment,cRDM,1.0,,,,1221.5740872999995,1006,22,female,True
406,0.2337689926271638,25,down,down,0.4403585000000021,0.6682281992748604,,experiment,cRDM,1.0,,,,1223.0073814999996,1006,22,female,True
407,0.2337689926271638,25,up,up,0.4169290999998338,1.9438781948775767,,experiment,cRDM,1.0,,,,1225.6405073999997,1006,22,female,True
408,0.2337689926271638,25,down,down,0.3838872999986051,0.7512991211891724,,experiment,cRDM,1.0,,,,1227.0738798999992,1006,22,female,True
409,0.2337689926271638,25,down,down,0.6316139000009571,1.0186724972599943,,experiment,cRDM,1.0,,,,1228.7571903999997,1006,22,female,True
410,0.2337689926271638,25,down,up,0.517354499999783,1.9366044498769448,,experiment,cRDM,1.0,,,,1231.590382799997,1006,22,female,True
411,0.2337689926271638,25,up,down,0.250615299999481,0.8388472910033273,,experiment,cRDM,1.0,,,,1233.2070000999993,1006,22,female,True
412,0.2337689926271638,25,down,down,0.4504856000021391,0.5938814783036155,,experiment,cRDM,1.0,,,,1234.4902776999988,1006,22,female,True
413,0.2337689926271638,25,down,up,0.3171561000017391,1.3767818184868923,,experiment,cRDM,1.0,,,,1236.5902010999998,1006,22,female,True
414,0.2337689926271638,25,down,down,0.3171612000005552,1.275028462333507,,experiment,cRDM,1.0,,,,1238.5401577999985,1006,22,female,True
415,0.2337689926271638,25,up,up,0.3005268000015348,0.95953920006789,,experiment,cRDM,1.0,,,,1240.1734025999976,1006,22,female,True
416,0.2337689926271638,25,up,up,0.4168176999992283,0.5779132881236049,,experiment,cRDM,1.0,,,,1241.4400530999992,1006,22,female,True
417,0.2337689926271638,25,down,down,0.48309860000154,1.9229109584082769,,experiment,cRDM,1.0,,,,1244.056633,1006,22,female,True
418,0.2337689926271638,25,up,up,0.3338500999998359,0.7003889254103506,,experiment,cRDM,1.0,,,,1245.489865399999,1006,22,female,True
419,0.2337689926271638,25,down,down,0.4168145000003278,0.4189621619052335,,experiment,cRDM,1.0,,,,1246.5898306999989,1006,22,female,True
420,0.2337689926271638,25,up,up,0.367170099998475,1.432719849260208,,experiment,cRDM,1.0,,,,1248.7064194999984,1006,22,female,True
421,0.2337689926271638,25,up,down,0.3006165000006149,1.1181950857393848,,experiment,cRDM,1.0,,,,1250.5063381,1006,22,female,True
422,101.0,25,M,up,0.5590004999976372,1.6700378458983935,,experiment,emotion,1.0,,,,1258.872746399997,1006,22,female,True
423,68.0,25,M,down,0.4168037999988883,1.504919031991647,,experiment,emotion,1.0,,,,1261.222612599999,1006,22,female,True
424,90.0,25,F,up,0.4646055999983218,0.7173802564536977,,experiment,emotion,1.0,,,,1262.6391320000002,1006,22,female,True
425,101.0,25,F,down,0.433629999999539,1.8738073821731809,,experiment,emotion,1.0,,,,1265.2390908999987,1006,22,female,True
426,90.0,25,M,down,0.4433295999988331,0.8963396541485285,,experiment,emotion,1.0,,,,1266.8223985999975,1006,22,female,True
427,79.0,25,F,down,0.4167882000001555,0.8509743713247064,,experiment,emotion,1.0,,,,1268.4057092999974,1006,22,female,True
428,68.0,25,M,down,0.439134299998841,1.4997924031126026,,experiment,emotion,1.0,,,,1270.605610999999,1006,22,female,True
429,79.0,25,M,down,0.4169843000017863,0.9300470843842934,,experiment,emotion,1.0,,,,1272.238756499999,1006,22,female,True
430,101.0,25,F,up,0.383518799997546,1.6325798415466846,,experiment,emotion,1.0,,,,1274.5721415999978,1006,22,female,True
431,79.0,25,F,down,0.4450012000015704,1.3307731493601327,,experiment,emotion,1.0,,,,1276.588718799998,1006,22,female,True
432,90.0,25,F,up,0.3168163999980606,1.6157385971233074,,experiment,emotion,1.0,,,,1278.921957399998,1006,22,female,True
433,101.0,25,F,down,0.3001867000020866,1.9406977155255616,,experiment,emotion,1.0,,,,1281.5552121999972,1006,22,female,True
434,90.0,25,F,down,0.5066242999964743,0.419513654930801,,experiment,emotion,1.0,,,,1282.655163299998,1006,22,female,True
435,68.0,25,F,up,0.3336254000023473,1.9021947714153775,,experiment,emotion,1.0,,,,1285.3382926999984,1006,22,female,True
436,79.0,25,M,up,0.4405043000006117,0.3149636650822766,,experiment,emotion,1.0,,,,1286.338227199998,1006,22,female,True
437,68.0,25,M,down,0.3002048000016657,0.8725789862401598,,experiment,emotion,1.0,,,,1287.9215399999994,1006,22,female,True
438,101.0,25,M,down,0.4002096000003803,1.7642938432473465,,experiment,emotion,1.0,,,,1290.3715325999983,1006,22,female,True
439,68.0,25,M,down,0.633270000002085,1.6129398080683344,,experiment,emotion,1.0,,,,1292.6714482999996,1006,22,female,True
440,90.0,25,F,up,0.3835284000015235,1.4943771955210552,,experiment,emotion,1.0,,,,1295.0547152,1006,22,female,True
441,90.0,25,M,down,0.4381054999976186,1.8581260062615923,,experiment,emotion,1.0,,,,1297.604613899999,1006,22,female,True
442,79.0,25,M,up,0.4595128000000841,1.242987058380867,,experiment,emotion,1.0,,,,1299.571234899999,1006,22,female,True
443,79.0,25,F,down,0.2835245999995095,0.8164779634047443,,experiment,emotion,1.0,,,,1301.1211356999993,1006,22,female,True
444,68.0,25,M,down,0.416829300000245,1.4792540423063965,,experiment,emotion,1.0,,,,1303.2877621999978,1006,22,female,True
445,101.0,25,F,down,0.4002059000013105,0.9186799772062666,,experiment,emotion,1.0,,,,1304.9043244999991,1006,22,female,True
446,90.0,25,F,down,0.5454924000005121,1.663081462194156,,experiment,emotion,1.0,,,,1307.254241999999,1006,22,female,True
447,68.0,25,M,down,0.5014975999984017,0.5304418722397168,,experiment,emotion,1.0,,,,1308.6042065999973,1006,22,female,True
448,101.0,25,M,up,0.4001871999971627,1.9978098157056527,,experiment,emotion,1.0,,,,1311.3707746,1006,22,female,True
449,101.0,25,F,up,0.4990776999984518,1.6658141321393247,,experiment,emotion,1.0,,,,1313.7206561999992,1006,22,female,True
450,79.0,25,M,up,0.4001854000016465,0.602105448909835,,experiment,emotion,1.0,,,,1315.103964599999,1006,22,female,True
451,68.0,25,F,down,0.3335145999990345,1.1855544845705224,,experiment,emotion,1.0,,,,1316.987224499997,1006,22,female,True
452,79.0,25,F,down,0.5702376999979606,1.2976895245280882,,experiment,emotion,1.0,,,,1318.9704743000002,1006,22,female,True
453,90.0,25,F,down,0.3003138000021863,1.9664184799587887,,experiment,emotion,1.0,,,,1321.8037057999973,1006,22,female,True
454,68.0,25,M,down,0.3001855000002251,1.5505863175012076,,experiment,emotion,1.0,,,,1324.0536341999978,1006,22,female,True
455,101.0,25,M,up,0.4001656999971601,1.3573187734425192,,experiment,emotion,1.0,,,,1326.086904099997,1006,22,female,True
456,90.0,25,M,down,0.5092145999988134,1.51873601419665,,experiment,emotion,1.0,,,,1328.3035001999997,1006,22,female,True
457,101.0,25,F,up,0.4471800999999686,1.558441634380643,,experiment,emotion,1.0,,,,1330.6365812999975,1006,22,female,True
458,68.0,25,F,down,0.4167796000001544,0.5045949184603755,,experiment,emotion,1.0,,,,1331.853347999997,1006,22,female,True
459,90.0,25,M,up,0.4178179999980784,1.3708354575112314,,experiment,emotion,1.0,,,,1333.9199051999967,1006,22,female,True
460,79.0,25,F,up,0.5363255000011122,0.7046501175643274,,experiment,emotion,1.0,,,,1335.3363797999991,1006,22,female,True
461,79.0,25,M,up,0.4168112999977893,0.8369700130136866,,experiment,emotion,1.0,,,,1336.9698229999997,1006,22,female,True
462,90.0,25,M,down,0.4168040000004112,0.9166958002487008,,experiment,emotion,1.0,,,,1338.569757199999,1006,22,female,True
463,101.0,25,M,up,0.3502200000002631,1.4612565267700306,,experiment,emotion,1.0,,,,1340.7196523999992,1006,22,female,True
464,79.0,25,F,down,0.7541180999978678,1.75369276862108,,experiment,emotion,1.0,,,,1343.169615699997,1006,22,female,True
465,68.0,25,F,down,0.5792825000025914,1.7059971081513712,,experiment,emotion,1.0,,,,1345.919468699998,1006,22,female,True
466,68.0,25,M,down,0.4989588999997068,1.1493386704407726,,experiment,emotion,1.0,,,,1347.9027595999978,1006,22,female,True
467,79.0,25,F,down,0.3001982999994652,1.4042387654737845,,experiment,emotion,1.0,,,,1350.0859905999969,1006,22,female,True
468,101.0,25,F,down,0.3333376999980828,0.7224224145756707,,experiment,emotion,1.0,,,,1351.5026053,1006,22,female,True
469,90.0,25,M,up,0.3168900000018766,1.534427776406129,,experiment,emotion,1.0,,,,1353.7358093999974,1006,22,female,True
470,68.0,25,M,down,0.3333571000002848,1.2819595089857798,,experiment,emotion,1.0,,,,1355.7024499,1006,22,female,True
471,101.0,25,F,up,0.4702801999992516,0.9698432928954044,,experiment,emotion,1.0,,,,1357.3523967999972,1006,22,female,True
472,90.0,25,M,down,0.3334716000026674,1.5614328300959468,,experiment,emotion,1.0,,,,1359.6523318,1006,22,female,True
473,90.0,25,F,down,0.4604666999985056,1.4167340001766482,,experiment,emotion,1.0,,,,1361.7522415999993,1006,22,female,True
474,68.0,25,F,down,0.3501733000011882,1.6819093126449558,,experiment,emotion,1.0,,,,1364.1521377999998,1006,22,female,True
475,79.0,25,F,down,0.4379619999999704,0.8760768850592122,,experiment,emotion,1.0,,,,1365.7187406999983,1006,22,female,True
476,101.0,25,M,down,0.3501929999983986,1.2796887713378435,,experiment,emotion,1.0,,,,1367.7186554,1006,22,female,True
477,79.0,25,M,down,0.4168074000008346,1.9431605995491184,,experiment,emotion,1.0,,,,1370.3519234999983,1006,22,female,True
478,79.0,25,F,down,0.434834799998498,0.6645151415207182,,experiment,emotion,1.0,,,,1371.7018422,1006,22,female,True
479,79.0,25,F,down,0.3835221000008459,1.046205879002773,,experiment,emotion,1.0,,,,1373.451794499997,1006,22,female,True
480,101.0,25,M,up,0.350114199998643,1.5437815534932864,,experiment,emotion,1.0,,,,1375.6683868999971,1006,22,female,True
481,90.0,25,M,up,0.592722599998524,0.5368095647972269,,experiment,emotion,1.0,,,,1376.8849980999985,1006,22,female,True
482,68.0,25,M,up,0.4855198000004748,1.2445562182042018,,experiment,emotion,1.0,,,,1379.0181864999977,1006,22,female,True
483,68.0,25,M,down,0.283534399997734,1.186327634638919,,experiment,emotion,1.0,,,,1380.9681864999984,1006,22,female,True
484,90.0,25,M,up,0.5692576000001281,0.9395317834259822,,experiment,emotion,1.0,,,,1382.601439099999,1006,22,female,True
485,101.0,25,F,down,0.3668474000005517,0.898516665815116,,experiment,emotion,1.0,,,,1384.3513901999977,1006,22,female,True
486,101.0,25,F,up,0.5737098999998125,0.7828290185743163,,experiment,emotion,1.0,,,,1385.8179872,1006,22,female,True
487,68.0,25,M,up,0.4548137999991013,1.757422184627836,,experiment,emotion,1.0,,,,1388.417888699998,1006,22,female,True
488,101.0,25,F,down,0.40021660000275,1.153111893660823,,experiment,emotion,1.0,,,,1390.3178297999984,1006,22,female,True
489,79.0,25,F,down,0.5533454999967944,1.626870571591375,,experiment,emotion,1.0,,,,1392.6343488999992,1006,22,female,True
490,90.0,25,F,up,0.5666927999991458,1.2876993612393146,,experiment,emotion,1.0,,,,1394.751004399997,1006,22,female,True
491,79.0,25,M,down,0.5244540999992751,1.7095963330120845,,experiment,emotion,1.0,,,,1397.2842488999995,1006,22,female,True
492,68.0,25,F,down,0.5408477999990282,1.543127499218037,,experiment,emotion,1.0,,,,1399.650827999998,1006,22,female,True
493,90.0,25,F,up,0.5022981999973126,1.0540272865383626,,experiment,emotion,1.0,,,,1401.517404299997,1006,22,female,True
494,79.0,25,F,down,0.6550482000020565,1.5110147411581647,,experiment,emotion,1.0,,,,1403.8006712999995,1006,22,female,True
495,90.0,25,M,up,0.5440699000027962,0.519023086833774,,experiment,emotion,1.0,,,,1405.2506243999997,1006,22,female,True
496,68.0,25,M,down,0.6595041000000492,1.2479381570381405,,experiment,emotion,1.0,,,,1407.317190499998,1006,22,female,True
497,101.0,25,F,up,0.2835138000009465,1.4361006488209869,,experiment,emotion,1.0,,,,1409.6837941999984,1006,22,female,True
498,90.0,25,M,down,0.333505899998272,1.262721286232039,,experiment,emotion,1.0,,,,1411.650376999998,1006,22,female,True
499,101.0,25,F,up,0.6603598999972746,1.4089874382725696,,experiment,emotion,1.0,,,,1413.7503192999975,1006,22,female,True
500,68.0,25,M,down,0.7714620000006107,1.1138044271102925,,experiment,emotion,1.0,,,,1415.8002323999972,1006,22,female,True
501,79.0,25,M,down,0.4703331000018806,0.5818115989328208,,experiment,emotion,1.0,,,,1417.4333684999983,1006,22,female,True
502,0.2337689926271638,25,up,up,0.4976734000010765,0.5085647807625842,,experiment,cRDM,2.0,,,,1448.5490135999971,1006,22,female,True
503,0.2337689926271638,25,up,down,0.3170973999986017,0.985991496184386,,experiment,cRDM,2.0,,,,1450.298934399998,1006,22,female,True
504,0.2337689926271638,25,down,down,0.4908089000018663,0.5175752492349774,,experiment,cRDM,2.0,,,,1451.4988803999986,1006,22,female,True
505,0.2337689926271638,25,down,up,0.2837794000006397,1.634047165679502,,experiment,cRDM,2.0,,,,1453.8988291999997,1006,22,female,True
506,0.2337689926271638,25,up,up,0.4896287999981723,1.6043123251761844,,experiment,cRDM,2.0,,,,1456.1820569999982,1006,22,female,True
507,0.2337689926271638,25,down,down,0.5780421000017668,1.7585331004818383,,experiment,cRDM,2.0,,,,1458.6986400999997,1006,22,female,True
508,0.2337689926271638,25,up,down,0.4451769000006607,1.8175290084490296,,experiment,cRDM,2.0,,,,1461.3485411,1006,22,female,True
509,0.2337689926271638,25,up,up,0.7815264000018942,1.7019376634397252,,experiment,cRDM,2.0,,,,1463.7651370999993,1006,22,female,True
510,0.2337689926271638,25,down,down,0.4179127999996126,0.8282387050649995,,experiment,cRDM,2.0,,,,1465.6317509,1006,22,female,True
511,0.2337689926271638,25,down,down,0.6820084999999381,0.7177435880255928,,experiment,cRDM,2.0,,,,1467.0316981999968,1006,22,female,True
512,0.2337689926271638,25,down,up,0.3171715999997104,0.7297028748388641,,experiment,cRDM,2.0,,,,1468.6982432999976,1006,22,female,True
513,0.2337689926271638,25,down,down,0.283798199998273,1.5009898693846693,,experiment,cRDM,2.0,,,,1470.8815332999984,1006,22,female,True
514,0.2337689926271638,25,down,down,0.5362593999998353,1.7266759736882398,,experiment,cRDM,2.0,,,,1473.2814521999971,1006,22,female,True
515,0.2337689926271638,25,down,up,0.4799659999989671,0.6863169660816199,,experiment,cRDM,2.0,,,,1474.7647074999986,1006,22,female,True
516,0.2337689926271638,25,up,up,0.4002846000003046,1.7694843138647969,,experiment,cRDM,2.0,,,,1477.2646091999995,1006,22,female,True
517,0.2337689926271638,25,up,up,0.4247775000003457,1.256734474427586,,experiment,cRDM,2.0,,,,1479.1978619999973,1006,22,female,True
518,0.2337689926271638,25,up,up,0.4768603000011353,0.9485377317150544,,experiment,cRDM,2.0,,,,1480.8478142999993,1006,22,female,True
519,0.2337689926271638,25,up,up,0.4166278999982751,0.908987605843425,,experiment,cRDM,2.0,,,,1482.4977642999984,1006,22,female,True
520,0.2337689926271638,25,down,down,0.4953488999999536,0.3948060364505533,,experiment,cRDM,2.0,,,,1483.5643597999988,1006,22,female,True
521,0.2337689926271638,25,up,up,0.4367296000018541,1.7567369024732815,,experiment,cRDM,2.0,,,,1486.080950399999,1006,22,female,True
522,0.2337689926271638,25,up,down,0.3504525999996986,0.4464248890709197,,experiment,cRDM,2.0,,,,1487.230942899998,1006,22,female,True
523,0.2337689926271638,25,down,up,0.4984960000001592,0.4589027454108427,,experiment,cRDM,2.0,,,,1488.3642134999973,1006,22,female,True
524,0.2337689926271638,25,up,down,0.3171551000014005,1.459519411023731,,experiment,cRDM,2.0,,,,1490.5807817999994,1006,22,female,True
525,0.2337689926271638,25,down,up,0.2671005000011064,0.8809483574574322,,experiment,cRDM,2.0,,,,1492.1474463999984,1006,22,female,True
526,0.2337689926271638,25,down,up,0.4939845000008063,1.144319503301948,,experiment,cRDM,2.0,,,,1493.9806898999996,1006,22,female,True
527,0.2337689926271638,25,up,up,0.4974277000001166,1.1159574907129044,,experiment,cRDM,2.0,,,,1495.8472514999994,1006,22,female,True
528,0.2337689926271638,25,up,down,0.3005259000019578,1.4143764030091837,,experiment,cRDM,2.0,,,,1498.0305617999984,1006,22,female,True
529,0.2337689926271638,25,down,up,0.3504329999996116,0.8093879759358837,,experiment,cRDM,2.0,,,,1499.5304952999977,1006,22,female,True
530,0.2337689926271638,25,up,up,0.3838230000001204,0.8581953902474266,,experiment,cRDM,2.0,,,,1501.0803964999975,1006,22,female,True
531,0.2337689926271638,25,down,down,0.4167895999999018,0.9431919212826104,,experiment,cRDM,2.0,,,,1502.6970096999976,1006,22,female,True
532,0.2337689926271638,25,down,down,0.4770963000009942,1.3305601354143963,,experiment,cRDM,2.0,,,,1504.713579799998,1006,22,female,True
533,0.2337689926271638,25,down,down,0.4591649999965739,1.7099998116643054,,experiment,cRDM,2.0,,,,1507.1635078,1006,22,female,True
534,0.2337689926271638,25,up,down,0.4675973000012163,1.5821188885708506,,experiment,cRDM,2.0,,,,1509.480083099999,1006,22,female,True
535,0.2337689926271638,25,up,up,0.4862930000017513,0.6527424563531905,,experiment,cRDM,2.0,,,,1510.863382399999,1006,22,female,True
536,0.2337689926271638,25,up,up,0.4168524999986402,0.6067280046622412,,experiment,cRDM,2.0,,,,1512.2299852999968,1006,22,female,True
537,0.2337689926271638,25,down,down,0.4491435999989335,1.8952222147264484,,experiment,cRDM,2.0,,,,1514.7965519999998,1006,22,female,True
538,0.2337689926271638,25,down,up,0.3671596000021964,1.5419548893674195,,experiment,cRDM,2.0,,,,1517.0465061999969,1006,22,female,True
539,0.2337689926271638,25,up,down,0.4906085000002349,0.4899751680919728,,experiment,cRDM,2.0,,,,1518.2130948999984,1006,22,female,True
540,0.2337689926271638,25,down,down,0.6506776999995054,0.747110272553883,,experiment,cRDM,2.0,,,,1519.7130443999995,1006,22,female,True
541,0.2337689926271638,25,up,up,0.421761300000071,1.1824489459472398,,experiment,cRDM,2.0,,,,1521.8129402999984,1006,22,female,True
542,0.2337689926271638,25,up,down,0.4204471000011835,1.6001031913160106,,experiment,cRDM,2.0,,,,1524.0962282999972,1006,22,female,True
543,0.2337689926271638,25,up,up,0.4462187999997695,1.5541233648816857,,experiment,cRDM,2.0,,,,1526.329437999997,1006,22,female,True
544,0.2337689926271638,25,down,down,0.3839010999981838,0.9878447412027084,,experiment,cRDM,2.0,,,,1528.0293141000002,1006,22,female,True
545,0.2337689926271638,25,down,up,0.4846189999989292,0.3915518757107314,,experiment,cRDM,2.0,,,,1529.0960285,1006,22,female,True
546,0.2337689926271638,25,up,up,0.5617273999996542,1.3438712485117676,,experiment,cRDM,2.0,,,,1531.1959463999992,1006,22,female,True
547,0.2337689926271638,25,down,down,0.5127490000013495,0.5705033315785213,,experiment,cRDM,2.0,,,,1532.5959027999995,1006,22,female,True
548,0.2337689926271638,25,down,down,0.4355214999995951,1.9974519818599537,,experiment,cRDM,2.0,,,,1535.3791502999993,1006,22,female,True
549,0.2337689926271638,25,up,down,0.4003344999982801,0.5492119776167051,,experiment,cRDM,2.0,,,,1536.6289560999976,1006,22,female,True
550,0.2337689926271638,25,up,up,0.5133934999976191,1.696252240321499,,experiment,cRDM,2.0,,,,1539.0123118999982,1006,22,female,True
551,0.2337689926271638,25,down,up,0.3838147000024037,1.127928616666206,,experiment,cRDM,2.0,,,,1540.9122682999987,1006,22,female,True
552,0.2337689926271638,25,up,down,0.3005137000000104,1.629834661978578,,experiment,cRDM,2.0,,,,1543.2121533999998,1006,22,female,True
553,0.2337689926271638,25,down,down,0.5165720000004512,1.026446525835895,,experiment,cRDM,2.0,,,,1544.9120922000002,1006,22,female,True
554,0.2337689926271638,25,down,up,0.4256602999994356,1.1309990929534552,,experiment,cRDM,2.0,,,,1546.812014199997,1006,22,female,True
555,0.2337689926271638,25,down,down,0.2840162000029522,1.125270142854844,,experiment,cRDM,2.0,,,,1548.6284435999987,1006,22,female,True
556,0.2337689926271638,25,up,up,0.4168083000004117,1.961589051769249,,experiment,cRDM,2.0,,,,1551.2618879999973,1006,22,female,True
557,0.2337689926271638,25,up,down,0.5498714999994263,1.4243602991876787,,experiment,cRDM,2.0,,,,1553.3617940999975,1006,22,female,True
558,0.2337689926271638,25,down,up,0.3005032000000938,0.7686880324762044,,experiment,cRDM,2.0,,,,1554.9450924999985,1006,22,female,True
559,0.2337689926271638,25,down,down,0.3171661999986099,0.8473476186818842,,experiment,cRDM,2.0,,,,1556.4616836999994,1006,22,female,True
560,0.2337689926271638,25,up,up,0.3174024999971152,1.1844459611036369,,experiment,cRDM,2.0,,,,1558.3280758,1006,22,female,True
561,0.2337689926271638,25,up,up,0.5518092999991495,1.888831228929603,,experiment,cRDM,2.0,,,,1560.894838799999,1006,22,female,True
562,0.2337689926271638,25,up,down,0.3338320999973803,1.0061008178351591,,experiment,cRDM,2.0,,,,1562.7114440999976,1006,22,female,True
563,0.2337689926271638,25,up,up,0.3504533000013907,1.8603065351132184,,experiment,cRDM,2.0,,,,1565.2613523,1006,22,female,True
564,0.2337689926271638,25,up,up,0.4879975000003469,0.498168037067861,,experiment,cRDM,2.0,,,,1566.444665199997,1006,22,female,True
565,0.2337689926271638,25,down,up,0.367313999999169,1.852060273964884,,experiment,cRDM,2.0,,,,1569.0445488999976,1006,22,female,True
566,0.2337689926271638,25,down,up,0.4900069999966945,0.3015792775589386,,experiment,cRDM,2.0,,,,1570.0276926999975,1006,22,female,True
567,0.2337689926271638,25,up,up,0.3671873999992385,1.8949043374706909,,experiment,cRDM,2.0,,,,1572.6777736999975,1006,22,female,True
568,0.2337689926271638,25,down,up,0.3338538999996672,0.4725757776994279,,experiment,cRDM,2.0,,,,1573.827662599997,1006,22,female,True
569,0.2337689926271638,25,down,down,0.3338266999999177,1.0303539896551754,,experiment,cRDM,2.0,,,,1575.544318799999,1006,22,female,True
570,0.2337689926271638,25,down,up,0.3505612000008113,1.6547394886061972,,experiment,cRDM,2.0,,,,1577.8775400999984,1006,22,female,True
571,0.2337689926271638,25,up,up,0.5685196999984328,1.5950136809400943,,experiment,cRDM,2.0,,,,1580.1441318999969,1006,22,female,True
572,0.2337689926271638,25,down,up,0.4586053000020911,1.125413578119533,,experiment,cRDM,2.0,,,,1582.094059199997,1006,22,female,True
573,0.2337689926271638,25,down,up,0.3671728999979677,0.7755301212456789,,experiment,cRDM,2.0,,,,1583.5773412999988,1006,22,female,True
574,0.2337689926271638,25,down,down,0.3837582999985898,0.4642524316082621,,experiment,cRDM,2.0,,,,1584.7106499999973,1006,22,female,True
575,0.2337689926271638,25,up,up,0.4228395000027376,1.7096138412897417,,experiment,cRDM,2.0,,,,1587.093861399997,1006,22,female,True
576,0.2337689926271638,25,up,up,0.5365326999999525,1.5879379900522856,,experiment,cRDM,2.0,,,,1589.3771245999997,1006,22,female,True
577,0.2337689926271638,25,down,down,0.3171492000001308,1.2102999753233106,,experiment,cRDM,2.0,,,,1591.393706499999,1006,22,female,True
578,0.2337689926271638,25,up,up,0.3335646000014094,1.040743574811832,,experiment,cRDM,2.0,,,,1593.110578099997,1006,22,female,True
579,0.2337689926271638,25,down,up,0.5837519000015163,1.982241970644632,,experiment,cRDM,2.0,,,,1595.7768985000002,1006,22,female,True
580,0.2337689926271638,25,up,up,0.4167741999990539,1.397337746074825,,experiment,cRDM,2.0,,,,1598.0268388999975,1006,22,female,True
581,0.2337689926271638,25,up,up,0.3338891000021249,0.6989557053799009,,experiment,cRDM,2.0,,,,1599.4100233999998,1006,22,female,True
582,101.0,25,M,up,0.3168433999999251,1.7888913394146857,,experiment,emotion,2.0,,,,1605.8765200999987,1006,22,female,True
583,68.0,25,M,down,0.4549135999986902,0.7285222690483296,,experiment,emotion,2.0,,,,1607.3097450999994,1006,22,female,True
584,90.0,25,F,up,0.4185776999984227,1.535983271361922,,experiment,emotion,2.0,,,,1609.5930350999988,1006,22,female,True
585,101.0,25,F,up,0.4284041999999317,1.0060455086417723,,experiment,emotion,2.0,,,,1611.2763191999984,1006,22,female,True
586,90.0,25,M,down,0.424019699999917,0.9826762480153686,,experiment,emotion,2.0,,,,1612.9596186999988,1006,22,female,True
587,79.0,25,F,down,0.4168164000002434,1.2633483274878343,,experiment,emotion,2.0,,,,1614.9428477999973,1006,22,female,True
588,68.0,25,M,down,0.4762306999982684,1.6271924808077782,,experiment,emotion,2.0,,,,1617.2594265999978,1006,22,female,True
589,79.0,25,M,down,0.491004100000282,1.4848656378739324,,experiment,emotion,2.0,,,,1619.4926747999998,1006,22,female,True
590,101.0,25,F,down,0.4001906000012241,0.6816581102489241,,experiment,emotion,2.0,,,,1620.925967799998,1006,22,female,True
591,79.0,25,F,up,0.5450703999995312,0.3296529839959348,,experiment,emotion,2.0,,,,1621.9425830999971,1006,22,female,True
592,90.0,25,F,down,0.3334872999985236,1.9589309154237409,,experiment,emotion,2.0,,,,1624.7258293999985,1006,22,female,True
593,101.0,25,F,up,0.383544799999072,1.884993088648402,,experiment,emotion,2.0,,,,1627.2923776999996,1006,22,female,True
594,90.0,25,F,down,0.4001643000010517,1.1709696866551005,,experiment,emotion,2.0,,,,1629.142348399997,1006,22,female,True
595,68.0,25,F,up,0.3335138000002189,1.231486236749732,,experiment,emotion,2.0,,,,1631.0755764999994,1006,22,female,True
596,79.0,25,M,down,0.3335391000000527,1.6680858842648487,,experiment,emotion,2.0,,,,1633.4421524999998,1006,22,female,True
597,68.0,25,M,down,0.3501342999988992,1.1508624237359748,,experiment,emotion,2.0,,,,1635.2587514999975,1006,22,female,True
598,101.0,25,M,down,0.4001693999998679,0.7395655535418775,,experiment,emotion,2.0,,,,1636.692031299997,1006,22,female,True
599,68.0,25,M,up,0.438067899998714,1.2326248076140245,,experiment,emotion,2.0,,,,1638.6086134999969,1006,22,female,True
600,90.0,25,F,down,0.3337146000012581,1.9899306495603155,,experiment,emotion,2.0,,,,1641.3083443999967,1006,22,female,True
601,90.0,25,M,up,0.3001773000032699,1.5207669139723932,,experiment,emotion,2.0,,,,1643.5251310999993,1006,22,female,True
602,79.0,25,M,down,0.515310299997509,1.893525248730935,,experiment,emotion,2.0,,,,1646.1083542999986,1006,22,female,True
603,79.0,25,F,down,0.4367203999972844,1.4817550358899712,,experiment,emotion,2.0,,,,1648.3749341000002,1006,22,female,True
604,68.0,25,M,up,0.400165899998683,1.4395027173075283,,experiment,emotion,2.0,,,,1650.5247899999997,1006,22,female,True
605,101.0,25,F,down,0.3668324999998731,1.1783244416522196,,experiment,emotion,2.0,,,,1652.3914619999996,1006,22,female,True
606,90.0,25,F,up,0.4560596999981499,1.4225782981359971,,experiment,emotion,2.0,,,,1654.524587699998,1006,22,female,True
607,68.0,25,M,up,0.3668176999999559,1.2195148330333276,,experiment,emotion,2.0,,,,1656.4746629999972,1006,22,female,True
608,101.0,25,M,down,0.3834814000001643,1.2883703920075018,,experiment,emotion,2.0,,,,1658.4412515999977,1006,22,female,True
609,101.0,25,F,up,0.4674648000000161,1.76260977014017,,experiment,emotion,2.0,,,,1660.8911630999974,1006,22,female,True
610,79.0,25,M,up,0.4001547999978356,0.9557230691249858,,experiment,emotion,2.0,,,,1662.5744287999987,1006,22,female,True
611,68.0,25,F,down,0.3502016000020376,1.8317430495855556,,experiment,emotion,2.0,,,,1665.0909665,1006,22,female,True
612,79.0,25,F,up,0.6422144000025582,1.7341947156441844,,experiment,emotion,2.0,,,,1667.5074307999969,1006,22,female,True
613,90.0,25,F,down,0.4668302999998559,0.5014192230532997,,experiment,emotion,2.0,,,,1668.9408695999991,1006,22,female,True
614,68.0,25,M,up,0.2834991999989142,0.6086493077606778,,experiment,emotion,2.0,,,,1670.290801199997,1006,22,female,True
615,101.0,25,M,down,0.316950899999938,0.842086519664428,,experiment,emotion,2.0,,,,1671.823972299997,1006,22,female,True
616,90.0,25,M,down,0.4606573000019125,0.366722281135477,,experiment,emotion,2.0,,,,1672.8740402999974,1006,22,female,True
617,101.0,25,F,up,0.4001943999974173,1.2711156141324211,,experiment,emotion,2.0,,,,1674.873963099999,1006,22,female,True
618,68.0,25,F,down,0.5964613000032841,0.5439001284876785,,experiment,emotion,2.0,,,,1676.107250699999,1006,22,female,True
619,90.0,25,M,up,0.4455794999994396,1.8292603118834785,,experiment,emotion,2.0,,,,1678.8071249999994,1006,22,female,True
620,79.0,25,F,up,0.4441584999985934,0.9695214546833264,,experiment,emotion,2.0,,,,1680.490430299997,1006,22,female,True
621,79.0,25,M,up,0.4866660000006959,1.0453768853293506,,experiment,emotion,2.0,,,,1682.2570105999985,1006,22,female,True
622,90.0,25,M,down,0.497368299998925,0.3202042511817539,,experiment,emotion,2.0,,,,1683.3403111999978,1006,22,female,True
623,101.0,25,M,up,0.7667828000012378,0.8490189376168154,,experiment,emotion,2.0,,,,1684.956901999998,1006,22,female,True
624,79.0,25,F,down,0.6158356999985699,1.6670804006902566,,experiment,emotion,2.0,,,,1687.6568171,1006,22,female,True
625,68.0,25,F,down,0.6401927000006253,0.3179674030047274,,experiment,emotion,2.0,,,,1688.8734429999968,1006,22,female,True
626,68.0,25,M,down,0.2835245999995095,1.7864980095149503,,experiment,emotion,2.0,,,,1691.5733419999997,1006,22,female,True
627,79.0,25,F,down,0.4001795000003767,0.4853121225333501,,experiment,emotion,2.0,,,,1692.7566580999992,1006,22,female,True
628,101.0,25,F,down,0.8080289999998058,0.8067118885150708,,experiment,emotion,2.0,,,,1694.2565996999983,1006,22,female,True
629,90.0,25,M,down,0.4170559000012872,1.5704859149240893,,experiment,emotion,2.0,,,,1696.889809199998,1006,22,female,True
630,68.0,25,M,down,0.4922049999986484,0.6698119013630428,,experiment,emotion,2.0,,,,1698.2564224999987,1006,22,female,True
631,101.0,25,F,down,0.4168387999998231,1.3331607615990493,,experiment,emotion,2.0,,,,1700.3396811999992,1006,22,female,True
632,90.0,25,M,down,0.5100361000004341,1.2752986785735545,,experiment,emotion,2.0,,,,1702.2896763999995,1006,22,female,True
633,90.0,25,F,down,0.4994516000006115,1.1204688653736343,,experiment,emotion,2.0,,,,1704.2062012999995,1006,22,female,True
634,68.0,25,F,down,0.5760052000005089,1.0463766673627872,,experiment,emotion,2.0,,,,1706.0226688000002,1006,22,female,True
635,79.0,25,F,up,0.3168304999999236,1.579366930509534,,experiment,emotion,2.0,,,,1708.4560595000005,1006,22,female,True
636,101.0,25,M,down,0.3668593000002147,1.16800399805337,,experiment,emotion,2.0,,,,1710.305963699997,1006,22,female,True
637,79.0,25,M,up,0.5020795000018552,1.5760372741904654,,experiment,emotion,2.0,,,,1712.5725575999968,1006,22,female,True
638,79.0,25,F,down,0.2501263999984076,1.7031340360320577,,experiment,emotion,2.0,,,,1715.0558136,1006,22,female,True
639,79.0,25,F,up,0.4385099999999511,0.3535788280980692,,experiment,emotion,2.0,,,,1716.089087299999,1006,22,female,True
640,101.0,25,M,down,0.4003535999981977,0.5579750267748722,,experiment,emotion,2.0,,,,1717.355711199998,1006,22,female,True
641,90.0,25,M,down,0.4351988000016717,0.447055429692243,,experiment,emotion,2.0,,,,1718.505502,1006,22,female,True
642,68.0,25,M,,,1.5675126555133618,,experiment,emotion,2.0,,,,1720.788920199997,1006,22,female,True
643,68.0,25,M,,,1.6582505451146068,,experiment,emotion,2.0,,,,1725.1387692999997,1006,22,female,True
644,90.0,25,M,up,0.4968537999993714,1.104739045520619,,experiment,emotion,2.0,,,,1728.9217653999983,1006,22,female,True
645,101.0,25,F,down,0.366825000000972,0.9714133120683586,,experiment,emotion,2.0,,,,1730.6718925999994,1006,22,female,True
646,101.0,25,F,up,0.3002091000016662,1.839271969195086,,experiment,emotion,2.0,,,,1733.205099499999,1006,22,female,True
647,68.0,25,M,up,0.5805968999993638,0.8067665262000787,,experiment,emotion,2.0,,,,1734.7050604999968,1006,22,female,True
648,101.0,25,F,up,0.3335496999970928,1.2389723296364663,,experiment,emotion,2.0,,,,1736.804983799997,1006,22,female,True
649,79.0,25,F,down,0.2835500000001048,0.6060171243177637,,experiment,emotion,2.0,,,,1738.1215577999974,1006,22,female,True
650,90.0,25,F,up,0.3168496999969648,1.7062944661995705,,experiment,emotion,2.0,,,,1740.5382052999994,1006,22,female,True
651,79.0,25,M,down,0.6899352000000363,1.098797943793824,,experiment,emotion,2.0,,,,1742.3046958999985,1006,22,female,True
652,68.0,25,F,down,0.3835302999978012,0.7588496246298411,,experiment,emotion,2.0,,,,1744.021399899997,1006,22,female,True
653,90.0,25,F,down,0.4001762999978382,1.5316222623965483,,experiment,emotion,2.0,,,,1746.2379746999975,1006,22,female,True
654,79.0,25,F,down,0.2834913999977289,1.3538593453454717,,experiment,emotion,2.0,,,,1748.2878926999983,1006,22,female,True
655,90.0,25,M,down,0.5768355000000156,1.7571466964574145,,experiment,emotion,2.0,,,,1750.7377992999973,1006,22,female,True
656,68.0,25,M,down,0.4369346000021323,0.5994850749181413,,experiment,emotion,2.0,,,,1752.187730499998,1006,22,female,True
657,101.0,25,F,down,0.5279517999988457,0.7826444422784241,,experiment,emotion,2.0,,,,1753.687700399998,1006,22,female,True
658,90.0,25,M,down,0.4896857999992789,0.4724030183097168,,experiment,emotion,2.0,,,,1754.9709752999988,1006,22,female,True
659,101.0,25,F,up,0.3502211000013631,0.7952831109155816,,experiment,emotion,2.0,,,,1756.537588299998,1006,22,female,True
660,68.0,25,M,down,0.6627911000032327,1.5846230211448724,,experiment,emotion,2.0,,,,1758.820840999997,1006,22,female,True
661,79.0,25,M,down,0.5346132999984547,0.7456454644038005,,experiment,emotion,2.0,,,,1760.504020299999,1006,22,female,True
662,0.2337689926271638,25,up,up,0.4002664999970875,1.868500958815348,,experiment,cRDM,3.0,,,,1796.336128699997,1006,22,female,True
663,0.2337689926271638,25,up,down,0.5452109999969252,1.5005163718662546,,experiment,cRDM,3.0,,,,1798.5194075,1006,22,female,True
664,0.2337689926271638,25,down,up,0.3171712000003026,1.5365414249877405,,experiment,cRDM,3.0,,,,1800.8692839999967,1006,22,female,True
665,0.2337689926271638,25,down,down,0.4002763999997114,1.3967724126474277,,experiment,cRDM,3.0,,,,1802.9525441999976,1006,22,female,True
666,0.2337689926271638,25,up,down,0.5178838000028918,1.5486904796031769,,experiment,cRDM,3.0,,,,1805.185772599998,1006,22,female,True
667,0.2337689926271638,25,down,down,0.6219089000005624,0.4249383582540541,,experiment,cRDM,3.0,,,,1806.385731399998,1006,22,female,True
668,0.2337689926271638,25,up,up,0.4349766999985149,1.228012338720908,,experiment,cRDM,3.0,,,,1808.4856660999976,1006,22,female,True
669,0.2337689926271638,25,up,down,0.5206949999992503,1.7284020464312784,,experiment,cRDM,3.0,,,,1810.9189530999972,1006,22,female,True
670,0.2337689926271638,25,down,down,0.5014331999991555,0.8499428416477153,,experiment,cRDM,3.0,,,,1812.5521843999995,1006,22,female,True
671,0.2337689926271638,25,down,up,0.5265295999997761,0.8713844778589797,,experiment,cRDM,3.0,,,,1814.202063599998,1006,22,female,True
672,0.2337689926271638,25,down,up,0.4168150000004971,0.468284777315316,,experiment,cRDM,3.0,,,,1815.468745299997,1006,22,female,True
673,0.2337689926271638,25,down,down,0.3504496999994444,0.9774745336136534,,experiment,cRDM,3.0,,,,1817.118730999999,1006,22,female,True
674,0.2337689926271638,25,down,up,0.2670605999992403,1.7292768803469147,,experiment,cRDM,3.0,,,,1819.5352865999996,1006,22,female,True
675,0.2337689926271638,25,down,down,0.2338954000006197,1.4838362225394972,,experiment,cRDM,3.0,,,,1821.7017952999995,1006,22,female,True
676,0.2337689926271638,25,up,up,0.2838420999978552,1.5915122554776076,,experiment,cRDM,3.0,,,,1823.9850826999973,1006,22,female,True
677,0.2337689926271638,25,up,down,0.3838460000006307,0.9398147152572394,,experiment,cRDM,3.0,,,,1825.5850223999987,1006,22,female,True
678,0.2337689926271638,25,up,up,0.5079540000006091,1.5401934162596005,,experiment,cRDM,3.0,,,,1827.801661999998,1006,22,female,True
679,0.2337689926271638,25,up,down,0.3671982000014395,1.0884208018648005,,experiment,cRDM,3.0,,,,1829.6515500999997,1006,22,female,True
680,0.2337689926271638,25,down,down,0.6210690999978397,0.3720682943583036,,experiment,cRDM,3.0,,,,1830.701540799997,1006,22,female,True
681,0.2337689926271638,25,up,up,0.3673600000001897,1.8077963892303663,,experiment,cRDM,3.0,,,,1833.4012527999985,1006,22,female,True
682,0.2337689926271638,25,up,up,0.4773217999972985,1.026545495456353,,experiment,cRDM,3.0,,,,1835.1012895999995,1006,22,female,True
683,0.2337689926271638,25,down,up,0.3671661000007589,1.1898617599394086,,experiment,cRDM,3.0,,,,1837.034618799997,1006,22,female,True
684,0.2337689926271638,25,up,down,0.3173029999998107,1.4013234176844556,,experiment,cRDM,3.0,,,,1839.1010848999977,1006,22,female,True
685,0.2337689926271638,25,down,up,0.3671275000015157,1.6130814614616635,,experiment,cRDM,3.0,,,,1841.4011518999976,1006,22,female,True
686,0.2337689926271638,25,down,down,0.5138699999988603,0.6326558832281842,,experiment,cRDM,3.0,,,,1842.7177405,1006,22,female,True
687,0.2337689926271638,25,up,up,0.5795737000007648,0.9657949020919984,,experiment,cRDM,3.0,,,,1844.4510364999987,1006,22,female,True
688,0.2337689926271638,25,up,up,0.4398099999998521,1.5045091530071042,,experiment,cRDM,3.0,,,,1846.800858399998,1006,22,female,True
689,0.2337689926271638,25,down,down,0.3671783000027062,0.9798224276893556,,experiment,cRDM,3.0,,,,1848.4841727999992,1006,22,female,True
690,0.2337689926271638,25,up,up,0.383725299998332,0.9509843013817476,,experiment,cRDM,3.0,,,,1850.1174952,1006,22,female,True
691,0.2337689926271638,25,down,down,0.4262362000008579,1.976116719656767,,experiment,cRDM,3.0,,,,1852.767366299999,1006,22,female,True
692,0.2337689926271638,25,down,up,0.4002699000011489,0.8680222871495666,,experiment,cRDM,3.0,,,,1854.3173377999992,1006,22,female,True
693,0.2337689926271638,25,down,down,0.4570493999999598,0.555006789383464,,experiment,cRDM,3.0,,,,1855.550593,1006,22,female,True
694,0.2337689926271638,25,up,up,0.4003123000002233,0.5164192202372639,,experiment,cRDM,3.0,,,,1856.783837699997,1006,22,female,True
695,0.2337689926271638,25,up,up,0.4527954000004683,0.6569658393043036,,experiment,cRDM,3.0,,,,1858.1338464999967,1006,22,female,True
696,0.2337689926271638,25,up,up,0.4564749000019219,1.0717385345950254,,experiment,cRDM,3.0,,,,1859.9171347999984,1006,22,female,True
697,0.2337689926271638,25,down,down,0.3671606999996584,0.6305047885984294,,experiment,cRDM,3.0,,,,1861.2670481999996,1006,22,female,True
698,0.2337689926271638,25,down,up,0.2671004999974684,1.0147331144013283,,experiment,cRDM,3.0,,,,1862.9670326999983,1006,22,female,True
699,0.2337689926271638,25,up,up,0.5073349000012968,1.890786901468899,,experiment,cRDM,3.0,,,,1865.550250199998,1006,22,female,True
700,0.2337689926271638,25,down,down,0.7587238000014622,0.8951515545456992,,experiment,cRDM,3.0,,,,1867.2168623,1006,22,female,True
701,0.2337689926271638,25,up,up,0.4002763999997114,1.5023038201754126,,experiment,cRDM,3.0,,,,1869.750067099998,1006,22,female,True
702,0.2337689926271638,25,up,up,0.5946648999997706,1.817180785744356,,experiment,cRDM,3.0,,,,1872.2499672999984,1006,22,female,True
703,0.2337689926271638,25,up,up,0.3671480999983032,0.4560601826401282,,experiment,cRDM,3.0,,,,1873.5666002,1006,22,female,True
704,0.2337689926271638,25,down,down,0.6253789000002143,0.3900385056838024,,experiment,cRDM,3.0,,,,1874.633219899999,1006,22,female,True
705,0.2337689926271638,25,down,up,0.7021077999997942,1.7976537091792302,,experiment,cRDM,3.0,,,,1877.316476999997,1006,22,female,True
706,0.2337689926271638,25,up,down,0.2505187999995542,1.6102450390734262,,experiment,cRDM,3.0,,,,1879.8996656999989,1006,22,female,True
707,0.2337689926271638,25,down,down,0.5333728000005067,1.3963411883472845,,experiment,cRDM,3.0,,,,1881.966281699999,1006,22,female,True
708,0.2337689926271638,25,down,up,0.4166046999998798,1.0208205088426594,,experiment,cRDM,3.0,,,,1883.7828711,1006,22,female,True
709,0.2337689926271638,25,up,down,0.3671847000005073,1.4131686261530283,,experiment,cRDM,3.0,,,,1885.8827872999973,1006,22,female,True
710,0.2337689926271638,25,up,down,0.6541714999984833,0.4546353716756767,,experiment,cRDM,3.0,,,,1886.999431999997,1006,22,female,True
711,0.2337689926271638,25,down,down,0.596284300001571,1.0760182542193617,,experiment,cRDM,3.0,,,,1888.9993379999976,1006,22,female,True
712,0.2337689926271638,25,up,up,0.4257312000008824,1.8558863904407612,,experiment,cRDM,3.0,,,,1891.7158955999985,1006,22,female,True
713,0.2337689926271638,25,down,up,0.3838154000004579,0.5470173837320501,,experiment,cRDM,3.0,,,,1892.9658851999995,1006,22,female,True
714,0.2337689926271638,25,down,down,0.3670083999968483,1.009129079811309,,experiment,cRDM,3.0,,,,1894.6491395999983,1006,22,female,True
715,0.2337689926271638,25,down,down,0.455551999999443,1.9750942055356648,,experiment,cRDM,3.0,,,,1897.2990629999983,1006,22,female,True
716,0.2337689926271638,25,up,down,0.3005077999987406,1.7955222786719776,,experiment,cRDM,3.0,,,,1899.8154985,1006,22,female,True
717,0.2337689926271638,25,up,up,0.41667679999955,1.5046747781258951,,experiment,cRDM,3.0,,,,1901.9988736999985,1006,22,female,True
718,0.2337689926271638,25,down,up,0.3672048000007635,0.6566696188495522,,experiment,cRDM,3.0,,,,1903.3321527999976,1006,22,female,True
719,0.2337689926271638,25,down,up,0.333806700000423,1.706416052369315,,experiment,cRDM,3.0,,,,1905.7320774,1006,22,female,True
720,0.2337689926271638,25,up,up,0.4990344999969238,0.3715992205135071,,experiment,cRDM,3.0,,,,1906.7985892,1006,22,female,True
721,0.2337689926271638,25,up,down,0.3006223999982467,1.493184060677263,,experiment,cRDM,3.0,,,,1909.0487018999995,1006,22,female,True
722,0.2337689926271638,25,up,up,0.4317790999994031,0.955959653341386,,experiment,cRDM,3.0,,,,1910.681881999997,1006,22,female,True
723,0.2337689926271638,25,up,up,0.3671257000023615,1.7971215919148271,,experiment,cRDM,3.0,,,,1913.1818105999992,1006,22,female,True
