,stimLvl,stimTime,rand,response,rt,precedingITI,trialNumber,trialType,stimuli,block,estIntens,estThres,estSlope,trialStart,subject,age,gender,headRest
0,0.9,100,down,,,1.5597824414799992,,introTrial,cRDM,,,,,193.5377634000033,94,48,male,True
1,150.0,100,F,,,0.9120970991667532,,introTrial,emotion,,,,,198.38760479993653,94,48,male,True
2,0.9,25,up,up,0.5553811000427231,1.1172918808059982,,tutorial,cRDM,,,,,218.50351109995967,94,48,male,True
3,0.9,25,up,up,0.7147308000130579,0.4903698988967878,,tutorial,cRDM,,,,,219.8201132999966,94,48,male,True
4,0.9,25,down,down,0.7254841000540182,1.517345794433891,,tutorial,cRDM,,,,,222.35333069995977,94,48,male,True
5,0.9,25,down,down,0.505236400058493,1.1853174830471416,,tutorial,cRDM,,,,,224.53659479995255,94,48,male,True
6,0.9,25,down,down,0.5190174999879673,1.9517900877841872,,tutorial,cRDM,,,,,227.2698215999408,94,48,male,True
7,0.9,25,down,down,0.4514659000560641,1.6741361496566247,,tutorial,cRDM,,,,,229.73638909996956,94,48,male,True
8,0.9,25,up,up,0.480489999987185,1.0214169533907185,,tutorial,cRDM,,,,,231.4863299999852,94,48,male,True
9,0.9,25,up,up,0.5005262000486255,1.0010119335582786,,tutorial,cRDM,,,,,233.23628599999935,94,48,male,True
10,0.9,25,down,down,0.5150418999837711,1.6781290466201302,,tutorial,cRDM,,,,,235.70285090000837,94,48,male,True
11,0.9,25,up,up,0.595040199928917,0.9942730235563362,,tutorial,cRDM,,,,,237.50278530002103,94,48,male,True
12,200.0,25,M,up,1.1740575999720022,1.4845004969585598,,tutorial,emotion,,,,,246.08580250001975,94,48,male,True
13,200.0,25,M,up,0.7907498000422493,1.5395658105594496,,tutorial,emotion,,,,,249.06906090001576,94,48,male,True
14,200.0,25,F,up,0.8064316000090912,0.6784607815432999,,tutorial,emotion,,,,,250.8023594999686,94,48,male,True
15,0.0,25,F,down,0.5365204000845551,1.2508747427339078,,tutorial,emotion,,,,,253.15228779998145,94,48,male,True
16,0.0,25,M,down,0.7328671999275684,0.5150965020458688,,tutorial,emotion,,,,,254.48595819994807,94,48,male,True
17,200.0,25,F,up,0.9086853000335396,0.4027440243676115,,tutorial,emotion,,,,,255.90215009998064,94,48,male,True
18,0.0,25,M,down,0.5987273000646383,0.6598557023907199,,tutorial,emotion,,,,,257.75210429995786,94,48,male,True
19,200.0,25,M,up,0.9597733999835328,0.3660812606999776,,tutorial,emotion,,,,,259.0020678000292,94,48,male,True
20,0.0,25,F,down,0.6578054000856355,0.747940648097323,,tutorial,emotion,,,,,261.0019988999702,94,48,male,True
21,0.0,25,F,down,0.7416378000052646,0.9589080086790768,,tutorial,emotion,,,,,262.88521099998616,94,48,male,True
22,0.29,25,up,up,0.6261328000109643,1.0496704323310182,,psi_staircase_training,cRDM,,0.25,0.2569312402994632,0.105,267.2017114999471,94,48,male,True
23,0.25,25,up,up,0.4959064000286162,1.1884513737040807,,psi_staircase_training,cRDM,,0.2191026665318312,0.2260132002683492,0.1046863203387393,269.28496339998674,94,48,male,True
24,0.21,25,down,up,1.146683499915525,1.005415770827501,,psi_staircase_training,cRDM,,0.1900540959403307,0.1968497961554001,0.1029467298424999,271.0681947999401,94,48,male,True
25,0.32,25,down,down,0.5663784000789747,1.8153070672037943,,psi_staircase_training,cRDM,,0.2819387795981387,0.2893209636160949,0.1118312579561586,274.30145719996653,94,48,male,True
26,0.29,25,up,up,0.6115227000555024,1.9962580119370763,,psi_staircase_training,cRDM,,0.259426876942127,0.2667634756990502,0.1111406957765679,277.151290699956,94,48,male,True
27,0.27,25,down,down,0.5298378000734374,1.486062229853142,,psi_staircase_training,cRDM,,0.238671950950526,0.2458822432686334,0.109227304305105,279.51797689998057,94,48,male,True
28,0.26,25,up,up,0.5699756001122296,1.1439091437448687,,psi_staircase_training,cRDM,,0.2201157802488951,0.2271739015591714,0.1069220955499697,281.4678103999468,94,48,male,True
29,0.24,25,down,down,0.5431164000183344,1.3456207864682128,,psi_staircase_training,cRDM,,0.2041505375414391,0.2110301411817813,0.1042177663775234,283.66773109999485,94,48,male,True
30,0.2,25,down,down,0.5321676998864859,0.5768456506784638,,psi_staircase_training,cRDM,,0.1888644554418269,0.1957080400193487,0.103672120658612,285.06769069994334,94,48,male,True
31,0.2,25,up,up,0.5782347000204027,1.0025505916517428,,psi_staircase_training,cRDM,,0.1705557926382123,0.1778497321889761,0.1104944598284255,286.86760859994683,94,48,male,True
32,0.19,25,down,down,0.7869334999704733,1.9390615984984436,,psi_staircase_training,cRDM,,0.1533088738836659,0.1608834185373759,0.1147452915030432,289.65086729999166,94,48,male,True
33,0.18,25,down,down,1.0270807000342757,1.8437941560346984,,psi_staircase_training,cRDM,,0.1374714623748278,0.1451964942842611,0.117024993427699,292.5507547999732,94,48,male,True
34,0.16,25,down,down,0.4967595000052824,0.4813820932814657,,psi_staircase_training,cRDM,,0.1235084939531084,0.1312501447469713,0.1172767496487679,294.3340467999224,94,48,male,True
35,0.13,25,up,up,0.5271575999213383,0.9392675593630672,,psi_staircase_training,cRDM,,0.1110023859076282,0.118670920211633,0.1161691222828988,296.0506264999276,94,48,male,True
36,0.12,25,up,up,0.9509377999929712,1.2433845389306548,,psi_staircase_training,cRDM,,0.0993215339274039,0.1068870608191187,0.1146086831950661,298.08388980000746,94,48,male,True
37,0.1,25,down,down,0.4833385000238195,0.435762624901442,,psi_staircase_training,cRDM,,0.0889935160566675,0.0963751342423017,0.1118226862732792,299.7674754000036,94,48,male,True
38,0.09,25,down,down,0.6207540999166667,1.8786558479882007,,psi_staircase_training,cRDM,,0.079501687020564,0.0866803833078727,0.1087486622308825,302.4170630000299,94,48,male,True
39,0.08,25,up,up,0.5281507999170572,1.216290073504508,,psi_staircase_training,cRDM,,0.0709846615411752,0.0779049677352769,0.1048343613821824,304.5336584999459,94,48,male,True
40,0.07,25,up,up,0.6899068000493571,1.090350602000644,,psi_staircase_training,cRDM,,0.0633140683813938,0.0699351610971197,0.1003016350774975,306.4169154999545,94,48,male,True
41,0.06,25,up,up,0.4583340999670326,1.6387861364908778,,psi_staircase_training,cRDM,,0.0563557103608456,0.0626530631417854,0.0953973622945771,309.03345889993943,94,48,male,True
42,0.06,25,up,up,0.6023829999612644,1.9088733604572088,,psi_staircase_training,cRDM,,0.0499909197344644,0.055956241572985,0.0903674906629873,311.68342240003403,94,48,male,True
43,0.05,25,down,down,0.8661928999936208,1.0626049660097237,,psi_staircase_training,cRDM,,0.0444424407822568,0.0499900777156622,0.0840400639482492,313.6166433999315,94,48,male,True
44,0.04,25,down,down,0.6989432999398559,1.77697892246428,,psi_staircase_training,cRDM,,0.0393233156100285,0.0444828503949772,0.0781607806126064,316.5498633999377,94,48,male,True
45,0.04,25,down,up,0.8753250000299886,0.3251808257285334,,psi_staircase_training,cRDM,,0.0345496959802375,0.0393756047440681,0.0731067454466184,317.8664871000219,94,48,male,True
46,0.08,25,up,down,0.9811402999330312,1.8362522837396755,,psi_staircase_training,cRDM,,0.0523419747452153,0.0588716346311286,0.0989165370697065,320.84970110002905,94,48,male,True
47,0.11,25,up,up,0.8294682999840006,0.3000766234516911,,psi_staircase_training,cRDM,,0.07075756420852,0.0797166850082921,0.1357199640083048,322.41633839998394,94,48,male,True
48,0.11,25,down,up,0.7047361999284476,0.3464450905957132,,psi_staircase_training,cRDM,,0.0657997259888884,0.0745697779518237,0.1328557972776545,323.8662625999423,94,48,male,True
49,0.16,25,down,down,0.7966582999797538,1.675240222638985,,psi_staircase_training,cRDM,,0.0841649348689316,0.0939221127800846,0.1478095746803636,326.51616200001445,94,48,male,True
50,0.15,25,up,down,0.937313900096342,0.7124947258687371,,psi_staircase_training,cRDM,,0.0792510730461295,0.0888997298923587,0.1461656103500719,328.2994541999651,94,48,male,True
51,0.19,25,up,up,0.6735018999315798,1.4412025048472372,,psi_staircase_training,cRDM,,0.1006938518770101,0.1109198460608926,0.1549115804556378,330.94933839992154,94,48,male,True
52,100.0,25,M,up,1.1122027999954298,0.3534123041803595,,psi_staircase_training,emotion,,100.0,100.0,25.00050000000001,334.93259700003546,94,48,male,True
53,55.0,25,M,down,0.6930080000311136,1.178838955929993,,psi_staircase_training,emotion,,54.7428094675419,54.7428094675419,25.00050000000011,337.5658305999823,94,48,male,True
54,79.0,25,F,down,0.7254101999569684,1.600576222185646,,psi_staircase_training,emotion,,79.636070985635,79.636070985635,25.713269254886413,340.23242559994105,94,48,male,True
55,103.0,25,F,up,1.1278697999659926,0.7457642597590036,,psi_staircase_training,emotion,,97.61123893914808,97.61123893914808,26.1463337262867,342.04902379994746,94,48,male,True
56,87.0,25,M,up,1.0532546000322327,1.1920775706408702,,psi_staircase_training,emotion,,85.98876744579668,85.98876744579668,23.003056417783498,344.71558199997526,94,48,male,True
57,73.0,25,F,down,0.8176372000016272,1.007296270869831,,psi_staircase_training,emotion,,76.84494728761523,76.84494728761523,23.862671666125223,347.1321643999545,94,48,male,True
58,83.0,25,M,up,0.9671928000170738,1.1843297898995515,,psi_staircase_training,emotion,,83.27335240078496,83.27335240078496,20.612160618333935,349.4987425999716,94,48,male,True
59,72.0,25,F,up,1.73947680008132,0.3515842830552742,,psi_staircase_training,emotion,,77.76901308559849,77.76901308559849,20.83216394857253,351.1653270999668,94,48,male,True
60,56.0,25,F,down,0.8252602000720799,0.986910297409008,,psi_staircase_training,emotion,,70.08415515618913,70.08415515618913,27.886300857516623,354.24855869996827,94,48,male,True
61,59.0,25,M,down,1.0199308999581262,0.417441861935816,,psi_staircase_training,emotion,,73.86414802484896,73.86414802484896,25.4782771527402,355.8318635999458,94,48,male,True
62,92.0,25,F,down,0.972789500025101,1.3714814100677093,,psi_staircase_training,emotion,,76.48526014212328,76.48526014212328,23.357545741462378,358.56505039997865,94,48,male,True
63,104.0,25,F,down,0.9598197999875993,1.227608691121526,,psi_staircase_training,emotion,,82.52956448994533,82.52956448994533,29.51786672859175,361.1149765999289,94,48,male,True
64,113.0,25,F,down,1.1602686999831349,1.1426997860826291,,psi_staircase_training,emotion,,89.43410238982014,89.43410238982014,34.57136147338633,363.5815555999288,94,48,male,True
65,119.0,25,M,up,0.6626441000262275,0.3457809963284942,,psi_staircase_training,emotion,,96.44861392771648,96.44861392771648,37.92436345002372,365.44815139996354,94,48,male,True
66,118.0,25,M,down,1.0511373999761418,1.8005475956508017,,psi_staircase_training,emotion,,93.83371572919322,93.83371572919322,37.08277032305514,368.2646802000236,94,48,male,True
67,122.0,25,F,down,0.705809099948965,1.083011264451167,,psi_staircase_training,emotion,,99.92883629512602,99.92883629512602,39.3334611882954,370.747941599926,94,48,male,True
68,126.0,25,F,down,1.0679484999272972,1.6576522475609312,,psi_staircase_training,emotion,,105.62774426552711,105.62774426552711,40.86986044103842,373.46485829993617,94,48,male,True
69,129.0,25,M,up,0.6826685999985784,0.7347631505457421,,psi_staircase_training,emotion,,110.99989444168484,110.99989444168484,42.01285934825675,375.63112679996993,94,48,male,True
70,128.0,25,M,down,0.82480659999419,1.3094262591350756,,psi_staircase_training,emotion,,108.41607545961722,108.41607545961722,41.5705699057065,377.9810310000321,94,48,male,True
71,131.0,25,M,up,0.9985132999718188,0.8552473228797797,,psi_staircase_training,emotion,,113.13508762220034,113.13508762220034,42.46275463435773,380.014294099994,94,48,male,True
72,129.0,25,M,up,0.9482268000720068,0.6462219047166866,,psi_staircase_training,emotion,,110.81033041253896,110.81033041253896,42.08926681302352,381.9975494999672,94,48,male,True
73,128.0,25,F,up,0.7203625999391079,1.600973654628661,,psi_staircase_training,emotion,,108.68646754092018,108.68646754092018,41.73010306042805,384.8974503999343,94,48,male,True
74,126.0,25,F,up,0.6684401000384241,0.740701558764555,,psi_staircase_training,emotion,,106.76491139229223,106.76491139229223,41.38184919200719,386.6973726999713,94,48,male,True
75,125.0,25,F,up,0.6096461999695748,0.3303617034481754,,psi_staircase_training,emotion,,104.96965228270544,104.96965228270544,41.05053392084751,388.0473085999256,94,48,male,True
76,80.0,25,M,down,0.6278825999470428,1.30958272646254,,psi_staircase_training,emotion,,103.3168632399268,103.3168632399268,40.73126601054281,390.3139129999327,94,48,male,True
77,130.0,25,M,up,0.7452734999824315,0.6959802660255788,,psi_staircase_training,emotion,,104.78022941370126,104.78022941370126,40.36001184507966,391.9805260000285,94,48,male,True
78,77.0,25,F,down,0.6043687000637874,1.7209884315568449,,psi_staircase_training,emotion,,103.4626453091197,103.4626453091197,39.9801007736948,394.7804251000052,94,48,male,True
79,133.0,25,F,up,0.7938017999986187,1.2103116792600903,,psi_staircase_training,emotion,,104.69115515173644,104.69115515173644,39.56186673044905,396.9469840999227,94,48,male,True
80,74.0,25,M,down,0.6534936999669299,0.9641644877271396,,psi_staircase_training,emotion,,103.58986466584182,103.58986466584182,39.138541328345184,399.0302265000064,94,48,male,True
81,136.0,25,M,up,0.8786250000121072,1.1022911233162511,,psi_staircase_training,emotion,,104.61867636846614,104.61867636846614,38.68060695339188,401.13018450001255,94,48,male,True
82,0.29,25,up,up,0.7339482000097632,1.29412153890725,,psi_staircase,cRDM,,0.25,0.2569312402994632,0.105,406.7798758000136,94,48,male,True
83,0.25,25,up,up,0.560942200012505,1.6040902806899422,,psi_staircase,cRDM,,0.2191026665318312,0.2260132002683492,0.1046863203387393,409.37983729992993,94,48,male,True
84,0.21,25,down,down,0.6131628999719396,1.97155741006953,,psi_staircase,cRDM,,0.1900540959403307,0.1968497961554001,0.1029467298424999,412.1796899000183,94,48,male,True
85,0.18,25,down,down,0.98654189996887,1.889533565100629,,psi_staircase,cRDM,,0.1635257589279754,0.1701521334256793,0.1003816477568649,414.94628000003286,94,48,male,True
86,0.15,25,up,up,0.5520436000078917,1.762004431629151,,psi_staircase,cRDM,,0.1401895574244936,0.1466013351187503,0.0971307628663642,417.96280410001054,94,48,male,True
87,0.13,25,down,down,0.6844153000274673,1.3541431690414858,,psi_staircase,cRDM,,0.1198760602145479,0.1260554767618333,0.0936107694196103,420.1293994999724,94,48,male,True
88,0.11,25,up,up,0.5601991000585258,1.7805650770799806,,psi_staircase,cRDM,,0.1025773523696548,0.1084910344569865,0.0895852101993795,422.8626276999712,94,48,male,True
89,0.09,25,down,down,0.7982007999671623,0.4666304717629415,,psi_staircase,cRDM,,0.087844325958594,0.0934818215320969,0.0854013148647635,424.1625976000214,94,48,male,True
90,0.08,25,down,up,0.7029590000165626,1.6364962778905887,,psi_staircase,cRDM,,0.0751852092118086,0.0805556301471181,0.0813554535472043,426.8628415999701,94,48,male,True
91,0.13,25,up,up,0.6863655999768525,0.5379132481971398,,psi_staircase,cRDM,,0.1145374077699418,0.1210371210567565,0.0984628819128368,428.3624230999267,94,48,male,True
92,0.13,25,down,down,0.954419199959375,0.6097246811330677,,psi_staircase,cRDM,,0.1023941484636293,0.108577482786431,0.0936701190325844,429.9123842000263,94,48,male,True
93,0.12,25,down,down,0.8698531999252737,1.2950175609870376,,psi_staircase,cRDM,,0.093157405715179,0.098965388034743,0.0879839851464166,432.4289574000286,94,48,male,True
94,0.11,25,down,down,0.7762484999839216,0.380333615023262,,psi_staircase,cRDM,,0.0859226620933624,0.0913701323342403,0.0825226583669993,433.9455598000204,94,48,male,True
95,0.1,25,up,up,0.6436531000072137,1.5326607833172368,,psi_staircase,cRDM,,0.0799399398670652,0.0850863037356118,0.0779612569830018,436.5121490999591,94,48,male,True
96,0.07,25,up,up,0.8974242000840604,0.4372592294463548,,psi_staircase,cRDM,,0.07451104613556,0.0794623136190137,0.0750057801058921,437.8453951999545,94,48,male,True
97,0.07,25,down,down,0.8052112000295892,1.620916964632608,,psi_staircase,cRDM,,0.0674414649594006,0.0727840461137231,0.0809337141647359,440.6286334999604,94,48,male,True
98,0.06,25,down,down,0.784858200000599,1.008952361581625,,psi_staircase,cRDM,,0.0605209952104142,0.0661141188887985,0.0847291337274562,442.7119239999447,94,48,male,True
99,0.06,25,up,up,1.0598669999744743,0.4618996191017155,,psi_staircase,cRDM,,0.0537593161164729,0.0595551816566015,0.0878004304309907,444.21186929999385,94,48,male,True
100,0.06,25,up,up,0.7763773000333458,1.0348557690700293,,psi_staircase,cRDM,,0.0476001899158972,0.0534274657861083,0.0882762593614802,446.57846200000495,94,48,male,True
101,0.06,25,up,up,0.7267926000058651,1.2274396600745503,,psi_staircase,cRDM,,0.0422461159806664,0.0479515616129296,0.0864306769791297,448.8450164999813,94,48,male,True
102,0.06,25,up,up,0.7665339999366552,1.1097563873480067,,psi_staircase,cRDM,,0.0377500104575109,0.043212314845363,0.082747377950363,450.9282690000255,94,48,male,True
103,0.05,25,down,down,0.6632538000121713,1.4964745279413452,,psi_staircase,cRDM,,0.0340638029839331,0.0391974582520225,0.0777687368869801,453.46152849996,94,48,male,True
104,0.04,25,down,down,1.2510536999907345,1.1567833767797435,,psi_staircase,cRDM,,0.0306572759838418,0.0354630841693466,0.0728022457275174,455.5447519000154,94,48,male,True
105,0.04,25,down,down,1.1130966999335214,1.0828392818903303,,psi_staircase,cRDM,,0.0273655684343965,0.0318852745663453,0.0684681418261276,458.14466609992087,94,48,male,True
106,0.03,25,up,up,1.1998833999969063,1.1107948340238558,,psi_staircase,cRDM,,0.0245396565190832,0.0287162424949344,0.0632702818712453,460.6279006999685,94,48,male,True
107,0.03,25,up,up,0.7823658999986947,1.659309508554479,,psi_staircase,cRDM,,0.021698699754403,0.0256139197131525,0.0593108993350782,463.74445100000594,94,48,male,True
108,0.03,25,down,up,0.7044452000409365,0.9553754439546328,,psi_staircase,cRDM,,0.019201674610102,0.0228050142920722,0.054586286185485,465.74436969996896,94,48,male,True
109,0.06,25,down,down,0.8598502000095323,1.5020877729131423,,psi_staircase,cRDM,,0.0303797395315229,0.0357284194605813,0.0810261033071711,468.210978899966,94,48,male,True
110,0.06,25,up,up,0.6636223000241444,1.5164338281152268,,psi_staircase,cRDM,,0.0288342575646045,0.0337522578011199,0.0745018211061165,470.84417940001,94,48,male,True
111,0.06,25,up,down,1.778371199965477,1.8145777002442367,,psi_staircase,cRDM,,0.0276340000404288,0.0321181944105395,0.0679301811103111,473.5773956000339,94,48,male,True
112,0.07,25,down,down,0.7091711999382824,1.6871567807114776,,psi_staircase,cRDM,,0.0343275615721737,0.0419153372423136,0.1149457255761845,477.31065150001086,94,48,male,True
113,0.07,25,up,down,1.1372275000903755,0.3101210264134238,,psi_staircase,cRDM,,0.0324548227798607,0.0397913441159237,0.1111395229431411,478.6105908999453,94,48,male,True
114,0.13,25,down,down,0.8259554000105709,0.5407060194903264,,psi_staircase,cRDM,,0.039797919322887,0.0484561016625307,0.1311611062933401,480.5438227999257,94,48,male,True
115,0.08,25,up,down,0.8515620999969542,1.5426836294405497,,psi_staircase,cRDM,,0.038143428019224,0.046633356701719,0.1286122646376875,483.1771347000031,94,48,male,True
116,0.14,25,down,down,0.6807594000129029,1.3905815275301867,,psi_staircase,cRDM,,0.0469734403072601,0.0558994806328408,0.1352188343922452,485.6770379999653,94,48,male,True
117,0.14,25,up,down,0.6932382000377402,1.972741515026596,,psi_staircase,cRDM,,0.0451876883643201,0.0539495171885353,0.132731226561838,488.5935658999952,94,48,male,True
118,0.19,25,down,down,0.647981800022535,0.7164554928482976,,psi_staircase,cRDM,,0.0555201659532648,0.0653802219918809,0.1493680552577105,490.27682719996665,94,48,male,True
119,0.19,25,up,down,0.6283071999205276,0.5074413419296716,,psi_staircase,cRDM,,0.0534356969709501,0.0631591000676914,0.1472979266404745,491.693468799931,94,48,male,True
120,0.2,25,up,up,0.5867040000157431,0.9905741916597012,,psi_staircase,cRDM,,0.0688339776649108,0.0796816417130237,0.1643291353121983,493.56004889996257,94,48,male,True
121,0.2,25,down,down,0.5981923000654206,1.8158050633764145,,psi_staircase,cRDM,,0.0659585313568612,0.0766903541701212,0.1625742791632196,496.2266213999828,94,48,male,True
122,0.2,25,down,down,0.6979081999743357,0.615861166841639,,psi_staircase,cRDM,,0.0634205157600232,0.0740342589846835,0.1607855146322979,497.70987919997424,94,48,male,True
123,0.2,25,down,down,0.5523560999426991,1.718758751485303,,psi_staircase,cRDM,,0.0611583133697632,0.0716526074535948,0.1589760030232465,500.3764569000341,94,48,male,True
124,0.2,25,up,up,0.6697088000364602,1.0947297116053916,,psi_staircase,cRDM,,0.0591258597699458,0.0694999554435245,0.1571551408786264,502.2930952999741,94,48,male,True
125,0.2,25,up,up,0.7341220999369398,1.4879731269822474,,psi_staircase,cRDM,,0.0572879614873267,0.0675415819008535,0.155330084790696,504.709629299934,94,48,male,True
126,0.19,25,down,down,0.6405881999526173,1.5231538774556774,,psi_staircase,cRDM,,0.0556171180387535,0.0657503700618049,0.1535066476490201,507.2261997000314,94,48,male,True
127,0.19,25,down,down,0.5876081000315025,1.4500481548336066,,psi_staircase,cRDM,,0.0539842693799549,0.0639973421207009,0.1516860752699272,509.5761253000237,94,48,male,True
128,0.19,25,down,down,0.6844033999368548,1.5279478662790844,,psi_staircase,cRDM,,0.0524863536044266,0.0623796355431933,0.1498713879031067,511.9594138999237,94,48,male,True
129,0.19,25,up,down,0.6238618999486789,1.5214347498272438,,psi_staircase,cRDM,,0.0511076522857662,0.0608818389316413,0.1480672366670588,514.4259455000283,94,48,male,True
130,0.21,25,up,up,0.6929219999583438,0.9017567052210256,,psi_staircase,cRDM,,0.0618837933420693,0.0726580782890105,0.1632175296990402,516.2258756000083,94,48,male,True
131,0.21,25,up,up,0.5402840999886394,0.6741172843912742,,psi_staircase,cRDM,,0.060290865327583,0.0709603588658797,0.1616300652002951,517.8424705999205,94,48,male,True
132,100.0,25,M,down,0.844458100036718,0.4632886472112177,,psi_staircase,emotion,,100.0,100.0,25.00050000000001,522.7423392999917,94,48,male,True
133,145.0,25,M,up,0.6295100999996066,0.7533207405726758,,psi_staircase,emotion,,145.25719053245996,145.25719053245996,25.00050000000028,524.6923068999313,94,48,male,True
134,121.0,25,F,down,0.6355021999916062,1.030777088950972,,psi_staircase,emotion,,120.36392901436103,120.36392901436103,25.71326925488699,526.6922350999666,94,48,male,True
135,137.0,25,F,down,0.629324399982579,1.8411191319669664,,psi_staircase,emotion,,137.8359832966118,137.8359832966118,25.292325986285498,529.5254715000046,94,48,male,True
136,154.0,25,M,up,0.8284298999933526,1.7764442826642637,,psi_staircase,emotion,,150.04293000169994,150.04293000169994,27.054990449744093,532.275374299963,94,48,male,True
137,149.0,25,F,down,0.6578349000774324,0.7850351089914989,,psi_staircase,emotion,,141.73337100141325,141.73337100141325,23.997705832463016,534.2419399999781,94,48,male,True
138,164.0,25,M,down,1.0816141000250354,1.520706310239203,,psi_staircase,emotion,,151.54593530786988,151.54593530786988,29.429280106921176,536.7751918999711,94,48,male,True
139,175.0,25,F,down,0.6630396000109613,1.044244543131559,,psi_staircase,emotion,,161.73374947545852,161.73374947545852,34.16218580940625,539.2587583999848,94,48,male,True
140,181.0,25,F,up,1.31742320000194,1.0248831204411477,,psi_staircase,emotion,,170.29241969482405,170.29241969482405,36.74535067601561,541.3083858999889,94,48,male,True
141,182.0,25,M,up,0.6058491999283433,0.6621272126164655,,psi_staircase,emotion,,166.24587700342255,166.24587700342255,35.93499658511704,543.6249468999449,94,48,male,True
142,182.0,25,F,up,0.6689115000190213,1.2133758007329296,,psi_staircase,emotion,,162.8002576768831,162.8002576768831,34.99914097636618,545.7748583999928,94,48,male,True
143,139.0,25,F,up,0.5523545999312773,1.0489047899205155,,psi_staircase,emotion,,159.88525418973202,159.88525418973202,34.05232822789439,547.8414488999406,94,48,male,True
144,132.0,25,F,up,0.6831001999089494,1.8782474750342604,,psi_staircase,emotion,,153.20185420165052,153.20185420165052,36.39985719132922,550.624655499938,94,48,male,True
145,127.0,25,M,up,1.397509599919431,0.9706600775984506,,psi_staircase,emotion,,146.73114569150678,146.73114569150678,38.247537043095264,552.6412588999374,94,48,male,True
146,121.0,25,M,down,0.9039689999772236,0.8622243330627648,,psi_staircase,emotion,,140.6593979687391,140.6593979687391,39.6523510868345,555.2578319000313,94,48,male,True
147,123.0,25,F,up,0.8783624999923632,0.8126076033455556,,psi_staircase,emotion,,143.3615512524963,143.3615512524963,39.09742256218678,557.3244387999875,94,48,male,True
148,119.0,25,F,up,0.8494524999987334,1.775819672861335,,psi_staircase,emotion,,138.01293105728757,138.01293105728757,40.27255976796077,560.3243188000051,94,48,male,True
149,115.0,25,M,up,0.7058561000740156,1.0359385463435171,,psi_staircase,emotion,,132.96942181478988,132.96942181478988,41.24114247172825,562.5579098999733,94,48,male,True
150,111.0,25,M,up,0.6826409999048337,1.504974314310857,,psi_staircase,emotion,,128.17102477011423,128.17102477011423,42.06273544039627,565.124152299948,94,48,male,True
151,108.0,25,M,up,0.6956566999433562,0.6629490917872944,,psi_staircase,emotion,,123.56956478447457,123.56956478447457,42.7718866595509,566.824109399924,94,48,male,True
152,104.0,25,M,down,0.7851336000021547,1.2997816198868586,,psi_staircase,emotion,,119.19770196388784,119.19770196388784,43.36165600548343,569.1576547999866,94,48,male,True
153,107.0,25,F,down,0.9298060999717565,0.5152874320242634,,psi_staircase,emotion,,121.6690650702303,121.6690650702303,43.056193437285934,570.8239484999795,94,48,male,True
154,109.0,25,F,down,0.696571100037545,0.4994444565483601,,psi_staircase,emotion,,123.962731367074,123.962731367074,42.76783226866589,572.6072158999741,94,48,male,True
155,111.0,25,F,up,0.9070173000218348,1.6312060315772607,,psi_staircase,emotion,,126.07724839968972,126.07724839968972,42.494304335896224,575.2737845999654,94,48,male,True
156,107.0,25,M,down,0.6934370999224484,0.9323000673859164,,psi_staircase,emotion,,122.65765524698077,122.65765524698077,42.939715722549856,577.4403359999415,94,48,male,True
157,109.0,25,M,down,0.681808999972418,1.2412836500477311,,psi_staircase,emotion,,124.56491151614442,124.56491151614442,42.68449130611705,579.706947300001,94,48,male,True
158,112.0,25,F,up,0.7586482000770047,1.1073025773856782,,psi_staircase,emotion,,126.36201318051204,126.36201318051204,42.44450589911518,581.8401850999799,94,48,male,True
159,107.0,25,F,up,0.9949993999907748,0.9758085504413688,,psi_staircase,emotion,,123.4137186640082,123.4137186640082,42.80667070898679,583.9067844999954,94,48,male,True
160,104.0,25,M,down,0.8344027000712231,0.6298800968737988,,psi_staircase,emotion,,120.44991399238609,120.44991399238609,43.22882564373407,585.8733939999947,94,48,male,True
161,105.0,25,M,up,0.6621271999320015,0.4414482037626025,,psi_staircase,emotion,,122.05228481184116,122.05228481184116,43.002060139187805,587.506672999938,94,48,male,True
162,102.0,25,F,down,0.6511496000457555,1.5798961592758776,,psi_staircase,emotion,,119.26599587865688,119.26599587865688,43.40997257996381,590.1065895999782,94,48,male,True
163,104.0,25,M,up,1.0432867999188602,0.4587100902260235,,psi_staircase,emotion,,120.7379177830324,120.7379177830324,43.19516129570356,591.5564684999408,94,48,male,True
164,101.0,25,F,down,0.7070783999515697,1.7855606476212678,,psi_staircase,emotion,,118.14280264653594,118.14280264653594,43.56660787153298,594.7397033999441,94,48,male,True
165,102.0,25,M,up,1.1294042998924851,0.3307193024357387,,psi_staircase,emotion,,119.5277050735275,119.5277050735275,43.36593592343066,596.1063555999426,94,48,male,True
166,100.0,25,F,up,0.860505299991928,0.92313498888734,,psi_staircase,emotion,,117.06025223368316,117.06025223368316,43.73246784245492,598.506254500011,94,48,male,True
167,98.0,25,M,up,0.8655503999907523,0.5880256489141277,,psi_staircase,emotion,,114.6574818937188,114.6574818937188,44.07680532629725,600.306207699934,94,48,male,True
168,97.0,25,F,down,0.7079931000480428,0.7998079515112375,,psi_staircase,emotion,,112.3123182113993,112.3123182113993,44.40010776002677,602.3227891999995,94,48,male,True
169,98.0,25,M,down,0.8717175000347197,0.3837292257594262,,psi_staircase,emotion,,113.63169520900529,113.63169520900529,44.23319642625447,603.7560490999604,94,48,male,True
170,99.0,25,M,down,0.8341842000372708,1.9851445484324275,,psi_staircase,emotion,,114.89037080343128,114.89037080343128,44.070388279952624,606.9726120999549,94,48,male,True
171,101.0,25,F,up,0.8686116000171751,1.1683864254583456,,psi_staircase,emotion,,116.0951099246206,116.0951099246206,43.91221221093659,609.3391779999947,94,48,male,True
172,98.0,25,F,up,0.8036619999911636,1.3032765719012422,,psi_staircase,emotion,,114.0766516769112,114.0766516769112,44.16378358116236,611.8390849999851,94,48,male,True
173,96.0,25,F,up,0.9155225999420508,1.8819933006006344,,psi_staircase,emotion,,112.06444060823328,112.06444060823328,44.43297533128914,614.8722997999284,94,48,male,True
174,94.0,25,M,down,0.6589610000373796,1.4080751167271024,,psi_staircase,emotion,,110.08518238844002,110.08518238844002,44.69608988632747,617.5388343000086,94,48,male,True
175,95.0,25,M,up,0.8506352999247611,1.9663974363542152,,psi_staircase,emotion,,111.19705226754856,111.19705226754856,44.55033989669143,620.5221114000306,94,48,male,True
176,94.0,25,F,up,0.8964842000277713,0.9382334309816832,,psi_staircase,emotion,,109.30583420965807,109.30583420965807,44.80152924562968,622.6553143999772,94,48,male,True
177,92.0,25,F,up,0.6901248000795022,1.7276327756360317,,psi_staircase,emotion,,107.46727688489156,107.46727688489156,45.03190405455744,625.6386489999713,94,48,male,True
178,91.0,25,F,up,0.8183197999605909,1.552789921208662,,psi_staircase,emotion,,105.65001917554709,105.65001917554709,45.25808291464576,628.2384747000178,94,48,male,True
179,90.0,25,M,up,0.5816753000253811,1.4829764946737307,,psi_staircase,emotion,,103.87910394118622,103.87910394118622,45.46572518627652,630.9050749000162,94,48,male,True
180,88.0,25,M,up,0.7103977999649942,1.316969968072436,,psi_staircase,emotion,,102.1513345313681,102.1513345313681,45.65716206164869,633.1553049000213,94,48,male,True
181,87.0,25,M,up,0.5671927999937907,0.5001377087405292,,psi_staircase,emotion,,100.43741366848091,100.43741366848091,45.84531200000672,634.7215944000054,94,48,male,True
182,0.058824928031104,25,down,up,1.2734791999682784,0.7003919972873034,,experiment,cRDM,0.0,,,,639.9213154999306,94,48,male,True
183,0.058824928031104,25,up,up,0.7201687000924721,1.1031954330354394,,experiment,cRDM,0.0,,,,642.5545594999567,94,48,male,True
184,0.058824928031104,25,down,down,0.651905000093393,0.4989412082171207,,experiment,cRDM,0.0,,,,644.0378327999497,94,48,male,True
185,0.058824928031104,25,up,up,1.2709838000591844,0.3398014471436574,,experiment,cRDM,0.0,,,,645.2878073999891,94,48,male,True
186,0.058824928031104,25,down,down,0.8211015000706539,1.1192006467150923,,experiment,cRDM,0.0,,,,647.9376782999607,94,48,male,True
187,0.058824928031104,25,down,up,0.6601636999985203,1.4055564871124422,,experiment,cRDM,0.0,,,,650.4375940000173,94,48,male,True
188,0.058824928031104,25,up,down,0.8142792000435293,1.6273737080973285,,experiment,cRDM,0.0,,,,652.9875031999545,94,48,male,True
189,0.058824928031104,25,down,up,0.6340023999800906,0.7009707524722614,,experiment,cRDM,0.0,,,,654.770843999926,94,48,male,True
190,0.058824928031104,25,up,down,0.6896460000425577,0.4427842494158558,,experiment,cRDM,0.0,,,,656.1040840999922,94,48,male,True
191,0.058824928031104,25,up,up,0.7257948000915349,1.4477203740024869,,experiment,cRDM,0.0,,,,658.5039833999472,94,48,male,True
192,0.058824928031104,25,down,down,0.6695503999944776,1.3443037452854067,,experiment,cRDM,0.0,,,,660.8372027999721,94,48,male,True
193,0.058824928031104,25,up,down,1.061206999933347,0.6593938056933712,,experiment,cRDM,0.0,,,,662.4205221999437,94,48,male,True
194,0.058824928031104,25,up,down,0.703656499972567,0.3890310328279346,,experiment,cRDM,0.0,,,,664.1370774999959,94,48,male,True
195,0.058824928031104,25,up,up,0.7330633000237867,0.638224680971406,,experiment,cRDM,0.0,,,,665.7537270999746,94,48,male,True
196,0.058824928031104,25,down,down,0.6424746999982744,1.861462172851285,,experiment,cRDM,0.0,,,,668.620269899955,94,48,male,True
197,0.058824928031104,25,down,down,1.088171900017187,0.4794403607959744,,experiment,cRDM,0.0,,,,670.003559099976,94,48,male,True
198,0.058824928031104,25,up,up,0.7253072999883443,1.7597402579122143,,experiment,cRDM,0.0,,,,673.103447600035,94,48,male,True
199,0.058824928031104,25,up,down,0.6457340999040753,0.8243585337836845,,experiment,cRDM,0.0,,,,674.9200480999425,94,48,male,True
200,0.058824928031104,25,down,down,0.7701048000017181,0.6618442990264884,,experiment,cRDM,0.0,,,,676.4866813999834,94,48,male,True
201,0.058824928031104,25,down,down,1.523810499929823,0.5959804493390423,,experiment,cRDM,0.0,,,,678.1199155999348,94,48,male,True
202,0.058824928031104,25,up,up,0.8683145999675617,0.4326957248248833,,experiment,cRDM,0.0,,,,680.3364594000159,94,48,male,True
203,0.058824928031104,25,down,down,0.812690099934116,1.4302119221903715,,experiment,cRDM,0.0,,,,682.9030909999274,94,48,male,True
204,0.058824928031104,25,up,down,1.5697285999776796,0.9805141837273588,,experiment,cRDM,0.0,,,,684.9530067000305,94,48,male,True
205,0.058824928031104,25,down,down,0.7153009000467137,1.8256868322416535,,experiment,cRDM,0.0,,,,688.6195379999699,94,48,male,True
206,0.058824928031104,25,down,down,0.6472420999780297,1.3560443422479849,,experiment,cRDM,0.0,,,,690.9694907999365,94,48,male,True
207,0.058824928031104,25,up,down,0.6854036999866366,1.9255794539091855,,experiment,cRDM,0.0,,,,693.8193572999444,94,48,male,True
208,0.058824928031104,25,up,up,1.456141399918124,1.1353770932698373,,experiment,cRDM,0.0,,,,695.9025997000281,94,48,male,True
209,0.058824928031104,25,down,down,0.5842231999849901,0.3784354714449747,,experiment,cRDM,0.0,,,,698.0025444999337,94,48,male,True
210,0.058824928031104,25,up,up,1.1486047999933362,0.6781821491532332,,experiment,cRDM,0.0,,,,699.5191360999597,94,48,male,True
211,0.058824928031104,25,down,down,0.6330336999380961,0.4622747259307581,,experiment,cRDM,0.0,,,,701.3857503000181,94,48,male,True
212,0.058824928031104,25,up,down,0.7900590000208467,1.0987302533943446,,experiment,cRDM,0.0,,,,703.3856662999606,94,48,male,True
213,0.058824928031104,25,down,down,0.6395641999552026,1.4104625685499077,,experiment,cRDM,0.0,,,,705.8522244000342,94,48,male,True
214,0.058824928031104,25,up,up,0.8835525999311358,0.7452063584840599,,experiment,cRDM,0.0,,,,707.5021751000313,94,48,male,True
215,0.058824928031104,25,down,down,0.6746460000285879,1.4478477596360704,,experiment,cRDM,0.0,,,,710.102124499972,94,48,male,True
216,0.058824928031104,25,up,down,0.8534571999916807,1.318840085222851,,experiment,cRDM,0.0,,,,712.352314400021,94,48,male,True
217,0.058824928031104,25,down,down,0.6868334000464529,1.6328140991786468,,experiment,cRDM,0.0,,,,715.1019088999601,94,48,male,True
218,0.058824928031104,25,up,up,1.330260599963367,1.6240115083872155,,experiment,cRDM,0.0,,,,717.6684818000067,94,48,male,True
219,0.058824928031104,25,down,down,0.6104101999662817,1.088530931827568,,experiment,cRDM,0.0,,,,720.3353609000333,94,48,male,True
220,0.058824928031104,25,up,down,0.7024813999887556,1.106608704173214,,experiment,cRDM,0.0,,,,722.318275699974,94,48,male,True
221,0.058824928031104,25,down,down,0.7264953999547288,1.532298282886972,,experiment,cRDM,0.0,,,,724.8182048000162,94,48,male,True
222,0.058824928031104,25,down,down,0.6606341000879183,1.9523318775797105,,experiment,cRDM,0.0,,,,727.76811179996,94,48,male,True
223,0.058824928031104,25,up,down,1.366446000058204,1.962519385335442,,experiment,cRDM,0.0,,,,730.6513216999592,94,48,male,True
224,0.058824928031104,25,down,down,0.6011847999179736,0.3670061307844164,,experiment,cRDM,0.0,,,,732.6345775999362,94,48,male,True
225,0.058824928031104,25,up,down,0.6823280999669805,1.0597356834784477,,experiment,cRDM,0.0,,,,734.5678666000022,94,48,male,True
226,0.058824928031104,25,up,up,0.9349958000238984,1.3510558012505969,,experiment,cRDM,0.0,,,,736.867763999966,94,48,male,True
227,0.058824928031104,25,down,down,0.6430687999818474,0.6861524262887455,,experiment,cRDM,0.0,,,,738.7676710999804,94,48,male,True
228,0.058824928031104,25,down,down,0.6214576000347733,0.9974116145592532,,experiment,cRDM,0.0,,,,740.6842880999902,94,48,male,True
229,0.058824928031104,25,up,down,0.6618469000095502,0.3347845586949757,,experiment,cRDM,0.0,,,,741.9009316000156,94,48,male,True
230,0.058824928031104,25,down,down,0.6862886999733746,1.6425181554912338,,experiment,cRDM,0.0,,,,744.4674846000271,94,48,male,True
231,0.058824928031104,25,up,down,0.86238730000332,1.622258782988052,,experiment,cRDM,0.0,,,,747.0343780999538,94,48,male,True
232,0.058824928031104,25,up,down,0.6358057999750599,1.2792338677228967,,experiment,cRDM,0.0,,,,749.4339851000113,94,48,male,True
233,0.058824928031104,25,up,up,0.7421806000638753,1.2778182705970205,,experiment,cRDM,0.0,,,,751.6005663999822,94,48,male,True
234,0.058824928031104,25,up,up,1.0462445000885054,1.5939650339021243,,experiment,cRDM,0.0,,,,754.2004742999561,94,48,male,True
235,0.058824928031104,25,up,down,0.6090634000720456,0.7642501193515164,,experiment,cRDM,0.0,,,,756.2837080999743,94,48,male,True
236,0.058824928031104,25,down,down,0.7073868999723345,0.9125721289862244,,experiment,cRDM,0.0,,,,758.050352399936,94,48,male,True
237,0.058824928031104,25,down,down,0.6339112999849021,1.4348856673121448,,experiment,cRDM,0.0,,,,760.4668877000222,94,48,male,True
238,0.058824928031104,25,down,down,0.6035418000537902,1.5826978488324566,,experiment,cRDM,0.0,,,,762.9502308999654,94,48,male,True
239,0.058824928031104,25,up,up,0.3675131999189034,0.3434569277548537,,experiment,cRDM,0.0,,,,764.1667731000343,94,48,male,True
240,0.058824928031104,25,down,down,0.5673822000389919,0.8321753148571658,,experiment,cRDM,0.0,,,,765.6833893000148,94,48,male,True
241,0.058824928031104,25,down,down,0.5274504999397323,1.7366870010554276,,experiment,cRDM,0.0,,,,768.2332910000114,94,48,male,True
242,0.058824928031104,25,down,down,0.7689317000331357,1.99015938245662,,experiment,cRDM,0.0,,,,770.9998320000013,94,48,male,True
243,0.058824928031104,25,up,down,0.6296294999774545,1.2525180289371238,,experiment,cRDM,0.0,,,,773.2831027000211,94,48,male,True
244,0.058824928031104,25,down,down,0.6474300998961553,1.4486140511537977,,experiment,cRDM,0.0,,,,775.6163382999366,94,48,male,True
245,0.058824928031104,25,up,down,0.5178470000391826,0.91521742578994,,experiment,cRDM,0.0,,,,777.432930800016,94,48,male,True
246,0.058824928031104,25,up,down,0.4761884999461472,1.0849217532454831,,experiment,cRDM,0.0,,,,779.299538900028,94,48,male,True
247,0.058824928031104,25,down,down,0.6050042000133544,1.5310946589646612,,experiment,cRDM,0.0,,,,781.5828073000303,94,48,male,True
248,0.058824928031104,25,up,down,0.6000329999951646,0.4462361878519458,,experiment,cRDM,0.0,,,,782.8827365000034,94,48,male,True
249,0.058824928031104,25,down,down,0.6590476999990642,1.4456106721724515,,experiment,cRDM,0.0,,,,785.1826806999743,94,48,male,True
250,0.058824928031104,25,up,down,0.6211598999798298,1.7352206354240025,,experiment,cRDM,0.0,,,,787.8325436000014,94,48,male,True
251,0.058824928031104,25,down,down,0.6105893000494689,1.0393817056217889,,experiment,cRDM,0.0,,,,789.749168899958,94,48,male,True
252,0.058824928031104,25,up,down,0.6019214000552893,1.0406702580227647,,experiment,cRDM,0.0,,,,791.6658152999589,94,48,male,True
253,0.058824928031104,25,down,down,0.5324603000190109,1.9290105832760427,,experiment,cRDM,0.0,,,,794.4493386999238,94,48,male,True
254,0.058824928031104,25,down,down,0.572546900017187,1.77780537225014,,experiment,cRDM,0.0,,,,797.0322004000191,94,48,male,True
255,0.058824928031104,25,down,down,0.5112835000036284,1.7470040761315784,,experiment,cRDM,0.0,,,,799.6154752000002,94,48,male,True
256,0.058824928031104,25,down,down,0.5736596001079306,0.8919980229510107,,experiment,cRDM,0.0,,,,801.2820682999445,94,48,male,True
257,0.058824928031104,25,down,down,0.499704800080508,0.3691633772520565,,experiment,cRDM,0.0,,,,802.4820330999792,94,48,male,True
258,0.058824928031104,25,up,up,1.2701629999792203,1.664260350322466,,experiment,cRDM,0.0,,,,804.898591300007,94,48,male,True
259,0.058824928031104,25,up,down,0.5029099999228492,1.4553937344562409,,experiment,cRDM,0.0,,,,807.8818263999419,94,48,male,True
260,0.058824928031104,25,up,down,0.4872555000474676,0.401726490386992,,experiment,cRDM,0.0,,,,809.048461599974,94,48,male,True
261,0.058824928031104,25,up,down,0.501362600014545,1.6932963201293585,,experiment,cRDM,0.0,,,,811.4983662000159,94,48,male,True
262,116.0,25,M,down,1.0215278000105172,1.4094634308285083,,experiment,emotion,0.0,,,,816.9982293000212,94,48,male,True
263,80.0,25,M,down,0.6679571000859141,1.998386007034328,,experiment,emotion,0.0,,,,820.3147755999817,94,48,male,True
264,104.0,25,F,up,0.6947391000576317,0.4958448402338212,,experiment,emotion,0.0,,,,821.7480077999644,94,48,male,True
265,116.0,25,F,down,0.6154364000540227,1.370784071351149,,experiment,emotion,0.0,,,,824.0813016999746,94,48,male,True
266,104.0,25,M,down,0.7208417999790981,0.8943178662404092,,experiment,emotion,0.0,,,,825.8478831999237,94,48,male,True
267,92.0,25,F,down,0.5848531000083312,0.3449927997017503,,experiment,emotion,0.0,,,,827.1978779999772,94,48,male,True
268,80.0,25,M,down,0.6903938000323251,1.3109937187623584,,experiment,emotion,0.0,,,,829.364453200018,94,48,male,True
269,92.0,25,M,down,0.555708400090225,1.2591393656687504,,experiment,emotion,0.0,,,,831.581040399964,94,48,male,True
270,116.0,25,F,up,0.8117756999563426,0.9903238427144564,,experiment,emotion,0.0,,,,833.3809509000275,94,48,male,True
271,92.0,25,F,down,0.5138309000758454,0.5737621675039717,,experiment,emotion,0.0,,,,835.0308948999736,94,48,male,True
272,104.0,25,F,down,0.9705377999925986,0.4956195834708567,,experiment,emotion,0.0,,,,836.3141784999752,94,48,male,True
273,116.0,25,F,up,0.8835716999601573,0.5138043999437362,,experiment,emotion,0.0,,,,838.0641243000282,94,48,male,True
274,104.0,25,F,down,0.9583915000548586,0.8096686965304165,,experiment,emotion,0.0,,,,840.0473755999701,94,48,male,True
275,80.0,25,F,down,0.6190667999908328,1.1977529056046563,,experiment,emotion,0.0,,,,842.4806325000245,94,48,male,True
276,92.0,25,M,down,0.8484943000366911,1.235642470578366,,experiment,emotion,0.0,,,,844.5972206000006,94,48,male,True
277,80.0,25,M,down,0.5319135000463575,0.5485496054494332,,experiment,emotion,0.0,,,,846.2638379000127,94,48,male,True
278,116.0,25,M,up,0.7790356000186875,1.3384773311836689,,experiment,emotion,0.0,,,,848.4137388999807,94,48,male,True
279,80.0,25,M,up,1.1864966999273747,1.9279414244066189,,experiment,emotion,0.0,,,,851.3803117999341,94,48,male,True
280,104.0,25,F,up,0.6445295000448823,1.9021133291427637,,experiment,emotion,0.0,,,,854.7471744000213,94,48,male,True
281,104.0,25,M,up,0.8069515000097454,1.4005676667353155,,experiment,emotion,0.0,,,,857.0467429999262,94,48,male,True
282,92.0,25,M,down,1.0607163000386208,1.0154045841483064,,experiment,emotion,0.0,,,,859.1300291999942,94,48,male,True
283,92.0,25,F,down,1.463204100029543,1.8938045823789849,,experiment,emotion,0.0,,,,862.3465210000286,94,48,male,True
284,80.0,25,M,down,0.6536016999743879,1.4218382869943884,,experiment,emotion,0.0,,,,865.5131244999357,94,48,male,True
285,116.0,25,F,up,0.7750599000137299,0.9662919331634215,,experiment,emotion,0.0,,,,867.4296939999331,94,48,male,True
286,104.0,25,F,up,0.7162053000647575,1.9379754513032568,,experiment,emotion,0.0,,,,870.429574299953,94,48,male,True
287,80.0,25,M,down,0.7408597000176087,1.1071254451171166,,experiment,emotion,0.0,,,,872.5128611000255,94,48,male,True
288,116.0,25,M,up,1.0529415999772027,1.0378683450254964,,experiment,emotion,0.0,,,,874.5627899999963,94,48,male,True
289,116.0,25,F,up,0.8090490000322461,1.4112327987836857,,experiment,emotion,0.0,,,,877.3126875000307,94,48,male,True
290,92.0,25,M,down,0.693484399933368,1.8696512149553317,,experiment,emotion,0.0,,,,880.2792351000244,94,48,male,True
291,80.0,25,F,down,0.9789568000705912,1.3038140574428776,,experiment,emotion,0.0,,,,882.545783199952,94,48,male,True
292,92.0,25,F,down,0.8809775999980047,0.5732120126793706,,experiment,emotion,0.0,,,,884.3457320999587,94,48,male,True
293,104.0,25,F,up,0.6097600000211969,0.3212888153762122,,experiment,emotion,0.0,,,,885.8290259999922,94,48,male,True
294,80.0,25,M,up,1.0621419999515638,1.6427949527265235,,experiment,emotion,0.0,,,,888.3455845999997,94,48,male,True
295,116.0,25,M,up,0.7238721000030637,1.1545090693067614,,experiment,emotion,0.0,,,,890.8288478000322,94,48,male,True
296,104.0,25,M,up,0.7119856000645086,1.016716285425303,,experiment,emotion,0.0,,,,892.8287485999754,94,48,male,True
297,116.0,25,F,up,0.7940439999802038,1.8656186716459155,,experiment,emotion,0.0,,,,895.6786786000011,94,48,male,True
298,80.0,25,F,down,0.6277864000294358,0.5622560924787503,,experiment,emotion,0.0,,,,897.3119451999664,94,48,male,True
299,104.0,25,M,up,1.146212099934928,1.65517497589524,,experiment,emotion,0.0,,,,899.8785207000328,94,48,male,True
300,92.0,25,F,down,0.8169634999940172,1.4924980869664597,,experiment,emotion,0.0,,,,902.8117458999624,94,48,male,True
301,92.0,25,M,down,0.7264547999948263,1.2289877804751044,,experiment,emotion,0.0,,,,905.1283103999448,94,48,male,True
302,104.0,25,M,up,0.8815193000482395,1.897556034281124,,experiment,emotion,0.0,,,,908.0282019999576,94,48,male,True
303,116.0,25,M,up,0.796594199957326,1.4485966518246065,,experiment,emotion,0.0,,,,910.6451576999387,94,48,male,True
304,92.0,25,F,down,0.6473295000614598,0.9979298811142852,,experiment,emotion,0.0,,,,912.7113806999988,94,48,male,True
305,80.0,25,F,down,0.6941405000397936,0.7964270251094648,,experiment,emotion,0.0,,,,914.444572599954,94,48,male,True
306,80.0,25,M,down,0.6658156999619678,0.8164859889222233,,experiment,emotion,0.0,,,,916.22789739992,94,48,male,True
307,92.0,25,F,up,0.6979148000245914,1.6523427328032532,,experiment,emotion,0.0,,,,918.8277925000292,94,48,male,True
308,116.0,25,F,up,0.7089445000747219,1.1341903580280608,,experiment,emotion,0.0,,,,920.9278174999636,94,48,male,True
309,104.0,25,M,up,0.709368500043638,0.7710613277591545,,experiment,emotion,0.0,,,,922.6943619999802,94,48,male,True
310,80.0,25,M,down,0.7947766999714077,0.4390585441716097,,experiment,emotion,0.0,,,,924.1109583999496,94,48,male,True
311,116.0,25,F,up,0.658842800068669,1.8682553114371732,,experiment,emotion,0.0,,,,927.0608601999702,94,48,male,True
312,104.0,25,M,up,0.8582067999523133,0.3858222751299203,,experiment,emotion,0.0,,,,928.377468099934,94,48,male,True
313,104.0,25,F,up,0.7670103999553248,1.4056321471558637,,experiment,emotion,0.0,,,,930.9106871000258,94,48,male,True
314,80.0,25,F,down,0.8007353999419138,0.3531756922390491,,experiment,emotion,0.0,,,,932.2939756999258,94,48,male,True
315,92.0,25,F,down,0.6260807999642566,0.7249226541085403,,experiment,emotion,0.0,,,,934.1105850000168,94,48,male,True
316,116.0,25,M,up,0.6292370000155643,0.796495176644449,,experiment,emotion,0.0,,,,935.8105122999988,94,48,male,True
317,92.0,25,M,up,0.9213395999977364,1.885986199393857,,experiment,emotion,0.0,,,,938.6104103999678,94,48,male,True
318,92.0,25,F,up,0.977724099997431,1.5271968404710394,,experiment,emotion,0.0,,,,941.3269838999258,94,48,male,True
319,92.0,25,F,down,0.5268269000807777,1.2976288888233152,,experiment,emotion,0.0,,,,943.8769089999842,94,48,male,True
320,116.0,25,M,up,1.0225626000901684,1.8173886188664687,,experiment,emotion,0.0,,,,946.5101460999576,94,48,male,True
321,104.0,25,M,down,0.6347337999613956,1.610770099904075,,experiment,emotion,0.0,,,,949.4100179999368,94,48,male,True
322,80.0,25,M,down,0.6874319000635296,1.867871296747748,,experiment,emotion,0.0,,,,952.19327779999,94,48,male,True
323,80.0,25,M,down,0.6051496000727639,0.7276058348619896,,experiment,emotion,0.0,,,,953.8765402999708,94,48,male,True
324,104.0,25,M,up,0.701571699930355,0.5307431981465667,,experiment,emotion,0.0,,,,955.2931526999456,94,48,male,True
325,116.0,25,F,up,0.6911127000348642,1.8832623257116137,,experiment,emotion,0.0,,,,958.1596004000166,94,48,male,True
326,116.0,25,F,up,0.6441154000349343,0.7357771134530078,,experiment,emotion,0.0,,,,959.859662599978,94,48,male,True
327,80.0,25,M,down,0.7794896999839693,0.7554604939828158,,experiment,emotion,0.0,,,,961.5262082000264,94,48,male,True
328,116.0,25,F,up,0.6785582000156865,1.9406632476333272,,experiment,emotion,0.0,,,,964.5261306000176,94,48,male,True
329,92.0,25,F,down,1.3689172000158578,0.3593332547201022,,experiment,emotion,0.0,,,,965.8427920999238,94,48,male,True
330,104.0,25,F,up,0.5690634000347927,0.6873941283347478,,experiment,emotion,0.0,,,,968.1926816999912,94,48,male,True
331,92.0,25,M,up,0.7165432999609038,0.9181860890078376,,experiment,emotion,0.0,,,,969.959291499923,94,48,male,True
332,80.0,25,F,down,0.7471950000617653,1.0888576651887942,,experiment,emotion,0.0,,,,972.042512199958,94,48,male,True
333,104.0,25,F,up,0.7529564999276772,1.25848111986276,,experiment,emotion,0.0,,,,974.3257471999386,94,48,male,True
334,92.0,25,F,up,0.5815993000287563,0.5105824332189081,,experiment,emotion,0.0,,,,975.8590691999998,94,48,male,True
335,104.0,25,M,up,0.5690115999896079,0.6142869877342549,,experiment,emotion,0.0,,,,977.3256751999724,94,48,male,True
336,80.0,25,M,down,0.6120807999977842,0.6111825448196466,,experiment,emotion,0.0,,,,978.7756146999308,94,48,male,True
337,116.0,25,F,up,0.5614858999615535,1.588239604298984,,experiment,emotion,0.0,,,,981.2422089999308,94,48,male,True
338,104.0,25,M,up,0.6105709000257775,0.9273694664830818,,experiment,emotion,0.0,,,,982.9921387999784,94,48,male,True
339,116.0,25,F,up,0.5746629999484867,1.424198632092465,,experiment,emotion,0.0,,,,985.2920449000084,94,48,male,True
340,80.0,25,M,down,0.8476980999112129,1.2515406948502414,,experiment,emotion,0.0,,,,987.391963699949,94,48,male,True
341,92.0,25,M,up,0.7308939000358805,1.9602619453380965,,experiment,emotion,0.0,,,,990.4918623999692,94,48,male,True
342,0.058824928031104,25,up,down,1.116788399987854,0.710238898459653,,experiment,cRDM,1.0,,,,995.6749144999776,94,48,male,True
343,0.058824928031104,25,up,down,0.7869252000236884,1.917823068368534,,experiment,cRDM,1.0,,,,998.9747998999665,94,48,male,True
344,0.058824928031104,25,down,down,1.1952966999961063,1.8122173902981416,,experiment,cRDM,1.0,,,,1001.841387799941,94,48,male,True
345,0.058824928031104,25,down,down,0.7738122000591829,1.6009272804572876,,experiment,cRDM,1.0,,,,1004.9079002999932,94,48,male,True
346,0.058824928031104,25,up,up,0.8911920000100508,0.545515547045181,,experiment,cRDM,1.0,,,,1006.4745089999632,94,48,male,True
347,0.058824928031104,25,down,down,0.5755683000897989,0.6967011180054167,,experiment,cRDM,1.0,,,,1008.341176499962,94,48,male,True
348,0.058824928031104,25,up,down,0.6420516999205574,1.710851610507201,,experiment,cRDM,1.0,,,,1010.9076625999296,94,48,male,True
349,0.058824928031104,25,up,up,1.1397423999151215,1.2291265219428429,,experiment,cRDM,1.0,,,,1013.041010499932,94,48,male,True
350,0.058824928031104,25,down,down,0.6838059000438079,0.3345423588880014,,experiment,cRDM,1.0,,,,1014.7908926999662,94,48,male,True
351,0.058824928031104,25,down,down,0.905926899984479,0.861084956911542,,experiment,cRDM,1.0,,,,1016.5908039999194,94,48,male,True
352,0.058824928031104,25,down,down,0.5699537999462336,1.5831887527067718,,experiment,cRDM,1.0,,,,1019.3407547000096,94,48,male,True
353,0.058824928031104,25,down,down,0.5644032000564039,1.539281217470048,,experiment,cRDM,1.0,,,,1021.7072917999468,94,48,male,True
354,0.058824928031104,25,down,up,0.8877959999954328,0.8362297747662621,,experiment,cRDM,1.0,,,,1023.3739045999246,94,48,male,True
355,0.058824928031104,25,down,down,0.5729437000118196,1.6026940500630862,,experiment,cRDM,1.0,,,,1026.123788399971,94,48,male,True
356,0.058824928031104,25,up,up,0.9843056000536308,1.684754574264712,,experiment,cRDM,1.0,,,,1028.6403916999698,94,48,male,True
357,0.058824928031104,25,up,down,0.6750548999989405,1.2821628674866503,,experiment,cRDM,1.0,,,,1031.1736428999577,94,48,male,True
358,0.058824928031104,25,up,down,0.9128927000565454,1.4862625633284314,,experiment,cRDM,1.0,,,,1033.6068330999697,94,48,male,True
359,0.058824928031104,25,up,down,0.6205126999411732,1.1578970178573662,,experiment,cRDM,1.0,,,,1035.940178400022,94,48,male,True
360,0.058824928031104,25,down,down,0.7070351000875235,1.8360897725658043,,experiment,cRDM,1.0,,,,1038.6566740999697,94,48,male,True
361,0.058824928031104,25,up,down,1.4691028000088409,1.8319553436101144,,experiment,cRDM,1.0,,,,1041.456591199967,94,48,male,True
362,0.058824928031104,25,up,down,0.67889149999246,1.3547077804485426,,experiment,cRDM,1.0,,,,1044.5398261999944,94,48,male,True
363,0.058824928031104,25,down,down,0.8603261000243947,0.91097678681992,,experiment,cRDM,1.0,,,,1046.406368899974,94,48,male,True
364,0.058824928031104,25,up,down,0.867704699980095,1.0210150016185746,,experiment,cRDM,1.0,,,,1048.5729894000106,94,48,male,True
365,0.058824928031104,25,down,down,0.7560845999978483,0.7351110365223484,,experiment,cRDM,1.0,,,,1050.4396272000158,94,48,male,True
366,0.058824928031104,25,down,down,0.8381460999371484,0.5637750729691968,,experiment,cRDM,1.0,,,,1052.0395438999403,94,48,male,True
367,0.058824928031104,25,up,down,0.57227900007274,0.8412142152113993,,experiment,cRDM,1.0,,,,1053.989446099964,94,48,male,True
368,0.058824928031104,25,up,up,0.7143455999903381,1.359037182724562,,experiment,cRDM,1.0,,,,1056.1893690000288,94,48,male,True
369,0.058824928031104,25,down,down,0.6603677000384778,0.6076663573684702,,experiment,cRDM,1.0,,,,1057.789324100013,94,48,male,True
370,0.058824928031104,25,up,up,0.6375138000585139,1.3837651652898115,,experiment,cRDM,1.0,,,,1060.0892065999797,94,48,male,True
371,0.058824928031104,25,down,down,0.5929032999556512,0.7528361491111535,,experiment,cRDM,1.0,,,,1061.7558306999272,94,48,male,True
372,0.058824928031104,25,down,down,0.6122574999462813,0.4089789959153199,,experiment,cRDM,1.0,,,,1063.022434299928,94,48,male,True
373,0.058824928031104,25,down,down,0.5019746000180021,0.7014399965548024,,experiment,cRDM,1.0,,,,1064.6057157999603,94,48,male,True
374,0.058824928031104,25,up,down,0.9750365000218152,1.2765952697573448,,experiment,cRDM,1.0,,,,1066.6556520999875,94,48,male,True
375,0.058824928031104,25,up,up,1.1704253000207243,0.8810251552951573,,experiment,cRDM,1.0,,,,1068.7722496000351,94,48,male,True
376,0.058824928031104,25,up,up,1.1442478999961168,1.1983796580281931,,experiment,cRDM,1.0,,,,1071.4054407000076,94,48,male,True
377,0.058824928031104,25,down,down,0.5586689999327064,1.924952110377436,,experiment,cRDM,1.0,,,,1074.722011399921,94,48,male,True
378,0.058824928031104,25,down,down,0.7530847999732941,1.600272517686624,,experiment,cRDM,1.0,,,,1077.1386277999263,94,48,male,True
379,0.058824928031104,25,up,up,1.1425338999833912,1.9605089255139143,,experiment,cRDM,1.0,,,,1080.1051532999843,94,48,male,True
380,0.058824928031104,25,down,up,2.3902960000559688,1.7711792103960071,,experiment,cRDM,1.0,,,,1083.2883738999951,94,48,male,True
381,0.058824928031104,25,up,up,0.837796299951151,1.7192518401147792,,experiment,cRDM,1.0,,,,1087.654893500032,94,48,male,True
382,0.058824928031104,25,up,up,1.017567400005646,1.577259871033748,,experiment,cRDM,1.0,,,,1090.3381420000223,94,48,male,True
383,0.058824928031104,25,up,down,0.69740130007267,1.1986053639559895,,experiment,cRDM,1.0,,,,1092.8213338999776,94,48,male,True
384,0.058824928031104,25,down,down,0.5597596999723464,1.7148617553318737,,experiment,cRDM,1.0,,,,1095.4879104000283,94,48,male,True
385,0.058824928031104,25,down,down,0.7384725000010803,0.3226602193404573,,experiment,cRDM,1.0,,,,1096.621213999926,94,48,male,True
386,0.058824928031104,25,up,down,0.792242499999702,1.8351715301993177,,experiment,cRDM,1.0,,,,1099.4544430000242,94,48,male,True
387,0.058824928031104,25,down,down,0.650673900032416,1.863902814923193,,experiment,cRDM,1.0,,,,1102.371010100003,94,48,male,True
388,0.058824928031104,25,down,down,0.6404297000262886,0.8608793582901195,,experiment,cRDM,1.0,,,,1104.154277099995,94,48,male,True
389,0.058824928031104,25,up,up,0.9611437999410556,1.44201507155122,,experiment,cRDM,1.0,,,,1106.4875409000088,94,48,male,True
390,0.058824928031104,25,up,up,0.9071986000053583,0.3107759257624973,,experiment,cRDM,1.0,,,,1108.0374873999972,94,48,male,True
391,0.058824928031104,25,down,down,0.5692719999933615,0.6444935105239946,,experiment,cRDM,1.0,,,,1109.8374312999658,94,48,male,True
392,0.058824928031104,25,up,up,0.9537093999097124,0.8976178908402415,,experiment,cRDM,1.0,,,,1111.5539920999436,94,48,male,True
393,0.058824928031104,25,down,down,0.483398399897851,1.7719226767029848,,experiment,cRDM,1.0,,,,1114.5372653999366,94,48,male,True
394,0.058824928031104,25,down,down,0.5775519000599161,1.7588800190986371,,experiment,cRDM,1.0,,,,1117.0371291999472,94,48,male,True
395,0.058824928031104,25,down,down,0.547931500012055,0.3356775269016744,,experiment,cRDM,1.0,,,,1118.2037519000005,94,48,male,True
396,0.058824928031104,25,up,down,0.6686374000273645,0.5663281225529642,,experiment,cRDM,1.0,,,,1119.5870356999803,94,48,male,True
397,0.058824928031104,25,up,up,1.055411999928765,1.4526459203786124,,experiment,cRDM,1.0,,,,1121.970270199934,94,48,male,True
398,0.058824928031104,25,down,down,0.6752662999788299,0.7126435635145831,,experiment,cRDM,1.0,,,,1124.0035196000244,94,48,male,True
399,0.058824928031104,25,down,down,0.6165973999304697,1.9261897899139588,,experiment,cRDM,1.0,,,,1126.8700988999335,94,48,male,True
400,0.058824928031104,25,up,down,0.5403822000371292,1.0997541160278734,,experiment,cRDM,1.0,,,,1128.8533670000031,94,48,male,True
401,0.058824928031104,25,up,down,0.763083100086078,1.4313916197381769,,experiment,cRDM,1.0,,,,1131.086605999968,94,48,male,True
402,0.058824928031104,25,up,down,0.6421020000707358,0.9249467416023271,,experiment,cRDM,1.0,,,,1133.036582199973,94,48,male,True
403,0.058824928031104,25,up,up,0.6909801999572664,0.8785674888773822,,experiment,cRDM,1.0,,,,1134.8197359000333,94,48,male,True
404,0.058824928031104,25,up,up,0.7369820000603795,1.9434529419265616,,experiment,cRDM,1.0,,,,1137.7196962999878,94,48,male,True
405,0.058824928031104,25,down,down,0.6713588000275195,0.7048805949389791,,experiment,cRDM,1.0,,,,1139.436353099998,94,48,male,True
406,0.058824928031104,25,down,down,0.5733811999671161,0.6791337310714951,,experiment,cRDM,1.0,,,,1141.0362735999515,94,48,male,True
407,0.058824928031104,25,up,down,0.5804481999948621,0.6649858185913202,,experiment,cRDM,1.0,,,,1142.5362353000091,94,48,male,True
408,0.058824928031104,25,down,up,1.135655099991709,1.2585954513337896,,experiment,cRDM,1.0,,,,1144.636110499967,94,48,male,True
409,0.058824928031104,25,down,down,0.6359438999788836,0.613551417736268,,experiment,cRDM,1.0,,,,1146.6527600999689,94,48,male,True
410,0.058824928031104,25,down,down,0.6353529999032617,0.4251843691118845,,experiment,cRDM,1.0,,,,1147.9693225999365,94,48,male,True
411,0.058824928031104,25,up,down,0.7734588000457734,1.6978752946183648,,experiment,cRDM,1.0,,,,1150.569237699965,94,48,male,True
412,0.058824928031104,25,down,down,0.7452258999692276,1.3070559401130797,,experiment,cRDM,1.0,,,,1152.9024488999275,94,48,male,True
413,0.058824928031104,25,down,down,0.9483005000511184,1.9430217101406584,,experiment,cRDM,1.0,,,,1155.8523740000091,94,48,male,True
414,0.058824928031104,25,down,down,0.6650705999927595,1.9233643082747665,,experiment,cRDM,1.0,,,,1158.985590599943,94,48,male,True
415,0.058824928031104,25,up,up,0.5032091999892145,1.816525436121223,,experiment,cRDM,1.0,,,,1161.735474599991,94,48,male,True
416,0.058824928031104,25,up,down,0.5389420000137761,1.0218607789043133,,experiment,cRDM,1.0,,,,1163.5187383999582,94,48,male,True
417,0.058824928031104,25,down,down,0.545349600026384,1.9238842519247337,,experiment,cRDM,1.0,,,,1166.2353253000183,94,48,male,True
418,0.058824928031104,25,up,up,1.3427578000118956,1.259099111854979,,experiment,cRDM,1.0,,,,1168.3019188999897,94,48,male,True
419,0.058824928031104,25,down,down,0.543598800082691,1.1384585068554904,,experiment,cRDM,1.0,,,,1171.0351440999657,94,48,male,True
420,0.058824928031104,25,up,down,0.5748906000517309,0.6067470718217352,,experiment,cRDM,1.0,,,,1172.4518189999508,94,48,male,True
421,0.058824928031104,25,up,up,1.1317365999566391,1.953675153253973,,experiment,cRDM,1.0,,,,1175.2349598000292,94,48,male,True
422,116.0,25,M,up,0.9985358000267296,0.8895788884662339,,experiment,emotion,1.0,,,,1180.6181556999218,94,48,male,True
423,80.0,25,M,down,0.4736950000515207,1.1215160623091542,,experiment,emotion,1.0,,,,1183.0180105000036,94,48,male,True
424,104.0,25,F,up,0.7366950999712572,1.446540402811361,,experiment,emotion,1.0,,,,1185.21797899995,94,48,male,True
425,116.0,25,F,up,0.6293671999592334,0.3365596801936186,,experiment,emotion,1.0,,,,1186.5513085999992,94,48,male,True
426,104.0,25,M,up,0.671780199976638,1.812582613334828,,experiment,emotion,1.0,,,,1189.2678929999238,94,48,male,True
427,92.0,25,F,up,1.121486600022763,0.482224760370058,,experiment,emotion,1.0,,,,1190.7011769999517,94,48,male,True
428,80.0,25,M,down,0.5665920999599621,0.7050614359088713,,experiment,emotion,1.0,,,,1192.8010806000093,94,48,male,True
429,92.0,25,M,up,0.7243293999927118,0.7416848393198385,,experiment,emotion,1.0,,,,1194.3843648999464,94,48,male,True
430,116.0,25,F,up,0.6831184999318793,1.7776359720671528,,experiment,emotion,1.0,,,,1197.1676002999302,94,48,male,True
431,92.0,25,F,down,0.5928311999887228,0.8729855059727205,,experiment,emotion,1.0,,,,1199.0008527999744,94,48,male,True
432,104.0,25,F,up,0.6532313999487087,0.8484536984571247,,experiment,emotion,1.0,,,,1200.7174366000108,94,48,male,True
433,116.0,25,F,up,0.60329580004327,1.4649999270834118,,experiment,emotion,1.0,,,,1203.1173679999774,94,48,male,True
434,104.0,25,F,up,0.5887146999593824,0.5323221322884873,,experiment,emotion,1.0,,,,1204.5339568000054,94,48,male,True
435,80.0,25,F,down,0.6917546999175102,1.3988386296700754,,experiment,emotion,1.0,,,,1206.7839024999412,94,48,male,True
436,92.0,25,M,up,0.9471474000019952,0.319874510662782,,experiment,emotion,1.0,,,,1208.050520699937,94,48,male,True
437,80.0,25,M,up,0.9705796999624,0.6529881312889789,,experiment,emotion,1.0,,,,1209.9170792999212,94,48,male,True
438,116.0,25,M,up,0.590998400002718,0.9136798517169752,,experiment,emotion,1.0,,,,1212.0837127999405,94,48,male,True
439,80.0,25,M,down,0.5393849000101909,0.9537914382743397,,experiment,emotion,1.0,,,,1213.900289400015,94,48,male,True
440,104.0,25,F,up,0.7224511000094935,1.7830875196549074,,experiment,emotion,1.0,,,,1216.5002123999875,94,48,male,True
441,104.0,25,M,up,0.5944908000528812,0.4995359674907002,,experiment,emotion,1.0,,,,1218.000166199985,94,48,male,True
442,92.0,25,M,up,0.5399209000170231,0.3741797591420135,,experiment,emotion,1.0,,,,1219.2667807999533,94,48,male,True
443,92.0,25,F,down,0.6279428000561893,0.3935126277408019,,experiment,emotion,1.0,,,,1220.4667410999537,94,48,male,True
444,80.0,25,M,down,0.6037221000296995,1.9377769690499087,,experiment,emotion,1.0,,,,1223.299949600012,94,48,male,True
445,116.0,25,F,up,0.7145702999550849,0.6064034506629914,,experiment,emotion,1.0,,,,1224.7832228000043,94,48,male,True
446,104.0,25,F,up,0.5728145999601111,0.6328827496839703,,experiment,emotion,1.0,,,,1226.3998505999334,94,48,male,True
447,80.0,25,M,up,0.4428719999268651,0.8508111886231915,,experiment,emotion,1.0,,,,1228.0997928000288,94,48,male,True
448,116.0,25,M,up,0.5229357000207528,0.9343755437802744,,experiment,emotion,1.0,,,,1229.7497352999635,94,48,male,True
449,116.0,25,F,down,0.7353552000131458,1.618891661979225,,experiment,emotion,1.0,,,,1232.1663134000264,94,48,male,True
450,92.0,25,M,down,0.5844627999467775,1.182521949573256,,experiment,emotion,1.0,,,,1234.366227600025,94,48,male,True
451,80.0,25,F,up,0.8195758000947535,1.0983881928147023,,experiment,emotion,1.0,,,,1236.316135299974,94,48,male,True
452,92.0,25,F,up,0.6608987000072375,0.5365995393972256,,experiment,emotion,1.0,,,,1237.932761300006,94,48,male,True
453,104.0,25,F,up,0.6320118000730872,1.3473527737844162,,experiment,emotion,1.0,,,,1240.232690899982,94,48,male,True
454,80.0,25,M,down,0.5920581000391394,1.1370616422967448,,experiment,emotion,1.0,,,,1242.2826066999696,94,48,male,True
455,116.0,25,M,up,0.9305010999087244,1.5509727751206472,,experiment,emotion,1.0,,,,1244.6991720999358,94,48,male,True
456,104.0,25,M,up,0.519524100003764,0.5542957837739956,,experiment,emotion,1.0,,,,1246.44912330003,94,48,male,True
457,116.0,25,F,up,0.5472791999345645,0.6495692417630246,,experiment,emotion,1.0,,,,1247.8823890999192,94,48,male,True
458,80.0,25,F,down,0.561029399977997,1.1138999414341937,,experiment,emotion,1.0,,,,1249.815634300001,94,48,male,True
459,104.0,25,M,up,0.5550551998894662,0.8308336198443793,,experiment,emotion,1.0,,,,1251.4656086999455,94,48,male,True
460,92.0,25,F,up,0.6062151999212801,1.8048503531727549,,experiment,emotion,1.0,,,,1254.115480999928,94,48,male,True
461,92.0,25,M,up,0.5769515000283718,1.8586094945317997,,experiment,emotion,1.0,,,,1256.8487373000244,94,48,male,True
462,104.0,25,M,up,0.5002881999826059,0.8103326547128891,,experiment,emotion,1.0,,,,1258.5153244999235,94,48,male,True
463,116.0,25,M,up,0.5190593000734225,1.1145908995769462,,experiment,emotion,1.0,,,,1260.398604799993,94,48,male,True
464,92.0,25,F,up,0.6078316000057384,0.4407839268418498,,experiment,emotion,1.0,,,,1261.631829999969,94,48,male,True
465,80.0,25,F,down,0.6035626999801025,1.5914496514836274,,experiment,emotion,1.0,,,,1264.1151083000004,94,48,male,True
466,80.0,25,M,up,0.484633499989286,1.6743502095923497,,experiment,emotion,1.0,,,,1266.665045899921,94,48,male,True
467,92.0,25,F,up,0.4670017000753432,0.6155631123597918,,experiment,emotion,1.0,,,,1268.0316589999711,94,48,male,True
468,116.0,25,F,up,0.537377699976787,0.3722074549397182,,experiment,emotion,1.0,,,,1269.1482720000204,94,48,male,True
469,104.0,25,M,up,0.5628806999884546,1.3524114006913093,,experiment,emotion,1.0,,,,1271.3148411000147,94,48,male,True
470,80.0,25,M,up,0.538897099904716,1.4759852756939278,,experiment,emotion,1.0,,,,1273.6147645999445,94,48,male,True
471,116.0,25,F,up,0.5152485999278724,0.6560988452358877,,experiment,emotion,1.0,,,,1275.08138889994,94,48,male,True
472,104.0,25,M,up,0.6406908000353724,1.625890810055719,,experiment,emotion,1.0,,,,1277.4979672000045,94,48,male,True
473,104.0,25,F,up,0.5337253999896348,1.1949227964329008,,experiment,emotion,1.0,,,,1279.5978959000204,94,48,male,True
474,80.0,25,F,down,0.5251990000251681,1.963227905453276,,experiment,emotion,1.0,,,,1282.3644603999564,94,48,male,True
475,92.0,25,F,up,0.5453256999608129,1.7507692461971904,,experiment,emotion,1.0,,,,1284.9143278999254,94,48,male,True
476,116.0,25,M,up,0.527707300032489,0.9361719921652144,,experiment,emotion,1.0,,,,1286.6809696999844,94,48,male,True
477,92.0,25,M,up,0.5230723000131547,0.8619530759154101,,experiment,emotion,1.0,,,,1288.3475746000186,94,48,male,True
478,92.0,25,F,up,0.6612002999754623,1.6202166765330854,,experiment,emotion,1.0,,,,1290.7474924999988,94,48,male,True
479,92.0,25,F,up,1.4375366000458598,0.8054177427753413,,experiment,emotion,1.0,,,,1292.464099799981,94,48,male,True
480,116.0,25,M,up,0.6040195000823587,1.9592682650628548,,experiment,emotion,1.0,,,,1296.1306230999762,94,48,male,True
481,104.0,25,M,up,0.6297635000664741,1.049402033692168,,experiment,emotion,1.0,,,,1298.0638904999942,94,48,male,True
482,80.0,25,M,down,0.7425411000149325,1.7666243219064124,,experiment,emotion,1.0,,,,1300.747117199935,94,48,male,True
483,80.0,25,M,down,0.6312923000659794,1.9272953713272012,,experiment,emotion,1.0,,,,1303.680360900005,94,48,male,True
484,104.0,25,M,up,0.6837531999917701,1.2174964913217443,,experiment,emotion,1.0,,,,1305.7969213000033,94,48,male,True
485,116.0,25,F,up,0.5738363000564277,1.802310443945593,,experiment,emotion,1.0,,,,1308.5468403999694,94,48,male,True
486,116.0,25,F,up,0.9429088999750092,1.0385343248385144,,experiment,emotion,1.0,,,,1310.4467504000058,94,48,male,True
487,80.0,25,M,down,0.6156468999106437,1.1327320097192075,,experiment,emotion,1.0,,,,1312.7800038999412,94,48,male,True
488,116.0,25,F,up,0.6957168000517413,0.7533604943754038,,experiment,emotion,1.0,,,,1314.4299426999642,94,48,male,True
489,92.0,25,F,down,0.7714810000034049,1.143961322863461,,experiment,emotion,1.0,,,,1316.5632047000108,94,48,male,True
490,104.0,25,F,up,0.907571200048551,1.721628801217373,,experiment,emotion,1.0,,,,1319.313048299984,94,48,male,True
491,92.0,25,M,down,0.7106434999732301,1.5721836803162996,,experiment,emotion,1.0,,,,1322.0630126999458,94,48,male,True
492,80.0,25,F,down,0.7287398000480607,0.6669786005139424,,experiment,emotion,1.0,,,,1323.7129039999563,94,48,male,True
493,104.0,25,F,up,0.967809799942188,1.400037316320217,,experiment,emotion,1.0,,,,1326.1128219999373,94,48,male,True
494,92.0,25,F,up,0.976202299934812,0.8304705524174898,,experiment,emotion,1.0,,,,1328.1794313000282,94,48,male,True
495,104.0,25,M,up,0.9372823999729007,1.1057269884808347,,experiment,emotion,1.0,,,,1330.5293707000092,94,48,male,True
496,80.0,25,M,down,0.7673505999846384,0.4476397403529411,,experiment,emotion,1.0,,,,1332.1792944000335,94,48,male,True
497,116.0,25,F,up,0.9818107000319288,1.8710096865786408,,experiment,emotion,1.0,,,,1335.09585589997,94,48,male,True
498,104.0,25,M,up,0.6819201000034809,1.102363194802451,,experiment,emotion,1.0,,,,1337.445730999927,94,48,male,True
499,116.0,25,F,up,0.6156143000116572,0.7772603171050892,,experiment,emotion,1.0,,,,1339.1790421999758,94,48,male,True
500,80.0,25,M,up,0.9270189999369904,1.4718678138415648,,experiment,emotion,1.0,,,,1341.5456095000263,94,48,male,True
501,92.0,25,M,up,0.5887397000333294,0.7267713120507318,,experiment,emotion,1.0,,,,1343.4788977999706,94,48,male,True
502,0.058824928031104,25,up,up,0.8063974999822676,1.4042214070179115,,experiment,cRDM,2.0,,,,1348.0452899999218,94,48,male,True
503,0.058824928031104,25,up,down,0.8611670000245795,0.9723994681617614,,experiment,cRDM,2.0,,,,1350.078519999981,94,48,male,True
504,0.058824928031104,25,down,down,0.7881343000335619,0.3762166658319144,,experiment,cRDM,2.0,,,,1351.578508000006,94,48,male,True
505,0.058824928031104,25,down,down,0.8505868000211194,1.5328174829757713,,experiment,cRDM,2.0,,,,1354.1450861999765,94,48,male,True
506,0.058824928031104,25,up,up,0.8156436000717804,0.3840880144039874,,experiment,cRDM,2.0,,,,1355.645023799967,94,48,male,True
507,0.058824928031104,25,down,down,0.9803625999484212,1.3479904254903203,,experiment,cRDM,2.0,,,,1358.0782772999955,94,48,male,True
508,0.058824928031104,25,up,down,0.7871276000514627,0.7323622331197709,,experiment,cRDM,2.0,,,,1360.0615373000037,94,48,male,True
509,0.058824928031104,25,up,down,0.7904556000139564,0.6092067713084964,,experiment,cRDM,2.0,,,,1361.7281825999962,94,48,male,True
510,0.058824928031104,25,down,down,0.7729032998904586,0.3608475252666367,,experiment,cRDM,2.0,,,,1363.1447449999396,94,48,male,True
511,0.058824928031104,25,down,down,0.5659689999883994,0.3188755194699291,,experiment,cRDM,2.0,,,,1364.4946789999958,94,48,male,True
512,0.058824928031104,25,down,down,0.6153701998991892,1.0987141572443757,,experiment,cRDM,2.0,,,,1366.4112867999356,94,48,male,True
513,0.058824928031104,25,down,up,0.6554361000889912,1.5398319754794314,,experiment,cRDM,2.0,,,,1368.8112120999722,94,48,male,True
514,0.058824928031104,25,down,down,0.663525199983269,0.470998097006306,,experiment,cRDM,2.0,,,,1370.2111360999988,94,48,male,True
515,0.058824928031104,25,down,down,0.6512551000341773,0.5558703990917415,,experiment,cRDM,2.0,,,,1371.6944235999836,94,48,male,True
516,0.058824928031104,25,up,up,1.6218945999862626,0.520218869525485,,experiment,cRDM,2.0,,,,1373.1277475999668,94,48,male,True
517,0.058824928031104,25,up,down,0.677039600093849,1.6686349083993437,,experiment,cRDM,2.0,,,,1376.6775890999706,94,48,male,True
518,0.058824928031104,25,up,down,0.6691450000507757,0.8104227685521495,,experiment,cRDM,2.0,,,,1378.4275461999932,94,48,male,True
519,0.058824928031104,25,up,down,0.695259700063616,1.163849674610322,,experiment,cRDM,2.0,,,,1380.5274834999582,94,48,male,True
520,0.058824928031104,25,down,down,0.8032876000506803,0.6387612959140954,,experiment,cRDM,2.0,,,,1382.1274114999687,94,48,male,True
521,0.058824928031104,25,up,down,0.6103236000053585,0.7865653002314807,,experiment,cRDM,2.0,,,,1383.9773036999395,94,48,male,True
522,0.058824928031104,25,up,up,0.8977860999293625,1.5507881555132006,,experiment,cRDM,2.0,,,,1386.3938851000275,94,48,male,True
523,0.058824928031104,25,down,down,0.8884656000882387,1.6780863529809014,,experiment,cRDM,2.0,,,,1389.2271685999583,94,48,male,True
524,0.058824928031104,25,up,down,0.708920200006105,0.3103095512681484,,experiment,cRDM,2.0,,,,1390.693720899988,94,48,male,True
525,0.058824928031104,25,down,down,0.5756201000185683,1.1203164158309609,,experiment,cRDM,2.0,,,,1392.7770177000202,94,48,male,True
526,0.058824928031104,25,down,down,0.9516386999748648,0.6109162072823495,,experiment,cRDM,2.0,,,,1394.226975800004,94,48,male,True
527,0.058824928031104,25,up,up,0.6731467000208795,1.4488943593931565,,experiment,cRDM,2.0,,,,1396.8934834999964,94,48,male,True
528,0.058824928031104,25,up,down,0.6982000999851152,0.560501897063809,,experiment,cRDM,2.0,,,,1398.3934195999757,94,48,male,True
529,0.058824928031104,25,down,down,1.2715912000276148,1.0525137632235986,,experiment,cRDM,2.0,,,,1400.4100528999695,94,48,male,True
530,0.058824928031104,25,up,down,0.9034059999976308,0.9486481577354092,,experiment,cRDM,2.0,,,,1402.893275499926,94,48,male,True
531,0.058824928031104,25,down,down,0.6871371000306681,1.8691430748416675,,experiment,cRDM,2.0,,,,1405.9265524999937,94,48,male,True
532,0.058824928031104,25,down,down,0.6945353999035433,0.9759711850788556,,experiment,cRDM,2.0,,,,1407.8430998999393,94,48,male,True
533,0.058824928031104,25,down,down,0.7189216000260785,0.3076656282310701,,experiment,cRDM,2.0,,,,1409.109746000031,94,48,male,True
534,0.058824928031104,25,up,up,0.8297682000556961,1.9985415469653565,,experiment,cRDM,2.0,,,,1412.092920199968,94,48,male,True
535,0.058824928031104,25,up,down,0.772790800081566,0.7106282199205416,,experiment,cRDM,2.0,,,,1413.8928660999518,94,48,male,True
536,0.058824928031104,25,up,down,0.6328464000253007,0.596641803866355,,experiment,cRDM,2.0,,,,1415.5097982999869,94,48,male,True
537,0.058824928031104,25,down,down,0.54889369988814,1.6216676369904093,,experiment,cRDM,2.0,,,,1418.042739699944,94,48,male,True
538,0.058824928031104,25,down,down,0.6040533999912441,1.233509149530808,,experiment,cRDM,2.0,,,,1420.0926392999245,94,48,male,True
539,0.058824928031104,25,up,down,0.6374588999897242,1.847232181702702,,experiment,cRDM,2.0,,,,1422.809204099933,94,48,male,True
540,0.058824928031104,25,down,down,0.6362234000116587,1.9386170827714664,,experiment,cRDM,2.0,,,,1425.6424470000202,94,48,male,True
541,0.058824928031104,25,up,up,1.3988721000496298,1.0789162425574386,,experiment,cRDM,2.0,,,,1427.6257640999977,94,48,male,True
542,0.058824928031104,25,up,down,0.6056720999768004,0.7208909085891209,,experiment,cRDM,2.0,,,,1430.0089770000195,94,48,male,True
543,0.058824928031104,25,up,down,0.9304572999244556,1.7136166141372056,,experiment,cRDM,2.0,,,,1432.592178700026,94,48,male,True
544,0.058824928031104,25,down,down,0.6235023000044748,0.8721557906956954,,experiment,cRDM,2.0,,,,1434.642122099991,94,48,male,True
545,0.058824928031104,25,down,down,0.8169350000098348,1.4208434509884302,,experiment,cRDM,2.0,,,,1436.958703399985,94,48,male,True
546,0.058824928031104,25,up,up,0.9530307999812068,1.415412418729545,,experiment,cRDM,2.0,,,,1439.458625899977,94,48,male,True
547,0.058824928031104,25,down,up,0.988419400062412,1.6582430698008888,,experiment,cRDM,2.0,,,,1442.3252149999607,94,48,male,True
548,0.058824928031104,25,down,up,0.9315121000399812,1.4497231868139189,,experiment,cRDM,2.0,,,,1445.025106500019,94,48,male,True
549,0.058824928031104,25,up,up,0.8870831000385806,1.560565874032435,,experiment,cRDM,2.0,,,,1447.791618200019,94,48,male,True
550,0.058824928031104,25,up,up,0.9510762999998406,0.5032444829526175,,experiment,cRDM,2.0,,,,1449.4415600999491,94,48,male,True
551,0.058824928031104,25,down,down,0.7961490000598133,0.4718443886144963,,experiment,cRDM,2.0,,,,1451.141509499983,94,48,male,True
552,0.058824928031104,25,up,down,0.7869030999718234,1.0813898504259087,,experiment,cRDM,2.0,,,,1453.2747549000196,94,48,male,True
553,0.058824928031104,25,down,down,0.6756423000479117,1.539334663891314,,experiment,cRDM,2.0,,,,1455.858010099968,94,48,male,True
554,0.058824928031104,25,down,down,0.8177827999461442,1.6621937138280451,,experiment,cRDM,2.0,,,,1458.4579140000278,94,48,male,True
555,0.058824928031104,25,down,down,1.0894644999643788,1.3353271044450097,,experiment,cRDM,2.0,,,,1460.891148500028,94,48,male,True
556,0.058824928031104,25,up,up,0.9922028000000864,0.7382319104093547,,experiment,cRDM,2.0,,,,1462.9744301999451,94,48,male,True
557,0.058824928031104,25,up,up,1.0750121000455692,1.1339101321619969,,experiment,cRDM,2.0,,,,1465.3576097999469,94,48,male,True
558,0.058824928031104,25,down,down,0.7087496999884024,1.504708374505053,,experiment,cRDM,2.0,,,,1468.1908627999946,94,48,male,True
559,0.058824928031104,25,down,down,0.7224282999522984,0.4567494715553573,,experiment,cRDM,2.0,,,,1469.6242057000054,94,48,male,True
560,0.058824928031104,25,up,up,0.9785338999936356,1.1627497261205133,,experiment,cRDM,2.0,,,,1471.774087699945,94,48,male,True
561,0.058824928031104,25,up,up,0.8343038000166416,1.625301702172013,,experiment,cRDM,2.0,,,,1474.6573285999475,94,48,male,True
562,0.058824928031104,25,up,up,0.7687349999323487,1.4298779576240073,,experiment,cRDM,2.0,,,,1477.1738802000182,94,48,male,True
563,0.058824928031104,25,up,up,0.9581801999593154,1.6880543619503037,,experiment,cRDM,2.0,,,,1479.890445300029,94,48,male,True
564,0.058824928031104,25,up,down,0.5538999999407679,0.4710497814113057,,experiment,cRDM,2.0,,,,1481.573729399941,94,48,male,True
565,0.058824928031104,25,down,down,0.6753465000074357,1.802377044933883,,experiment,cRDM,2.0,,,,1484.1902804999845,94,48,male,True
566,0.058824928031104,25,down,down,0.5647938998881727,0.4873727478163349,,experiment,cRDM,2.0,,,,1485.6069213999435,94,48,male,True
567,0.058824928031104,25,up,down,0.6590886999620125,1.7807074856468073,,experiment,cRDM,2.0,,,,1488.2235422999363,94,48,male,True
568,0.058824928031104,25,down,up,0.9458925999933854,1.5108452170597484,,experiment,cRDM,2.0,,,,1490.6567227999913,94,48,male,True
569,0.058824928031104,25,down,down,0.6383271000813693,1.317017855775416,,experiment,cRDM,2.0,,,,1493.173305299948,94,48,male,True
570,0.058824928031104,25,down,up,0.976094700046815,1.0804786639878798,,experiment,cRDM,2.0,,,,1495.1565547999926,94,48,male,True
571,0.058824928031104,25,up,down,0.6101931999437511,1.5556846423464228,,experiment,cRDM,2.0,,,,1497.9564782999223,94,48,male,True
572,0.058824928031104,25,down,down,0.6006264000898227,0.8321308460167567,,experiment,cRDM,2.0,,,,1499.6730638999725,94,48,male,True
573,0.058824928031104,25,down,down,0.6460174999665469,0.445010945242552,,experiment,cRDM,2.0,,,,1500.9896789999912,94,48,male,True
574,0.058824928031104,25,down,down,0.6683403999777511,0.8624634685971908,,experiment,cRDM,2.0,,,,1502.7562831999967,94,48,male,True
575,0.058824928031104,25,up,down,0.6074512000195682,1.9709104057471436,,experiment,cRDM,2.0,,,,1505.6561744000064,94,48,male,True
576,0.058824928031104,25,up,down,0.627503199968487,0.7834979039991996,,experiment,cRDM,2.0,,,,1507.3061081999913,94,48,male,True
577,0.058824928031104,25,down,down,0.6232772000366822,0.5488411386745601,,experiment,cRDM,2.0,,,,1508.7394048999995,94,48,male,True
578,0.058824928031104,25,up,up,1.027384200016968,0.5498636687908613,,experiment,cRDM,2.0,,,,1510.1893152999692,94,48,male,True
579,0.058824928031104,25,down,down,0.5039758000057191,0.6486306895777001,,experiment,cRDM,2.0,,,,1512.122650000034,94,48,male,True
580,0.058824928031104,25,up,down,0.738730699988082,0.3239465783454429,,experiment,cRDM,2.0,,,,1513.2058926000027,94,48,male,True
581,0.058824928031104,25,up,down,0.7067947000032291,1.2334833086635144,,experiment,cRDM,2.0,,,,1515.45581710001,94,48,male,True
582,116.0,25,M,up,0.5912992999656126,1.8183459747934447,,experiment,emotion,2.0,,,,1520.8723536999896,94,48,male,True
583,80.0,25,M,down,0.6227037999778986,1.5336048799962625,,experiment,emotion,2.0,,,,1523.2889218999771,94,48,male,True
584,104.0,25,F,up,0.743095500045456,0.703174172429561,,experiment,emotion,2.0,,,,1524.9055131999776,94,48,male,True
585,116.0,25,F,up,0.5655360999517143,0.612789501556412,,experiment,emotion,2.0,,,,1526.5221581999213,94,48,male,True
586,104.0,25,M,up,0.5822580000385642,0.7441718480609993,,experiment,emotion,2.0,,,,1528.1054241999518,94,48,male,True
587,92.0,25,F,up,0.7779609999852255,1.0070397535553737,,experiment,emotion,2.0,,,,1529.988673300017,94,48,male,True
588,80.0,25,M,up,0.5413475000532344,0.7105015422453946,,experiment,emotion,2.0,,,,1531.755299499957,94,48,male,True
589,92.0,25,M,down,0.8150634999619797,0.6755965504908998,,experiment,emotion,2.0,,,,1533.238578199991,94,48,male,True
590,116.0,25,F,up,0.5747940000146627,1.3919305820978936,,experiment,emotion,2.0,,,,1535.7218223999953,94,48,male,True
591,92.0,25,F,up,1.468870599986985,1.4646008445425769,,experiment,emotion,2.0,,,,1538.021746299928,94,48,male,True
592,104.0,25,F,up,0.5543582999380305,0.5872126340106625,,experiment,emotion,2.0,,,,1540.3383244000142,94,48,male,True
593,116.0,25,F,up,0.608409900101833,1.030484079007466,,experiment,emotion,2.0,,,,1542.1882130999584,94,48,male,True
594,104.0,25,F,up,0.9668177999556063,1.646655327680244,,experiment,emotion,2.0,,,,1544.704793700017,94,48,male,True
595,80.0,25,F,down,0.8582294000079855,0.6172417215270092,,experiment,emotion,2.0,,,,1546.5714344999287,94,48,male,True
596,92.0,25,M,down,1.0959161999635398,0.4588319386385123,,experiment,emotion,2.0,,,,1548.1546800999204,94,48,male,True
597,80.0,25,M,down,0.6217372000683099,1.9232542039406724,,experiment,emotion,2.0,,,,1551.4378786999732,94,48,male,True
598,116.0,25,M,up,0.7531861000461504,0.8647626752256643,,experiment,emotion,2.0,,,,1553.204423499992,94,48,male,True
599,80.0,25,M,down,0.6821924999821931,0.8346502369016249,,experiment,emotion,2.0,,,,1555.054425499984,94,48,male,True
600,104.0,25,F,up,0.8982717999024317,1.7466819408266938,,experiment,emotion,2.0,,,,1557.7543335999362,94,48,male,True
601,104.0,25,M,up,0.885701599996537,1.099075759318726,,experiment,emotion,2.0,,,,1560.0209067999383,94,48,male,True
602,92.0,25,M,up,1.2390889000380412,0.9426077506735556,,experiment,emotion,2.0,,,,1562.1375062000006,94,48,male,True
603,92.0,25,F,up,0.7765726000070572,1.7985865768210896,,experiment,emotion,2.0,,,,1565.4540436000098,94,48,male,True
604,80.0,25,M,down,0.6432938000652939,0.7415610687701262,,experiment,emotion,2.0,,,,1567.237320199958,94,48,male,True
605,116.0,25,F,up,0.934364299988374,0.7320761258674641,,experiment,emotion,2.0,,,,1568.8872571999673,94,48,male,True
606,104.0,25,F,up,0.6450952999293804,0.7631719500771734,,experiment,emotion,2.0,,,,1570.87052519992,94,48,male,True
607,80.0,25,M,up,0.7802740000188351,1.938857426280548,,experiment,emotion,2.0,,,,1573.7204321000029,94,48,male,True
608,116.0,25,M,up,0.5619503000052646,1.2429563893360496,,experiment,emotion,2.0,,,,1576.003664299962,94,48,male,True
609,116.0,25,F,up,0.6400851000798866,1.8567374552455784,,experiment,emotion,2.0,,,,1578.7035336999688,94,48,male,True
610,92.0,25,M,up,1.0104320000391454,0.9940724017736916,,experiment,emotion,2.0,,,,1580.620179599966,94,48,male,True
611,80.0,25,F,down,0.6275421000318602,1.600447151728833,,experiment,emotion,2.0,,,,1583.5200721999863,94,48,male,True
612,92.0,25,F,up,0.7030464999843389,1.6644836128506917,,experiment,emotion,2.0,,,,1586.0866114000091,94,48,male,True
613,104.0,25,F,up,0.5451288000913337,1.9021665703902333,,experiment,emotion,2.0,,,,1588.9865112999687,94,48,male,True
614,80.0,25,M,up,0.517589999944903,0.9548629113073536,,experiment,emotion,2.0,,,,1590.7530931999208,94,48,male,True
615,116.0,25,M,up,0.6218821000074968,1.1614717440109157,,experiment,emotion,2.0,,,,1592.719733499922,94,48,male,True
616,104.0,25,M,up,0.5849119999911636,0.7017461192132605,,experiment,emotion,2.0,,,,1594.3196681999834,94,48,male,True
617,116.0,25,F,up,0.6553515999112278,0.8211997862531373,,experiment,emotion,2.0,,,,1595.9862772999331,94,48,male,True
618,80.0,25,F,down,1.1134146000258625,0.5135670424209369,,experiment,emotion,2.0,,,,1597.4362115999684,94,48,male,True
619,104.0,25,M,up,0.8124867000151426,1.015881454070119,,experiment,emotion,2.0,,,,1599.8361229000147,94,48,male,True
620,92.0,25,F,up,1.11596309999004,1.1733496003908623,,experiment,emotion,2.0,,,,1602.1026807000162,94,48,male,True
621,92.0,25,M,up,0.6060334999347106,0.3153235443003008,,experiment,emotion,2.0,,,,1603.8025678999256,94,48,male,True
622,104.0,25,M,up,0.5783994999947026,1.4813684122117607,,experiment,emotion,2.0,,,,1606.1692143999971,94,48,male,True
623,116.0,25,M,up,0.8991258000023663,0.6701319018688477,,experiment,emotion,2.0,,,,1607.7024752999423,94,48,male,True
624,92.0,25,F,up,1.227864500018768,0.81643479026634,,experiment,emotion,2.0,,,,1609.6857446000213,94,48,male,True
625,80.0,25,F,down,0.6166080000111833,1.766683788436608,,experiment,emotion,2.0,,,,1612.9689846999245,94,48,male,True
626,80.0,25,M,down,0.8940711000468582,0.8241737616943197,,experiment,emotion,2.0,,,,1614.6855592000063,94,48,male,True
627,92.0,25,F,down,0.6504298000363633,1.0992042373425366,,experiment,emotion,2.0,,,,1616.9521754999878,94,48,male,True
628,116.0,25,F,up,0.6308582000201568,1.1634560941817955,,experiment,emotion,2.0,,,,1619.0187330000335,94,48,male,True
629,104.0,25,M,up,0.5725622000172734,0.625433391738387,,experiment,emotion,2.0,,,,1620.552041899995,94,48,male,True
630,80.0,25,M,down,0.7343706000829116,1.5787110265078736,,experiment,emotion,2.0,,,,1622.9852405999554,94,48,male,True
631,116.0,25,F,up,0.6271113000111654,1.5356252334682632,,experiment,emotion,2.0,,,,1625.51851850003,94,48,male,True
632,104.0,25,M,up,0.5395566000370309,0.6083872724482959,,experiment,emotion,2.0,,,,1627.0351042000111,94,48,male,True
633,104.0,25,F,up,0.5635285000316799,0.4848309667036504,,experiment,emotion,2.0,,,,1628.33507869998,94,48,male,True
634,80.0,25,F,down,0.669973700074479,1.0299675710377283,,experiment,emotion,2.0,,,,1630.2016542999772,94,48,male,True
635,92.0,25,F,down,0.9533338999608532,0.8140817434032803,,experiment,emotion,2.0,,,,1631.9682957000332,94,48,male,True
636,116.0,25,M,up,0.6147757000289857,1.3774241434063177,,experiment,emotion,2.0,,,,1634.584831999964,94,48,male,True
637,92.0,25,M,up,0.5778859999263659,1.7172187937607253,,experiment,emotion,2.0,,,,1637.1847392999334,94,48,male,True
638,92.0,25,F,up,0.6415547000942752,0.741048304445449,,experiment,emotion,2.0,,,,1638.7680203999626,94,48,male,True
639,92.0,25,F,down,1.0063474000198769,1.4734229914773005,,experiment,emotion,2.0,,,,1641.1512827000115,94,48,male,True
640,116.0,25,M,up,0.6427877000533044,0.6938554256400133,,experiment,emotion,2.0,,,,1643.117841099971,94,48,male,True
641,104.0,25,M,up,0.908794300048612,0.7391255274432268,,experiment,emotion,2.0,,,,1644.7678134000162,94,48,male,True
642,80.0,25,M,down,0.6128878999734297,1.252764491515517,,experiment,emotion,2.0,,,,1647.2177000999218,94,48,male,True
643,80.0,25,M,down,0.6976572999265045,0.949205182392701,,experiment,emotion,2.0,,,,1649.050948399934,94,48,male,True
644,104.0,25,M,up,0.6527658000122756,1.6925896867951882,,experiment,emotion,2.0,,,,1651.700834200019,94,48,male,True
645,116.0,25,F,up,0.6294756999704987,1.6140333742557151,,experiment,emotion,2.0,,,,1654.2341143999947,94,48,male,True
646,116.0,25,F,up,0.6142342999810353,0.6165795030520127,,experiment,emotion,2.0,,,,1655.76739059994,94,48,male,True
647,80.0,25,M,up,0.8239286999450997,0.8058170273471339,,experiment,emotion,2.0,,,,1657.4506709999405,94,48,male,True
648,116.0,25,F,up,0.8803107000421733,0.4654913759862544,,experiment,emotion,2.0,,,,1659.0172921000049,94,48,male,True
649,92.0,25,F,up,0.8117038001073524,0.7437085861181194,,experiment,emotion,2.0,,,,1660.9339016999584,94,48,male,True
650,104.0,25,F,up,0.581437399960123,0.3024544062912268,,experiment,emotion,2.0,,,,1662.3171639000066,94,48,male,True
651,92.0,25,M,up,0.6118643999798223,0.8202893815392562,,experiment,emotion,2.0,,,,1663.9837366000284,94,48,male,True
652,80.0,25,F,up,1.1439728999976069,0.77393032521139,,experiment,emotion,2.0,,,,1665.6336715000216,94,48,male,True
653,104.0,25,F,up,0.5686625000089407,1.421272840773398,,experiment,emotion,2.0,,,,1668.4669407999609,94,48,male,True
654,92.0,25,F,up,0.8294204999692738,0.6018346084968154,,experiment,emotion,2.0,,,,1669.900185000035,94,48,male,True
655,104.0,25,M,up,0.5407864999724552,1.2209931274292498,,experiment,emotion,2.0,,,,1672.2168147999328,94,48,male,True
656,80.0,25,M,down,0.5875603000167757,1.076733948766281,,experiment,emotion,2.0,,,,1674.100039199926,94,48,male,True
657,116.0,25,F,up,0.5716538999695331,1.682660008089803,,experiment,emotion,2.0,,,,1676.6499671000056,94,48,male,True
658,104.0,25,M,up,0.5857241000048816,0.6135601867090592,,experiment,emotion,2.0,,,,1678.0998749999562,94,48,male,True
659,116.0,25,F,up,0.60343710007146,1.6684896727348464,,experiment,emotion,2.0,,,,1680.6331800000044,94,48,male,True
660,80.0,25,M,down,0.7295206000562757,0.6374540496535643,,experiment,emotion,2.0,,,,1682.1330990999704,94,48,male,True
661,92.0,25,M,down,1.077600600081496,1.3969394566998357,,experiment,emotion,2.0,,,,1684.5330208999803,94,48,male,True
662,0.058824928031104,25,up,up,0.7632804999593645,1.8291019698328224,,experiment,cRDM,3.0,,,,1690.5993508999236,94,48,male,True
663,0.058824928031104,25,up,down,0.6723192000063136,1.733128587441197,,experiment,cRDM,3.0,,,,1693.349278699956,94,48,male,True
664,0.058824928031104,25,down,down,0.8393908001016825,1.5703926197320848,,experiment,cRDM,3.0,,,,1695.8491868999554,94,48,male,True
665,0.058824928031104,25,down,up,0.6548102999804541,1.1176112795567876,,experiment,cRDM,3.0,,,,1698.0657772999257,94,48,male,True
666,0.058824928031104,25,up,down,0.587627400062047,0.8172249088925436,,experiment,cRDM,3.0,,,,1699.7990263999673,94,48,male,True
667,0.058824928031104,25,down,down,0.7496335000032559,0.8539845664637329,,experiment,cRDM,3.0,,,,1701.498993400019,94,48,male,True
668,0.058824928031104,25,up,down,0.6214061999926344,1.190484416440903,,experiment,cRDM,3.0,,,,1703.699215300032,94,48,male,True
669,0.058824928031104,25,up,up,1.2904763999395072,1.551497656138327,,experiment,cRDM,3.0,,,,1706.132157100015,94,48,male,True
670,0.058824928031104,25,down,down,0.6475725999334827,0.8980215253243038,,experiment,cRDM,3.0,,,,1708.582058400032,94,48,male,True
671,0.058824928031104,25,down,down,0.6193092999747023,1.6774572433127606,,experiment,cRDM,3.0,,,,1711.1652778999414,94,48,male,True
672,0.058824928031104,25,down,down,0.6140950999688357,1.9975219931254955,,experiment,cRDM,3.0,,,,1714.048499400029,94,48,male,True
673,0.058824928031104,25,down,down,0.5941824000328779,1.873498252842396,,experiment,cRDM,3.0,,,,1716.7984630999854,94,48,male,True
674,0.058824928031104,25,down,up,0.8918814999051392,0.5216637183231951,,experiment,cRDM,3.0,,,,1718.1817114999285,94,48,male,True
675,0.058824928031104,25,down,down,0.5922499999869615,0.4046925166084471,,experiment,cRDM,3.0,,,,1719.7483233999228,94,48,male,True
676,0.058824928031104,25,up,up,0.6592630000086501,1.7337513423623232,,experiment,cRDM,3.0,,,,1722.3315458999714,94,48,male,True
677,0.058824928031104,25,up,up,0.714398100040853,0.756626403496239,,experiment,cRDM,3.0,,,,1723.998166400008,94,48,male,True
678,0.058824928031104,25,up,down,0.642569400020875,1.914886653471705,,experiment,cRDM,3.0,,,,1726.8980206999695,94,48,male,True
679,0.058824928031104,25,up,up,0.9509371999884024,0.9055345313511524,,experiment,cRDM,3.0,,,,1728.7146572000347,94,48,male,True
680,0.058824928031104,25,down,down,1.0980270999716597,0.9844914144270944,,experiment,cRDM,3.0,,,,1730.9145676000044,94,48,male,True
681,0.058824928031104,25,up,down,0.7991243998985738,0.9407635325064884,,experiment,cRDM,3.0,,,,1733.2144921999425,94,48,male,True
682,0.058824928031104,25,up,down,0.7125469000311568,1.0723589364170596,,experiment,cRDM,3.0,,,,1735.3310740999875,94,48,male,True
683,0.058824928031104,25,down,down,0.6259396000532433,1.9922325238044307,,experiment,cRDM,3.0,,,,1738.2976709000068,94,48,male,True
684,0.058824928031104,25,up,down,0.6610316999722272,1.8962700819732805,,experiment,cRDM,3.0,,,,1741.097557800007,94,48,male,True
685,0.058824928031104,25,down,down,0.7511111000785604,1.981117845003285,,experiment,cRDM,3.0,,,,1743.997457899968,94,48,male,True
686,0.058824928031104,25,down,down,0.6155791999772191,1.0912529923843028,,experiment,cRDM,3.0,,,,1746.1140117000325,94,48,male,True
687,0.058824928031104,25,up,down,0.759679300012067,1.921604854448308,,experiment,cRDM,3.0,,,,1748.9139144999208,94,48,male,True
688,0.058824928031104,25,up,down,1.2017580000683663,0.8219923402289886,,experiment,cRDM,3.0,,,,1750.7638345999876,94,48,male,True
689,0.058824928031104,25,down,up,0.9705394000047818,1.264437331198561,,experiment,cRDM,3.0,,,,1753.4970364000185,94,48,male,True
690,0.058824928031104,25,up,up,0.8962499999906868,1.1947151690522655,,experiment,cRDM,3.0,,,,1755.9303357999306,94,48,male,True
691,0.058824928031104,25,down,down,0.7247147999005392,1.5670954024929409,,experiment,cRDM,3.0,,,,1758.6468846999342,94,48,male,True
692,0.058824928031104,25,down,up,1.3841462000273168,1.9714949439688176,,experiment,cRDM,3.0,,,,1761.6134433000116,94,48,male,True
693,0.058824928031104,25,down,up,1.028676199959591,1.4218541900789494,,experiment,cRDM,3.0,,,,1764.6799823000329,94,48,male,True
694,0.058824928031104,25,up,up,1.0207077999366447,1.5123719267433338,,experiment,cRDM,3.0,,,,1767.4798695999198,94,48,male,True
695,0.058824928031104,25,up,up,0.6714804000221193,1.5930640500761024,,experiment,cRDM,3.0,,,,1770.3631076000163,94,48,male,True
696,0.058824928031104,25,up,up,0.6182719999924302,1.2523573307714004,,experiment,cRDM,3.0,,,,1772.5463519999755,94,48,male,True
697,0.058824928031104,25,down,up,0.71861560002435,1.631598834132451,,experiment,cRDM,3.0,,,,1775.0629378999583,94,48,male,True
698,0.058824928031104,25,down,down,0.6343939999351278,0.3474330013956402,,experiment,cRDM,3.0,,,,1776.396270200028,94,48,male,True
699,0.058824928031104,25,up,down,0.4970852000406012,0.574884366258208,,experiment,cRDM,3.0,,,,1777.87949750002,94,48,male,True
700,0.058824928031104,25,down,down,0.5588401999557391,1.783848079849109,,experiment,cRDM,3.0,,,,1780.4127497000154,94,48,male,True
701,0.058824928031104,25,up,down,0.5492260999744758,1.0925359687137297,,experiment,cRDM,3.0,,,,1782.3293556999415,94,48,male,True
702,0.058824928031104,25,up,down,0.6356681999750435,1.3668357818396957,,experiment,cRDM,3.0,,,,1784.4959332,94,48,male,True
703,0.058824928031104,25,up,down,0.6144568999297917,1.775038676856987,,experiment,cRDM,3.0,,,,1787.1791410000296,94,48,male,True
704,0.058824928031104,25,down,down,0.5498420000076294,1.690443251069779,,experiment,cRDM,3.0,,,,1789.7457268999424,94,48,male,True
705,0.058824928031104,25,down,down,0.8392383999889717,0.5962613158141005,,experiment,cRDM,3.0,,,,1791.1623326999834,94,48,male,True
706,0.058824928031104,25,up,down,0.9393110000528396,0.3688759503489359,,experiment,cRDM,3.0,,,,1792.61229249998,94,48,male,True
707,0.058824928031104,25,down,down,0.6706862999126315,1.0116786555823862,,experiment,cRDM,3.0,,,,1794.8288964999374,94,48,male,True
708,0.058824928031104,25,down,down,0.6652057999745011,0.5911989762269181,,experiment,cRDM,3.0,,,,1796.3454832999269,94,48,male,True
709,0.058824928031104,25,up,up,0.9145149999530986,1.1176269657318978,,experiment,cRDM,3.0,,,,1798.412083299947,94,48,male,True
710,0.058824928031104,25,up,up,0.9392679000739008,1.5642643320213203,,experiment,cRDM,3.0,,,,1801.1453128999565,94,48,male,True
711,0.058824928031104,25,down,down,0.5297075000125915,1.4170961950538477,,experiment,cRDM,3.0,,,,1803.7618727999509,94,48,male,True
712,0.058824928031104,25,up,down,0.7104811000172049,1.293102787026844,,experiment,cRDM,3.0,,,,1805.8451223999728,94,48,male,True
713,0.058824928031104,25,down,down,0.5594825000735,0.4672078472568036,,experiment,cRDM,3.0,,,,1807.2951306999892,94,48,male,True
714,0.058824928031104,25,down,down,0.6892153000226244,0.614861627452388,,experiment,cRDM,3.0,,,,1808.728365599993,94,48,male,True
715,0.058824928031104,25,down,down,0.5902604999719188,0.7387013553806827,,experiment,cRDM,3.0,,,,1810.4283278000075,94,48,male,True
716,0.058824928031104,25,up,down,0.7766554000554606,0.4093525405603173,,experiment,cRDM,3.0,,,,1811.6949259999676,94,48,male,True
717,0.058824928031104,25,up,up,0.8620523000136018,0.8210740774317098,,experiment,cRDM,3.0,,,,1813.5615255000305,94,48,male,True
718,0.058824928031104,25,down,down,0.5251364000141621,0.9098856784189836,,experiment,cRDM,3.0,,,,1815.611442000023,94,48,male,True
719,0.058824928031104,25,down,down,0.6475602000718936,1.940274235804407,,experiment,cRDM,3.0,,,,1818.328013499966,94,48,male,True
720,0.058824928031104,25,up,up,0.9139523999765516,1.10333292764858,,experiment,cRDM,3.0,,,,1820.3446120999288,94,48,male,True
721,0.058824928031104,25,up,down,0.5516427999828011,0.4388400700654287,,experiment,cRDM,3.0,,,,1821.9779456999383,94,48,male,True
722,0.058824928031104,25,up,down,0.5884441999951378,0.4084993820697241,,experiment,cRDM,3.0,,,,1823.2111549000256,94,48,male,True
723,0.058824928031104,25,up,up,0.9450915999477728,0.5343211819573199,,experiment,cRDM,3.0,,,,1824.5944902999329,94,48,male,True
724,0.058824928031104,25,up,down,1.3941881000064311,1.3827045132539588,,experiment,cRDM,3.0,,,,1827.19438859995,94,48,male,True
725,0.058824928031104,25,down,down,0.5430416000308469,0.3327672636294074,,experiment,cRDM,3.0,,,,1829.1776043999707,94,48,male,True
726,0.058824928031104,25,down,down,0.5307296999963,0.9190461840128497,,experiment,cRDM,3.0,,,,1830.9108543000184,94,48,male,True
727,0.058824928031104,25,up,down,0.716405599960126,1.6835311238747803,,experiment,cRDM,3.0,,,,1833.3941766000355,94,48,male,True
728,0.058824928031104,25,down,up,1.1834757999749854,1.4735118978192543,,experiment,cRDM,3.0,,,,1835.844044700032,94,48,male,True
729,0.058824928031104,25,down,down,0.5807112000184134,0.6885447643889858,,experiment,cRDM,3.0,,,,1837.993945199996,94,48,male,True
730,0.058824928031104,25,down,down,0.6094236999051645,1.9819018797752357,,experiment,cRDM,3.0,,,,1840.827182899928,94,48,male,True
731,0.058824928031104,25,up,down,0.6641147999325767,1.1104756680477958,,experiment,cRDM,3.0,,,,1842.8104536000171,94,48,male,True
732,0.058824928031104,25,down,up,0.9721857999684288,1.6741104159629197,,experiment,cRDM,3.0,,,,1845.4103493000148,94,48,male,True
733,0.058824928031104,25,down,up,1.1393213999690488,1.723870830568755,,experiment,cRDM,3.0,,,,1848.3602359999204,94,48,male,True
734,0.058824928031104,25,down,down,0.7237445000791922,0.8674148721266366,,experiment,cRDM,3.0,,,,1850.626832099981,94,48,male,True
735,0.058824928031104,25,up,up,0.7505205000052229,1.6586128625909506,,experiment,cRDM,3.0,,,,1853.260050199926,94,48,male,True
736,0.058824928031104,25,up,up,0.7065793999936432,0.5788091017030135,,experiment,cRDM,3.0,,,,1854.8599845999847,94,48,male,True
737,0.058824928031104,25,down,up,1.843011199962348,1.0043084615980216,,experiment,cRDM,3.0,,,,1856.826612300007,94,48,male,True
738,0.058824928031104,25,up,down,0.6438306999625638,1.7738596624801095,,experiment,cRDM,3.0,,,,1860.709766899934,94,48,male,True
739,0.058824928031104,25,down,down,0.630182099994272,1.1103462871961898,,experiment,cRDM,3.0,,,,1862.726386199938,94,48,male,True
740,0.058824928031104,25,up,up,0.6601167999906465,1.490781015876246,,experiment,cRDM,3.0,,,,1865.1096320999784,94,48,male,True
741,0.058824928031104,25,up,down,0.7476480999030173,0.8650036281488362,,experiment,cRDM,3.0,,,,1866.8929395999292,94,48,male,True
742,116.0,25,M,up,1.2204695999389514,0.5331834661956637,,experiment,emotion,3.0,,,,1870.9261604000349,94,48,male,True
743,80.0,25,M,down,0.6104929000139236,0.9034095428799946,,experiment,emotion,3.0,,,,1873.3260577999756,94,48,male,True
744,104.0,25,F,down,0.9512282999930904,0.5832540091380097,,experiment,emotion,3.0,,,,1874.8093434999464,94,48,male,True
