,stimLvl,stimTime,rand,response,rt,precedingITI,trialNumber,trialType,stimuli,block,estIntens,estThres,estSlope,trialStart,subject,age,gender,headRest
0,150.0,100,F,,,1.384182615027864,,introTrial,emotion,,,,,144.95004550000886,219,22,female,True
1,0.9,100,down,,,0.3092260794449997,,introTrial,cRDM,,,,,149.1831588000059,219,22,female,True
2,0.9,25,down,down,1.0179468999849632,1.2946903689525358,,tutorial,cRDM,,,,,188.5150620000204,219,22,female,True
3,0.9,25,down,down,0.7716647000052035,1.282887210311744,,tutorial,cRDM,,,,,191.09834480000427,219,22,female,True
4,0.9,25,down,down,0.6734083000046667,0.6206728641287842,,tutorial,cRDM,,,,,192.7815649000113,219,22,female,True
5,0.9,25,up,up,0.474115899996832,1.3843848771479232,,tutorial,cRDM,,,,,195.11483020000745,219,22,female,True
6,0.9,25,up,up,0.437319499993464,1.4063851863715378,,tutorial,cRDM,,,,,197.26471570000285,219,22,female,True
7,0.9,25,down,down,0.4772411000158172,0.3522695384485607,,tutorial,cRDM,,,,,198.31472940000825,219,22,female,True
8,0.9,25,down,down,0.5916584000224248,0.5245092839885742,,tutorial,cRDM,,,,,199.58134699999937,219,22,female,True
9,0.9,25,up,up,0.4784033999894745,0.5242468520066523,,tutorial,cRDM,,,,,200.96458110000825,219,22,female,True
10,0.9,25,up,up,0.4691828000068199,1.4426539574451211,,tutorial,cRDM,,,,,203.1478543000121,219,22,female,True
11,0.9,25,up,up,0.5896128000167664,0.5641676767118595,,tutorial,cRDM,,,,,204.46445450000465,219,22,female,True
12,200.0,25,M,up,0.4001649999991059,0.4679807160217938,,tutorial,emotion,,,,,212.23091240000213,219,22,female,True
13,200.0,25,M,up,0.3501960000139661,0.829748964758853,,tutorial,emotion,,,,,213.7641664000112,219,22,female,True
14,200.0,25,F,up,0.3501172999967821,0.5847399078116973,,tutorial,emotion,,,,,215.04746890001115,219,22,female,True
15,0.0,25,F,down,0.3834728999936487,1.2381906859140377,,tutorial,emotion,,,,,216.9974409000133,219,22,female,True
16,0.0,25,M,down,0.4002360999875236,1.16556270742713,,tutorial,emotion,,,,,218.86390799999936,219,22,female,True
17,200.0,25,F,up,0.4435015000053681,1.8727946881647488,,tutorial,emotion,,,,,221.43052100000205,219,22,female,True
18,0.0,25,M,down,0.4530575999815482,1.4213122035419976,,tutorial,emotion,,,,,223.56387910002377,219,22,female,True
19,200.0,25,M,up,0.3502384000166785,1.8818283392978483,,tutorial,emotion,,,,,226.1803682000027,219,22,female,True
20,0.0,25,F,down,0.4743305000010878,0.8855218892845109,,tutorial,emotion,,,,,227.76365700000315,219,22,female,True
21,0.0,25,F,down,0.4807522000046447,0.9086308891016572,,tutorial,emotion,,,,,229.4302914,219,22,female,True
22,0.29,25,up,up,0.3504694000002928,1.088506049093687,,psi_staircase_training,cRDM,,0.25,0.2569312402994632,0.105,242.8130689000245,219,22,female,True
23,0.25,25,up,up,0.3839861000014934,0.658797385994816,,psi_staircase_training,cRDM,,0.2191026665318312,0.2260132002683492,0.1046863203387393,244.16297910001597,219,22,female,True
24,0.21,25,down,down,0.317226400016807,1.714513965057207,,psi_staircase_training,cRDM,,0.1900540959403307,0.1968497961554001,0.1029467298424999,246.579570300004,219,22,female,True
25,0.18,25,down,down,0.4731497999746352,1.1824784439577487,,psi_staircase_training,cRDM,,0.1635257589279754,0.1701521334256793,0.1003816477568649,248.4628366000252,219,22,female,True
26,0.15,25,up,up,0.3672251999960281,0.9601533253874766,,psi_staircase_training,cRDM,,0.1401895574244936,0.1466013351187503,0.0971307628663642,250.16279640002176,219,22,female,True
27,0.13,25,down,down,0.3506197000097018,0.7506096258878822,,psi_staircase_training,cRDM,,0.1198760602145479,0.1260554767618333,0.0936107694196103,251.61274430001504,219,22,female,True
28,0.11,25,up,up,0.2671508999774232,1.0824372022389142,,psi_staircase_training,cRDM,,0.1025773523696548,0.1084910344569865,0.0895852101993795,253.3960053000192,219,22,female,True
29,0.09,25,down,down,0.3004706000210717,0.3292737166076194,,psi_staircase_training,cRDM,,0.087844325958594,0.0934818215320969,0.0854013148647635,254.4126325000252,219,22,female,True
30,0.08,25,down,down,0.3671156000054907,1.5691490423765777,,psi_staircase_training,cRDM,,0.0751852092118086,0.0805556301471181,0.0813554535472043,256.6958942000056,219,22,female,True
31,0.06,25,up,down,0.3004646000044886,0.8612772895514547,,psi_staircase_training,cRDM,,0.0644790391168514,0.0695422244606275,0.0767012018235253,258.26247770001646,219,22,female,True
32,0.11,25,down,up,0.3504997000272851,1.7324227427932175,,psi_staircase_training,cRDM,,0.0948602595780939,0.100716274325989,0.0887116189834892,260.67905630002497,219,22,female,True
33,0.17,25,down,up,0.4283169000118505,1.725996148638682,,psi_staircase_training,cRDM,,0.1376606668530691,0.1451601945720273,0.1136088746701774,263.0956685000274,219,22,female,True
34,0.26,25,down,down,0.4674255000136327,1.4388671474239605,,psi_staircase_training,cRDM,,0.1954434989733798,0.2040229052402064,0.129967743015135,265.2455553000036,219,22,female,True
35,0.23,25,up,down,0.3504920999985188,1.6178259040470395,,psi_staircase_training,cRDM,,0.178421563495729,0.186885127250799,0.1282128675225943,267.61216160000185,219,22,female,True
36,0.31,25,up,down,0.558228500012774,0.678824236394016,,psi_staircase_training,cRDM,,0.2424320092716612,0.25147989301884,0.1370646164911267,268.978783700004,219,22,female,True
37,0.38,25,down,down,0.5372834999870975,0.659716403232967,,psi_staircase_training,cRDM,,0.3174364137315509,0.3265771031132897,0.1384705108488157,270.47873900001287,219,22,female,True
38,0.36,25,down,up,0.4533206000050995,0.7218710845599312,,psi_staircase_training,cRDM,,0.3001089114308151,0.3094472066360264,0.1414640027158067,272.0286809000245,219,22,female,True
39,0.41,25,up,up,0.5267345999891404,1.184471657747415,,psi_staircase_training,cRDM,,0.3629745979570161,0.3717739413379058,0.1332995272238607,273.9452431000245,219,22,female,True
40,0.41,25,up,up,0.4295024999883026,1.876756946063148,,psi_staircase_training,cRDM,,0.3495160985327036,0.3585114153140391,0.1362682898345567,276.62847690001945,219,22,female,True
41,0.4,25,up,down,0.3838150999799836,0.4927447140724485,,psi_staircase_training,cRDM,,0.33747969136397,0.346534563438893,0.1371704812976326,277.81178090002504,219,22,female,True
42,0.44,25,up,up,0.4869521000073291,1.0833323000591846,,psi_staircase_training,cRDM,,0.3848573952043959,0.3938699680770228,0.1365296989774118,279.59504559999914,219,22,female,True
43,0.43,25,down,down,0.4416915999900084,1.0160034564302185,,psi_staircase_training,cRDM,,0.3754777104681977,0.3845694815498593,0.1377294571143919,281.37831130000995,219,22,female,True
44,0.43,25,down,up,0.3838612999825272,0.3095988300670775,,psi_staircase_training,cRDM,,0.366339945877865,0.3754618459317986,0.1381858750066995,282.39493470001617,219,22,female,True
45,0.45,25,down,up,0.652828899997985,1.8343979718255552,,psi_staircase_training,cRDM,,0.4022367180264564,0.4116216467205896,0.1421704442941175,284.92816790001234,219,22,female,True
46,0.46,25,up,up,1.0018673999875318,1.019304698718359,,psi_staircase_training,cRDM,,0.4300962967539344,0.4390686581788642,0.1359205436421792,286.87814030001755,219,22,female,True
47,0.44,25,up,up,0.5130135999934282,1.5839102909126903,,psi_staircase_training,cRDM,,0.4233369782139995,0.4326309043854709,0.1407918649249628,289.7279909000208,219,22,female,True
48,0.43,25,down,down,0.4002593000186607,1.3413267379819036,,psi_staircase_training,cRDM,,0.4157204793142804,0.4254313712238617,0.1471083971197749,291.86124050000217,219,22,female,True
49,0.43,25,down,up,0.514817800023593,1.9084249606755888,,psi_staircase_training,cRDM,,0.407880950006205,0.4179555808751655,0.1526186072819844,294.461139400024,219,22,female,True
50,0.47,25,up,up,0.5615695999877062,1.172895718753888,,psi_staircase_training,cRDM,,0.4303764866608475,0.4396691757319463,0.1407731243340297,296.444421000022,219,22,female,True
51,0.48,25,up,down,0.603942099987762,0.3684892946827893,,psi_staircase_training,cRDM,,0.4256403436134213,0.4349917098686641,0.1416620134893491,297.6610116000229,219,22,female,True
52,100.0,25,M,up,0.5728458000230603,1.1948019026110197,,psi_staircase_training,emotion,,100.0,100.0,25.00050000000001,304.5441889000067,219,22,female,True
53,55.0,25,M,down,0.549179900001036,0.4316405790128492,,psi_staircase_training,emotion,,54.7428094675419,54.7428094675419,25.00050000000011,305.8778126000252,219,22,female,True
54,79.0,25,F,down,0.4589893999800551,1.8257757299323825,,psi_staircase_training,emotion,,79.636070985635,79.636070985635,25.713269254886413,308.5940434000222,219,22,female,True
55,103.0,25,F,down,0.6843518000096083,1.7780301309216222,,psi_staircase_training,emotion,,97.61123893914808,97.61123893914808,26.1463337262867,311.17760640001507,219,22,female,True
56,127.0,25,M,down,0.4001969000091776,1.8200433456053156,,psi_staircase_training,emotion,,117.15641007867752,117.15641007867752,31.432291447829705,314.0438259000075,219,22,female,True
57,148.0,25,F,up,0.4569349999947008,0.7912657348955299,,psi_staircase_training,emotion,,137.43317204546625,137.43317204546625,34.340881921268554,315.57705760002136,219,22,female,True
58,132.0,25,M,up,0.400252100022044,1.238097719245941,,psi_staircase_training,emotion,,125.26880931386356,125.26880931386356,34.38193433170599,317.62700710000354,219,22,female,True
59,122.0,25,F,up,0.4001688999996986,0.9801767913738436,,psi_staircase_training,emotion,,116.61367826218076,116.61367826218076,33.75872751210514,319.3602960999997,219,22,female,True
60,96.0,25,F,up,0.3835173999832477,1.1480305301078728,,psi_staircase_training,emotion,,109.76167858007268,109.76167858007268,33.329509437450305,321.2768623000011,219,22,female,True
61,85.0,25,M,down,0.8227840999898035,0.3778575017759704,,psi_staircase_training,emotion,,100.93436968613936,100.93436968613936,35.19521261871789,322.410208300018,219,22,female,True
62,118.0,25,F,down,0.7268935999891255,1.3773869138901966,,psi_staircase_training,emotion,,105.10248032529483,105.10248032529483,34.2502299536376,324.9600773000275,219,22,female,True
63,132.0,25,F,up,0.6036077000026125,1.4786406749035037,,psi_staircase_training,emotion,,111.93950801092842,111.93950801092842,35.66571406620281,327.49335060000885,219,22,female,True
64,88.0,25,F,up,0.2168416999920737,1.0399655794707643,,psi_staircase_training,emotion,,108.98082625049967,108.98082625049967,34.81193187427806,329.4932754000183,219,22,female,True
65,81.0,25,M,down,0.6057724000129383,0.8886607220521774,,psi_staircase_training,emotion,,102.40636463171154,102.40636463171154,37.05015996299728,331.1431941000046,219,22,female,True
66,82.0,25,M,down,0.4001777000084985,1.7925170026797497,,psi_staircase_training,emotion,,104.95964306833972,104.95964306833972,36.315065395797866,333.8931059000024,219,22,female,True
67,131.0,25,F,down,0.4001709999865852,1.8381087582715987,,psi_staircase_training,emotion,,107.1170295049724,107.1170295049724,35.61902133960004,336.4930230000173,219,22,female,True
68,136.0,25,F,down,0.5423619000066537,1.1562399638977792,,psi_staircase_training,emotion,,112.8321984203787,112.8321984203787,37.9495337815711,338.4096033000096,219,22,female,True
69,140.0,25,M,up,0.4304952999809757,1.590913003276478,,psi_staircase_training,emotion,,118.26768827640916,118.26768827640916,39.67111698897202,340.90953570001875,219,22,female,True
70,139.0,25,M,up,0.4002849000098649,1.9272599529751069,,psi_staircase_training,emotion,,116.0862479030602,116.0862479030602,39.11935520112365,343.5927500000107,219,22,female,True
71,138.0,25,M,up,0.3668015000002924,1.4102379466779316,,psi_staircase_training,emotion,,114.16361392468316,114.16361392468316,38.586168250377405,345.776027200016,219,22,female,True
72,87.0,25,M,down,0.5070146999787539,0.6988459906622217,,psi_staircase_training,emotion,,112.44866142149743,112.44866142149743,38.07128486890965,347.22595100000035,219,22,female,True
73,141.0,25,F,up,0.4544904000067618,1.5701269059413865,,psi_staircase_training,emotion,,113.99378095644632,113.99378095644632,37.51926242682842,349.6595353000157,219,22,female,True
74,85.0,25,F,down,0.5388177999993786,0.6384763867409518,,psi_staircase_training,emotion,,112.61348961273504,112.61348961273504,36.94759648734411,351.10914120002417,219,22,female,True
75,143.0,25,F,up,0.4369738000095822,0.5603198655892132,,psi_staircase_training,emotion,,113.89504108103856,113.89504108103856,36.34536141129804,352.5590124000155,219,22,female,True
76,84.0,25,M,down,0.4892858999955933,0.3246859692583916,,psi_staircase_training,emotion,,112.75441587153006,112.75441587153006,35.73266849432137,353.6757057000068,219,22,female,True
77,144.0,25,M,up,0.4650189000240061,0.6945701713859777,,psi_staircase_training,emotion,,113.84809061319964,113.84809061319964,35.09242085538852,355.2089966000058,219,22,female,True
78,83.0,25,F,down,0.5000892000098247,1.5794773579872523,,psi_staircase_training,emotion,,112.8783447123447,112.8783447123447,34.451141081199495,357.6089020000072,219,22,female,True
79,144.0,25,F,up,0.5401388999889605,0.7334483252210817,,psi_staircase_training,emotion,,113.81085549520884,113.81085549520884,33.78735074263076,359.1758489000204,219,22,female,True
80,83.0,25,M,down,0.5332175999938045,1.1181884319435305,,psi_staircase_training,emotion,,112.96052287972304,112.96052287972304,33.12783090793831,361.1587454000255,219,22,female,True
81,144.0,25,M,down,0.6079454999999143,0.7314144242003253,,psi_staircase_training,emotion,,113.78189715067042,113.78189715067042,32.45068809184448,362.7420382000273,219,22,female,True
82,0.29,25,up,up,0.3667019999993499,0.9913147881384974,,psi_staircase,cRDM,,0.25,0.2569312402994632,0.105,404.57420570001705,219,22,female,True
83,0.25,25,up,down,0.4609400000190362,0.7985510968957926,,psi_staircase,cRDM,,0.2191026665318312,0.2260132002683492,0.1046863203387393,406.0570465000055,219,22,female,True
84,0.36,25,down,down,0.481997599999886,0.8146586585848716,,psi_staircase,cRDM,,0.3202997408361979,0.3276103223604739,0.1107465658214764,407.60699870000826,219,22,female,True
85,0.33,25,down,up,0.5363108000019565,0.5204197178758562,,psi_staircase,cRDM,,0.2990372097977385,0.3064139828071687,0.1117492876491608,408.8736233000236,219,22,female,True
86,0.4,25,up,up,0.4677819999924395,0.8158605508444645,,psi_staircase,cRDM,,0.3699276726653445,0.3772964946370089,0.1116288389373366,410.4902104000212,219,22,female,True
87,0.39,25,down,down,0.5315049999917392,1.556293194986247,,psi_staircase,cRDM,,0.3553670464059001,0.3628259524843164,0.1129935054039829,412.77351340002497,219,22,female,True
88,0.38,25,up,up,0.3505032999964896,1.0822513283452375,,psi_staircase,cRDM,,0.341530191272383,0.3489728411533976,0.1127472434575731,414.6567095000064,219,22,female,True
89,0.38,25,down,up,0.6146402999875136,0.472457773280504,,psi_staircase,cRDM,,0.3285547585316162,0.3359124235591759,0.1114598245791008,415.82334360000095,219,22,female,True
90,0.42,25,down,down,0.4750675999966915,0.5532114138676465,,psi_staircase,cRDM,,0.3791279452824418,0.3872970392170801,0.1237520019618194,417.2399521000043,219,22,female,True
91,0.42,25,up,up,0.367138600006001,0.9762209482911576,,psi_staircase,cRDM,,0.3688099038625379,0.3769750014411829,0.1236914619486091,418.93991169999936,219,22,female,True
92,0.41,25,down,down,0.3671745000174269,1.3615284939905823,,psi_staircase,cRDM,,0.3595890789808451,0.3676436871779729,0.1220176799762533,420.97316090000095,219,22,female,True
93,0.37,25,down,down,0.8685136999993119,0.443243347294304,,psi_staircase,cRDM,,0.3508514518855958,0.3587576347199964,0.1197692132642319,422.1064570000162,219,22,female,True
94,0.36,25,down,down,0.5322453000117093,0.7952489413472524,,psi_staircase,cRDM,,0.3387898172940259,0.3470006967078061,0.1243850019907234,424.0396902000066,219,22,female,True
95,0.36,25,up,up,0.4002525999967474,0.8886960851665553,,psi_staircase,cRDM,,0.3263095558118745,0.3348091720088205,0.1287590188942733,425.73964720001095,219,22,female,True
96,0.36,25,up,down,0.481460800016066,1.2190506449823804,,psi_staircase,cRDM,,0.3144035269866659,0.3230698386524301,0.1312842558604846,427.6395468000264,219,22,female,True
97,0.41,25,down,down,0.5094989000062924,1.2988547877294716,,psi_staircase,cRDM,,0.3546749699906239,0.3631093193730786,0.127770304721123,429.6895056000212,219,22,female,True
98,0.41,25,down,down,0.5195113999943715,1.4300038120208878,,psi_staircase,cRDM,,0.348008294920351,0.3562350541779392,0.1246255626303493,431.8894386000175,219,22,female,True
99,0.36,25,up,up,0.3171179000055417,1.0050806891508728,,psi_staircase,cRDM,,0.3422317305590258,0.3502135942020773,0.1209156869926014,433.6727184000192,219,22,female,True
100,0.36,25,up,up,0.3838196999859065,1.8611260955215645,,psi_staircase,cRDM,,0.3317875381348029,0.3401932346938633,0.1273362487186723,436.20592920001945,219,22,female,True
101,0.34,25,up,up,0.3838060999987647,0.9808892847764444,,psi_staircase,cRDM,,0.3216296433766317,0.3303435924457489,0.1320059055416331,437.8558739,219,22,female,True
102,0.34,25,up,up,0.4785080999718047,0.8999545754954166,,psi_staircase,cRDM,,0.310611834746813,0.3197220609323317,0.1380090298634626,439.4224742000224,219,22,female,True
103,0.33,25,down,down,0.4295572999981232,1.5057128859583355,,psi_staircase,cRDM,,0.2999838400675489,0.3093843450657488,0.1424064066697303,441.6723939000221,219,22,female,True
104,0.32,25,down,down,0.4283251999877393,1.897925027591548,,psi_staircase,cRDM,,0.2894327774722085,0.2990810413868535,0.1461596579065608,444.2556134000188,219,22,female,True
105,0.32,25,down,up,0.482396899984451,0.9617345474724612,,psi_staircase,cRDM,,0.2790288753869301,0.2888803856073764,0.1492385963341879,445.9055804000236,219,22,female,True
106,0.36,25,up,up,0.4901272999995854,1.390363289981046,,psi_staircase,cRDM,,0.312483835772977,0.3218644040119128,0.1421043886134679,448.0388280000189,219,22,female,True
107,0.32,25,up,up,0.3838270000123884,1.2685539249414102,,psi_staircase,cRDM,,0.3049032863942419,0.3143448777320352,0.1430288155707227,450.05541340002674,219,22,female,True
108,0.32,25,down,up,0.45497880000039,1.4385340456114226,,psi_staircase,cRDM,,0.2958612049728385,0.3055673545472522,0.1470365564143493,452.1719971999992,219,22,female,True
109,0.37,25,down,down,0.3838059999980032,1.5011433832659031,,psi_staircase,cRDM,,0.3222089377562588,0.3313093860809205,0.1378609069668921,454.38863990001846,219,22,female,True
110,0.37,25,up,up,0.4695460999791976,0.8224956928431826,,psi_staircase,cRDM,,0.3163061877899346,0.3253435831600297,0.1369057301235778,455.8885944000213,219,22,female,True
111,0.32,25,up,up,0.3671810000087134,1.388135417802758,,psi_staircase,cRDM,,0.3109882579893552,0.3199242664489747,0.1353698396999312,458.0051384000108,219,22,female,True
112,0.31,25,down,down,0.4435266999935265,1.2557177455646404,,psi_staircase,cRDM,,0.3031086901276143,0.3123946586693784,0.1406713163531106,459.9383890000172,219,22,female,True
113,0.31,25,up,up,0.3671441000187769,1.9993206273552755,,psi_staircase,cRDM,,0.2951843032446361,0.3047803295449522,0.1453683205314958,462.6383010999998,219,22,female,True
114,0.31,25,down,up,0.5171447999891825,1.0294115259713992,,psi_staircase,cRDM,,0.2874817502104985,0.2973197944942587,0.1490346035001577,464.3548820000142,219,22,female,True
115,0.37,25,up,up,0.5431770000141114,1.6373101003633783,,psi_staircase,cRDM,,0.3098322111576829,0.3191057722906518,0.1404833589505097,466.7718026000075,219,22,female,True
116,0.31,25,down,down,0.4169993000105023,1.0815337286561562,,psi_staircase,cRDM,,0.3053940142313801,0.3145547947594604,0.1387748676846364,468.65472520000185,219,22,female,True
117,0.31,25,up,up,0.3837711999949533,1.9509211762815963,,psi_staircase,cRDM,,0.2983871472843079,0.3078599998779982,0.143502386205612,471.2880263000261,219,22,female,True
118,0.31,25,down,up,0.5440653999976348,1.8339309495748293,,psi_staircase,cRDM,,0.2915772593346787,0.3012944542170064,0.1472038796178249,473.7878780000028,219,22,female,True
119,0.38,25,up,up,0.4901613999973051,1.2882179422921811,,psi_staircase,cRDM,,0.3108843453384004,0.3200423677156057,0.1387330849979351,475.88781820001896,219,22,female,True
120,0.31,25,up,down,0.5742152000020724,0.4083835413814537,,psi_staircase,cRDM,,0.307408589101463,0.3164076356832633,0.1363247918503416,477.0547587000183,219,22,female,True
121,0.38,25,down,down,0.5235915000084788,1.6175410610172407,,psi_staircase,cRDM,,0.3235086416570266,0.3316908040608315,0.1239499736383457,479.504342500004,219,22,female,True
122,0.38,25,down,up,0.4630351000232622,1.5280838814370932,,psi_staircase,cRDM,,0.3207118186196554,0.3286268340792703,0.1199030169714239,481.8209160000261,219,22,female,True
123,0.4,25,down,down,0.7254353000025731,1.1318357313067071,,psi_staircase,cRDM,,0.3336484372209195,0.3431318983916794,0.1436630934591751,483.6875326000154,219,22,female,True
124,0.4,25,up,up,0.4002282000146806,1.377519579736732,,psi_staircase,cRDM,,0.3300775959030023,0.339424055982348,0.141587690792844,486.054102300026,219,22,female,True
125,0.4,25,up,up,0.4005833999835886,1.225544731387178,,psi_staircase,cRDM,,0.3267999201222965,0.3360015255853683,0.1393933166185783,487.9540288000135,219,22,female,True
126,0.36,25,down,down,0.4302871999971103,1.4954307299207137,,psi_staircase,cRDM,,0.3238112012492027,0.3328604515604305,0.1370853183019059,490.1206177000131,219,22,female,True
127,0.37,25,down,up,0.3171770999906584,1.21876189273366,,psi_staircase,cRDM,,0.3197449275291519,0.3287764159228935,0.136816246497226,492.0371943000064,219,22,female,True
128,0.41,25,down,down,0.5470953999902122,1.669570896874814,,psi_staircase,cRDM,,0.3340679140311755,0.343516262734118,0.1431311815701709,494.40379510002094,219,22,female,True
129,0.35,25,up,up,0.4339452999993227,1.7686520211629724,,psi_staircase,cRDM,,0.3311981297815929,0.3405130752649679,0.1411102823588605,496.9870446000132,219,22,female,True
130,0.35,25,up,up,0.3171632000012323,1.2986736495874922,,psi_staircase,cRDM,,0.3266717776835753,0.3360972949994289,0.1427853133646613,498.9869558000064,219,22,female,True
131,0.36,25,up,up,0.4169981999730225,1.242506857944269,,psi_staircase,cRDM,,0.3223891018635389,0.3318862747059223,0.1438708088835813,500.9202264000196,219,22,female,True
132,100.0,25,M,up,0.420179900014773,0.6152106016420638,,psi_staircase,emotion,,100.0,100.0,25.00050000000001,506.1867632000067,219,22,female,True
133,55.0,25,M,down,0.5333038000098895,1.9300988719979035,,psi_staircase,emotion,,54.7428094675419,54.7428094675419,25.00050000000011,508.8866703000094,219,22,female,True
134,79.0,25,F,down,0.3498602000181563,1.419033209802665,,psi_staircase,emotion,,79.636070985635,79.636070985635,25.713269254886413,511.1702255000128,219,22,female,True
135,103.0,25,F,down,0.4001517999859061,0.8664758122081015,,psi_staircase,emotion,,97.61123893914808,97.61123893914808,26.1463337262867,512.7865273000207,219,22,female,True
136,127.0,25,M,up,0.4438648000068497,1.6597550079742556,,psi_staircase,emotion,,117.15641007867752,117.15641007867752,31.432291447829705,515.2030972000211,219,22,female,True
137,116.0,25,F,down,0.4255969000223558,1.4809121787686654,,psi_staircase,emotion,,105.03864224082596,105.03864224082596,29.694064005485792,517.4863632000051,219,22,female,True
138,132.0,25,M,down,0.4446976000035647,1.5751246039901756,,psi_staircase,emotion,,117.83607292554092,117.83607292554092,33.077455715554706,519.8362605000148,219,22,female,True
139,145.0,25,F,up,0.7014103000110481,0.379432256850275,,psi_staircase,emotion,,130.5564000017949,130.5564000017949,36.38112468754836,521.0195481000119,219,22,female,True
140,140.0,25,F,up,0.4724777000083122,0.5096527708977587,,psi_staircase,emotion,,124.0642887293103,124.0642887293103,35.21769139736209,522.5694685000053,219,22,female,True
141,114.0,25,M,down,0.5808684999938123,1.2609944300765557,,psi_staircase,emotion,,119.26455544370474,119.26455544370474,34.12996461737054,524.6360822000133,219,22,female,True
142,145.0,25,F,up,0.633592400001362,0.3667005927888678,,psi_staircase,emotion,,124.4028460535384,124.4028460535384,33.7198039263459,525.9193650000088,219,22,female,True
143,106.0,25,F,down,0.4169242999923881,1.1372390517771624,,psi_staircase,emotion,,121.25218926186446,121.25218926186446,32.498110726883816,528.0359662000265,219,22,female,True
144,146.0,25,F,up,0.3334978999919258,1.4175990633169926,,psi_staircase,emotion,,124.3087200010515,124.3087200010515,31.45942140842324,530.2192070000165,219,22,female,True
145,106.0,25,M,down,0.4651393000094685,1.5138643196765875,,psi_staircase,emotion,,122.00965920811213,122.00965920811213,30.11584279408,532.4858092000068,219,22,female,True
146,146.0,25,M,up,0.4478353000013158,1.1495491853264936,,psi_staircase,emotion,,124.3587242054766,124.3587242054766,28.871385929556457,534.4190916000225,219,22,female,True
147,108.0,25,F,down,0.4540145999926608,1.404831713079557,,psi_staircase,emotion,,122.6310657782748,122.6310657782748,27.43926642519148,536.6189697000082,219,22,female,True
148,145.0,25,F,down,0.4169361999956891,0.4750267862924586,,psi_staircase,emotion,,124.59931262553944,124.59931262553944,26.048742476583158,537.9022538000136,219,22,female,True
149,155.0,25,M,up,0.3834997999947518,1.2877266582720832,,psi_staircase,emotion,,129.59616887851905,129.59616887851905,31.60683756915006,539.9521705000079,219,22,female,True
150,154.0,25,M,up,0.4782093999965582,1.09965047025655,,psi_staircase,emotion,,128.0964568904902,128.0964568904902,30.442049747185173,541.8187857000157,219,22,female,True
151,106.0,25,M,down,0.4558934000087902,0.3183958639055237,,psi_staircase,emotion,,126.8620370323248,126.8620370323248,29.34373790299872,542.9520757000137,219,22,female,True
152,153.0,25,M,up,0.3001758999889716,1.2839094297015392,,psi_staircase,emotion,,128.2322363802273,128.2322363802273,28.21339432242976,545.0353047000244,219,22,female,True
153,108.0,25,F,down,0.4867852999886963,1.153318271164958,,psi_staircase,emotion,,127.21408923663884,127.21408923663884,27.09437739699408,546.9351805000042,219,22,female,True
154,110.0,25,F,up,0.400206899998011,1.963491081806128,,psi_staircase,emotion,,128.43779704141778,128.43779704141778,25.924127426923334,549.7351621999987,219,22,female,True
155,152.0,25,F,up,0.465573299996322,1.233580081508319,,psi_staircase,emotion,,124.83344204817764,124.83344204817764,29.605754212428803,551.7184225000092,219,22,female,True
156,98.0,25,M,down,1.0129381000006106,0.8389717174254929,,psi_staircase,emotion,,123.96529903839696,123.96529903839696,28.6846923699729,553.3850164000178,219,22,female,True
157,151.0,25,M,up,0.4766786000109277,1.7852063403457603,,psi_staircase,emotion,,124.81443649207516,124.81443649207516,27.75190309273099,556.5182359000028,219,22,female,True
158,99.0,25,F,down,0.4487610000069253,1.0806100470078568,,psi_staircase,emotion,,124.06205487776212,124.06205487776212,26.85153968814304,558.4181740000204,219,22,female,True
159,150.0,25,F,up,0.3498206000076607,1.025265450690514,,psi_staircase,emotion,,124.80330260891678,124.80330260891678,25.951829576264377,560.2517647000204,219,22,female,True
160,100.0,25,M,down,0.432950799993705,1.8003897176384684,,psi_staircase,emotion,,124.14767875456045,124.14767875456045,25.097221331933124,562.8180111000256,219,22,female,True
161,149.0,25,M,down,0.5820651999965776,0.6112675981597334,,psi_staircase,emotion,,124.79956515726992,124.79956515726992,24.25304178310073,564.2179413000122,219,22,female,True
162,156.0,25,F,up,0.4480897999892477,1.7262351614712883,,psi_staircase,emotion,,127.760578245748,127.760578245748,28.31387990891876,566.8678771000123,219,22,female,True
163,100.0,25,M,down,0.466473100008443,0.875381561572836,,psi_staircase,emotion,,127.15236039954482,127.15236039954482,27.53020390263757,568.5344578000077,219,22,female,True
164,155.0,25,F,up,0.4876002000237349,1.787261700350769,,psi_staircase,emotion,,127.74356379799192,127.74356379799192,26.770339861437527,571.1343344000052,219,22,female,True
165,102.0,25,M,down,0.4540005000017117,0.3714704462330765,,psi_staircase,emotion,,127.20232731199872,127.20232731199872,26.029461410393925,572.3509788000083,219,22,female,True
166,154.0,25,F,up,0.6217341999872588,1.2725915106995944,,psi_staircase,emotion,,127.76403943953083,127.76403943953083,25.302821074128943,574.4342189000163,219,22,female,True
167,103.0,25,M,down,0.4644994000263978,1.9472453712124291,,psi_staircase,emotion,,127.27915185520546,127.27915185520546,24.615392313581577,577.3674783000024,219,22,female,True
168,105.0,25,F,down,0.5018664000090212,0.6513299369408807,,psi_staircase,emotion,,127.79437515255128,127.79437515255128,23.940457900400077,578.834053300001,219,22,female,True
169,153.0,25,M,down,0.3168378999980632,1.0268584449907798,,psi_staircase,emotion,,128.29548480146275,128.29548480146275,23.303292805887093,580.700697000022,219,22,female,True
170,159.0,25,M,down,0.5206385000201408,1.4492207233582253,,psi_staircase,emotion,,130.76534205445887,130.76534205445887,26.795645040026503,582.9172734000022,219,22,female,True
171,165.0,25,F,down,0.4791301999939605,1.6608581436796668,,psi_staircase,emotion,,133.36233063206163,133.36233063206163,30.520364080062773,585.433826500026,219,22,female,True
172,170.0,25,F,up,0.3665053000149783,1.8895427666816165,,psi_staircase,emotion,,136.13546751243834,136.13546751243834,34.1243588682607,588.1507312000031,219,22,female,True
173,169.0,25,F,up,0.4699206999794114,0.4271062417125379,,psi_staircase,emotion,,135.5589718262837,135.5589718262837,33.51052017587071,589.351038200024,219,22,female,True
174,169.0,25,M,up,0.3334931999852415,0.9181930545251829,,psi_staircase,emotion,,135.02340772926183,135.02340772926183,32.9109728438552,591.0836306000128,219,22,female,True
175,168.0,25,M,up,0.4933686000003945,0.5863561832538264,,psi_staircase,emotion,,134.5418966851134,134.5418966851134,32.334887673149574,592.4335927000211,219,22,female,True
176,102.0,25,F,down,0.4747666000039316,0.3867433758747313,,psi_staircase,emotion,,134.09240196514668,134.09240196514668,31.775082452996102,593.6501732000033,219,22,female,True
177,168.0,25,F,up,0.4481429999868851,1.7046106778019996,,psi_staircase,emotion,,134.5435390842299,134.5435390842299,31.2185188011123,596.1667874000268,219,22,female,True
178,102.0,25,F,down,0.4169347999850288,1.7224405653044148,,psi_staircase,emotion,,134.13969732265448,134.13969732265448,30.675898680940957,598.6833551000163,219,22,female,True
179,167.0,25,M,up,0.5936770999978762,1.6736745750966415,,psi_staircase,emotion,,134.55010886581937,134.55010886581937,30.13652777327092,601.1332738000201,219,22,female,True
180,103.0,25,M,down,0.5283782999904361,0.537271192378118,,psi_staircase,emotion,,134.1722788065113,134.1722788065113,29.61066136397305,602.616577400011,219,22,female,True
181,104.0,25,M,down,0.5702154000173323,1.6633618713701968,,psi_staircase,emotion,,134.5621649254031,134.5621649254031,29.08732242048833,605.1497609000071,219,22,female,True
182,0.3185596497872488,25,down,up,0.6303549000003841,1.9917258445348447,,experiment,cRDM,0.0,,,,615.9826393000258,219,22,female,True
183,0.3185596497872488,25,up,up,0.4756833999999799,0.9724353599540264,,experiment,cRDM,0.0,,,,617.8492512000084,219,22,female,True
184,0.3185596497872488,25,down,down,0.4002445000223815,0.8204034974980028,,experiment,cRDM,0.0,,,,619.3991868000012,219,22,female,True
185,0.3185596497872488,25,up,up,0.3338275999994948,0.6607463580786843,,experiment,cRDM,0.0,,,,620.7324797000038,219,22,female,True
186,0.3185596497872488,25,down,up,0.6895279999880586,1.1177968897992916,,experiment,cRDM,0.0,,,,622.5324023000139,219,22,female,True
187,0.3185596497872488,25,down,up,0.4839111000183038,0.4755990589155459,,experiment,cRDM,0.0,,,,623.9660026000056,219,22,female,True
188,0.3185596497872488,25,up,up,0.5016336000117008,0.7580171371619133,,experiment,cRDM,0.0,,,,625.482288500003,219,22,female,True
189,0.3185596497872488,25,down,down,0.5340357999957632,0.3066132644771699,,experiment,cRDM,0.0,,,,626.5489119000267,219,22,female,True
190,0.3185596497872488,25,up,up,0.4604308000125456,0.8297136157043454,,experiment,cRDM,0.0,,,,628.1655007000081,219,22,female,True
191,0.3185596497872488,25,up,up,0.5084793000132777,1.6845845249374962,,experiment,cRDM,0.0,,,,630.5654483000108,219,22,female,True
192,0.3185596497872488,25,down,down,0.457242500007851,0.8981115459885878,,experiment,cRDM,0.0,,,,632.248686100007,219,22,female,True
193,0.3185596497872488,25,up,up,0.4299883999919984,0.5767437866104792,,experiment,cRDM,0.0,,,,633.5319754000229,219,22,female,True
194,0.3185596497872488,25,up,up,0.6376665999996476,0.5945125047592392,,experiment,cRDM,0.0,,,,634.8152835000074,219,22,female,True
195,0.3185596497872488,25,up,up,0.7303538999985904,0.9357420166372424,,experiment,cRDM,0.0,,,,636.6485333000019,219,22,female,True
196,0.3185596497872488,25,down,down,0.4290798000001814,0.6012555591533113,,experiment,cRDM,0.0,,,,638.2318213000253,219,22,female,True
197,0.3185596497872488,25,down,down,0.4325319000054151,1.741765997521456,,experiment,cRDM,0.0,,,,640.6484361000184,219,22,female,True
198,0.3185596497872488,25,up,up,0.4889179999881889,0.5602950961854885,,experiment,cRDM,0.0,,,,641.9150124000153,219,22,female,True
199,0.3185596497872488,25,up,up,0.566599200014025,0.7373833839175905,,experiment,cRDM,0.0,,,,643.3983102000202,219,22,female,True
200,0.3185596497872488,25,down,down,0.3672493000049144,0.8405049991344999,,experiment,cRDM,0.0,,,,645.0649607000232,219,22,female,True
201,0.3185596497872488,25,down,down,0.5139229999913368,1.322666160455737,,experiment,cRDM,0.0,,,,647.0649876000243,219,22,female,True
202,0.3185596497872488,25,up,up,0.4258764000260271,1.8669259177940911,,experiment,cRDM,0.0,,,,649.6980395000137,219,22,female,True
203,0.3185596497872488,25,down,down,0.5449196999834385,1.5238862351440885,,experiment,cRDM,0.0,,,,651.8980145000096,219,22,female,True
204,0.3185596497872488,25,up,up,0.4002770999795757,1.4656383052645912,,experiment,cRDM,0.0,,,,654.1646485000092,219,22,female,True
205,0.3185596497872488,25,down,down,0.434986200009007,0.9594644110395212,,experiment,cRDM,0.0,,,,655.7978796000243,219,22,female,True
206,0.3185596497872488,25,down,down,0.4751727000111714,1.8521452733413604,,experiment,cRDM,0.0,,,,658.3477298000071,219,22,female,True
207,0.3185596497872488,25,up,up,0.3838449000031687,1.6366525058616996,,experiment,cRDM,0.0,,,,660.7143407000112,219,22,female,True
208,0.3185596497872488,25,up,up,0.4252945999905932,0.7123731493647603,,experiment,cRDM,0.0,,,,662.0975839000021,219,22,female,True
209,0.3185596497872488,25,down,down,0.4170146999822464,1.0049858143124932,,experiment,cRDM,0.0,,,,663.7808961000119,219,22,female,True
210,0.3185596497872488,25,up,up,0.4630998000211548,0.3953373134369077,,experiment,cRDM,0.0,,,,664.8478483000072,219,22,female,True
211,0.3185596497872488,25,down,up,0.620153299998492,0.8168734857325932,,experiment,cRDM,0.0,,,,666.3808047000202,219,22,female,True
212,0.3185596497872488,25,up,up,0.4771753000095486,0.9746389590919466,,experiment,cRDM,0.0,,,,668.2307729000167,219,22,female,True
213,0.3185596497872488,25,down,up,0.454613200010499,1.5722056188335118,,experiment,cRDM,0.0,,,,670.5473109000013,219,22,female,True
214,0.3185596497872488,25,up,up,0.4257261999882757,1.5702901623993837,,experiment,cRDM,0.0,,,,672.8472367000068,219,22,female,True
215,0.3185596497872488,25,down,up,0.6078484000172466,1.4977910911479488,,experiment,cRDM,0.0,,,,675.047132000007,219,22,female,True
216,0.3185596497872488,25,up,up,0.5514902000140864,0.7462934711355622,,experiment,cRDM,0.0,,,,676.6474102000066,219,22,female,True
217,0.3185596497872488,25,down,down,0.5405796999984886,0.7195132279790846,,experiment,cRDM,0.0,,,,678.1803714999987,219,22,female,True
218,0.3185596497872488,25,up,up,0.367192999983672,0.3237699773567593,,experiment,cRDM,0.0,,,,679.2969684000127,219,22,female,True
219,0.3185596497872488,25,down,up,0.4876816000032704,1.3230028854789233,,experiment,cRDM,0.0,,,,681.2802587000187,219,22,female,True
220,0.3185596497872488,25,up,up,0.5647279999975581,1.3239588214360931,,experiment,cRDM,0.0,,,,683.3472809000232,219,22,female,True
221,0.3185596497872488,25,down,down,0.39992369999527,1.976501134981684,,experiment,cRDM,0.0,,,,686.1470447000174,219,22,female,True
222,0.3185596497872488,25,down,down,0.400262399984058,1.0832001391804649,,experiment,cRDM,0.0,,,,687.8966717000003,219,22,female,True
223,0.3185596497872488,25,up,up,0.5055728000006638,0.3840422518281874,,experiment,cRDM,0.0,,,,688.9633413000265,219,22,female,True
224,0.3185596497872488,25,down,down,0.5080426000058651,1.9508946986755529,,experiment,cRDM,0.0,,,,691.6798517999996,219,22,female,True
225,0.3185596497872488,25,up,up,0.4575883999932557,1.7487478186483345,,experiment,cRDM,0.0,,,,694.1964296000078,219,22,female,True
226,0.3185596497872488,25,up,up,0.4808377999870572,0.4040575358694716,,experiment,cRDM,0.0,,,,695.3130530000199,219,22,female,True
227,0.3185596497872488,25,down,down,0.5116184999933466,0.4450329657266843,,experiment,cRDM,0.0,,,,696.4963490000227,219,22,female,True
228,0.3185596497872488,25,down,up,0.4170101000054274,1.0401470603238443,,experiment,cRDM,0.0,,,,698.3129442000063,219,22,female,True
229,0.3185596497872488,25,up,up,0.4170185000111814,1.8837173928999176,,experiment,cRDM,0.0,,,,700.8628663000127,219,22,female,True
230,0.3185596497872488,25,down,down,0.4841307000024244,0.3590078337739283,,experiment,cRDM,0.0,,,,701.9128049999999,219,22,female,True
231,0.3185596497872488,25,up,up,0.367169000004651,1.5536992464261803,,experiment,cRDM,0.0,,,,704.2293750000244,219,22,female,True
232,0.3185596497872488,25,up,up,0.5216532000049483,1.821193896342055,,experiment,cRDM,0.0,,,,706.7292983000225,219,22,female,True
233,0.3185596497872488,25,up,up,0.6277531000087038,1.709085652405961,,experiment,cRDM,0.0,,,,709.229208100005,219,22,female,True
234,0.3185596497872488,25,up,up,0.6204381000134163,0.497598274351664,,experiment,cRDM,0.0,,,,710.6124934000254,219,22,female,True
235,0.3185596497872488,25,up,up,0.6215250999957789,0.3857407738621279,,experiment,cRDM,0.0,,,,711.8624570000102,219,22,female,True
236,0.3185596497872488,25,down,down,0.4170360999996774,1.4377955212653544,,experiment,cRDM,0.0,,,,714.1790145000268,219,22,female,True
237,0.3185596497872488,25,down,down,0.7059417999989819,1.1308715634765298,,experiment,cRDM,0.0,,,,715.9790023000096,219,22,female,True
238,0.3185596497872488,25,down,down,0.4989999000099487,1.5809317657190272,,experiment,cRDM,0.0,,,,718.5289041000069,219,22,female,True
239,0.3185596497872488,25,up,up,0.3999337000132072,1.572076386175894,,experiment,cRDM,0.0,,,,720.8624323000258,219,22,female,True
240,0.3185596497872488,25,down,down,0.4882301999896299,1.388246682877205,,experiment,cRDM,0.0,,,,722.928704400023,219,22,female,True
241,0.3185596497872488,25,down,down,0.542242499999702,0.9057276237442982,,experiment,cRDM,0.0,,,,724.5786905000277,219,22,female,True
242,0.3185596497872488,25,down,down,0.4553737999813165,1.4761313715705386,,experiment,cRDM,0.0,,,,726.8785613000218,219,22,female,True
243,0.3185596497872488,25,up,up,0.7133931000134908,1.2406036811822918,,experiment,cRDM,0.0,,,,728.8285079000052,219,22,female,True
244,0.3185596497872488,25,down,down,0.4288468000013381,1.9824550703254773,,experiment,cRDM,0.0,,,,731.7950547000219,219,22,female,True
245,0.3185596497872488,25,up,up,0.4002572999743279,1.2256113647679652,,experiment,cRDM,0.0,,,,733.7116397000209,219,22,female,True
246,0.3185596497872488,25,up,down,0.4169685000088066,1.642609842705121,,experiment,cRDM,0.0,,,,736.0448727000039,219,22,female,True
247,0.3185596497872488,25,down,down,0.4220857000036631,1.668391237647314,,experiment,cRDM,0.0,,,,738.3948232000112,219,22,female,True
248,0.3185596497872488,25,up,up,0.3838197000150103,1.3001486017006247,,experiment,cRDM,0.0,,,,740.3781076000014,219,22,female,True
249,0.3185596497872488,25,down,down,0.4328896999941207,1.1257941268902292,,experiment,cRDM,0.0,,,,742.1780105000071,219,22,female,True
250,0.3185596497872488,25,up,up,0.5140011000039522,1.8643098276842769,,experiment,cRDM,0.0,,,,744.7279039999994,219,22,female,True
251,0.3185596497872488,25,down,down,0.3671315000101458,1.5637186174638122,,experiment,cRDM,0.0,,,,747.0778622000071,219,22,female,True
252,0.3185596497872488,25,up,up,0.350542400003178,0.6457559801213018,,experiment,cRDM,0.0,,,,748.4110771000269,219,22,female,True
253,0.3185596497872488,25,down,down,0.4232097000058274,0.845929866461028,,experiment,cRDM,0.0,,,,749.927714600024,219,22,female,True
254,0.3185596497872488,25,down,up,0.2671687999973073,0.9020591913233544,,experiment,cRDM,0.0,,,,751.5109683000192,219,22,female,True
255,0.3185596497872488,25,down,up,0.333825900015654,0.6841255530919179,,experiment,cRDM,0.0,,,,752.8776048000145,219,22,female,True
256,0.3185596497872488,25,down,down,0.6060951999970712,1.3967331722051932,,experiment,cRDM,0.0,,,,754.9608562000212,219,22,female,True
257,0.3185596497872488,25,down,down,0.5754398000135552,1.4913799093399611,,experiment,cRDM,0.0,,,,757.3274567000044,219,22,female,True
258,0.3185596497872488,25,up,up,0.4759080999938305,1.4937949846512013,,experiment,cRDM,0.0,,,,759.6610002000234,219,22,female,True
259,0.3185596497872488,25,up,up,0.4439893999951891,0.7945053315275654,,experiment,cRDM,0.0,,,,761.1939682000084,219,22,female,True
260,0.3185596497872488,25,up,up,0.400259999994887,1.0565712112476455,,experiment,cRDM,0.0,,,,762.9438804000092,219,22,female,True
261,0.3185596497872488,25,up,up,0.3504533999948762,1.6730927136314555,,experiment,cRDM,0.0,,,,765.293829400005,219,22,female,True
262,146.0,25,M,up,0.5322639999794774,0.7080180590286738,,experiment,emotion,0.0,,,,771.4936397000274,219,22,female,True
263,123.0,25,M,up,0.4169401999970432,1.354848269654811,,experiment,emotion,0.0,,,,773.6769137000083,219,22,female,True
264,138.0,25,F,up,0.35016820000601,0.7832485124045534,,experiment,emotion,0.0,,,,775.160200000013,219,22,female,True
265,146.0,25,F,up,0.3168432999809738,1.4742368303941875,,experiment,emotion,0.0,,,,777.3101115000027,219,22,female,True
266,138.0,25,M,up,0.3168179999920539,1.4229148044707525,,experiment,emotion,0.0,,,,779.4100276000099,219,22,female,True
267,131.0,25,F,up,0.3167879000247922,1.2151331220009738,,experiment,emotion,0.0,,,,781.3266113999998,219,22,female,True
268,123.0,25,M,up,0.3335318999888841,0.3601459124426925,,experiment,emotion,0.0,,,,782.3765778000234,219,22,female,True
269,131.0,25,M,up,0.3001898000075016,0.3962085175958609,,experiment,emotion,0.0,,,,783.4598960000149,219,22,female,True
270,146.0,25,F,up,0.3835128000064287,1.3782127014697771,,experiment,emotion,0.0,,,,785.526460699999,219,22,female,True
271,131.0,25,F,up,0.3668415999854915,0.4376908911517244,,experiment,emotion,0.0,,,,786.6430928000191,219,22,female,True
272,138.0,25,F,up,0.3668655999936163,0.4622292102135896,,experiment,emotion,0.0,,,,787.7930442000215,219,22,female,True
273,146.0,25,F,up,0.3834961999964434,1.23568944627411,,experiment,emotion,0.0,,,,789.7096522000211,219,22,female,True
274,138.0,25,F,up,0.2835013000003528,1.2249004520315223,,experiment,emotion,0.0,,,,791.6095784000063,219,22,female,True
275,123.0,25,F,up,0.4647523000021465,0.9279200208901376,,experiment,emotion,0.0,,,,793.2261718000227,219,22,female,True
276,131.0,25,M,up,0.4851963999972213,1.881616261239919,,experiment,emotion,0.0,,,,795.8427345000091,219,22,female,True
277,123.0,25,M,up,0.3335242999892216,1.180051264967251,,experiment,emotion,0.0,,,,797.7926731000189,219,22,female,True
278,146.0,25,M,up,0.283512599999085,0.6097276572508844,,experiment,emotion,0.0,,,,799.0759702000069,219,22,female,True
279,123.0,25,M,up,0.3002432000066619,1.6826928292525822,,experiment,emotion,0.0,,,,801.4592272000154,219,22,female,True
280,138.0,25,F,up,0.4237513999978546,1.2951242096548417,,experiment,emotion,0.0,,,,803.4591538000095,219,22,female,True
281,138.0,25,M,up,0.3335294999997131,0.8745273180433217,,experiment,emotion,0.0,,,,805.0257393000065,219,22,female,True
282,131.0,25,M,up,0.3834922999958507,1.9372450987773189,,experiment,emotion,0.0,,,,807.6423121000116,219,22,female,True
283,131.0,25,F,up,0.366872400016291,1.1703635324907034,,experiment,emotion,0.0,,,,809.5089177000045,219,22,female,True
284,123.0,25,M,up,0.2834568000107538,1.5640607595613123,,experiment,emotion,0.0,,,,811.7588419000094,219,22,female,True
285,146.0,25,F,up,0.5224485000071581,1.0276075798924675,,experiment,emotion,0.0,,,,813.4754525000171,219,22,female,True
286,138.0,25,F,up,0.590548200008925,0.4093656291465655,,experiment,emotion,0.0,,,,814.6754032000026,219,22,female,True
287,123.0,25,M,up,0.7912810999841895,1.7877884643566095,,experiment,emotion,0.0,,,,817.3086631000042,219,22,female,True
288,146.0,25,M,up,0.4659873000055086,0.4125954485471623,,experiment,emotion,0.0,,,,818.7919099999999,219,22,female,True
289,146.0,25,F,up,0.4414203999913297,1.2771669520759563,,experiment,emotion,0.0,,,,820.8085192000144,219,22,female,True
290,131.0,25,M,up,0.3836209000146482,1.692326953726345,,experiment,emotion,0.0,,,,823.2416416000051,219,22,female,True
291,123.0,25,F,up,0.3335124999866821,0.8709526030619894,,experiment,emotion,0.0,,,,824.7916907000181,219,22,female,True
292,131.0,25,F,up,0.2835570000170264,0.7546181798868066,,experiment,emotion,0.0,,,,826.2249460000021,219,22,female,True
293,138.0,25,F,up,0.2835313999967184,1.6345679131959578,,experiment,emotion,0.0,,,,828.5748688000022,219,22,female,True
294,123.0,25,M,up,0.4514103000110481,1.8832893580507304,,experiment,emotion,0.0,,,,831.1414637000125,219,22,female,True
295,146.0,25,M,up,0.7281822999939322,1.304715476861858,,experiment,emotion,0.0,,,,833.1747279000119,219,22,female,True
296,138.0,25,M,up,0.6396298999898136,1.2752801742444335,,experiment,emotion,0.0,,,,835.4412588000123,219,22,female,True
297,146.0,25,F,up,0.7764403999899514,1.5722532451572753,,experiment,emotion,0.0,,,,837.9245152000221,219,22,female,True
298,123.0,25,F,down,0.5131654999859165,1.8406014336730376,,experiment,emotion,0.0,,,,840.8077829000249,219,22,female,True
299,138.0,25,M,up,0.5694960999826435,1.371898902661879,,experiment,emotion,0.0,,,,842.9743522000208,219,22,female,True
300,131.0,25,F,up,0.7479778999986593,1.3660473399038124,,experiment,emotion,0.0,,,,845.1909421000164,219,22,female,True
301,131.0,25,M,down,0.5943086000042967,0.7551651841964186,,experiment,emotion,0.0,,,,846.957541700016,219,22,female,True
302,138.0,25,M,up,0.448758699989412,0.7558755922541824,,experiment,emotion,0.0,,,,848.5741521000164,219,22,female,True
303,146.0,25,M,up,0.5941511000273749,0.5321579546632589,,experiment,emotion,0.0,,,,849.8407386000035,219,22,female,True
304,131.0,25,F,up,0.4169753999740351,1.929015628259202,,experiment,emotion,0.0,,,,852.6239719000005,219,22,female,True
305,123.0,25,F,down,0.6039833000104409,1.649844880779291,,experiment,emotion,0.0,,,,854.9739142000035,219,22,female,True
306,123.0,25,M,up,0.4623601000057533,0.94876092078449,,experiment,emotion,0.0,,,,856.7905033999996,219,22,female,True
307,131.0,25,F,down,0.5671237999922596,1.0026066733376937,,experiment,emotion,0.0,,,,858.5237653000222,219,22,female,True
308,146.0,25,F,up,0.3668381000170484,1.9304170712327888,,experiment,emotion,0.0,,,,861.3070051000104,219,22,female,True
309,138.0,25,M,up,0.3335394999885466,0.4363177528604827,,experiment,emotion,0.0,,,,862.423617500026,219,22,female,True
310,123.0,25,M,up,0.2834074000129476,0.6467520849213546,,experiment,emotion,0.0,,,,863.7569375000021,219,22,female,True
311,146.0,25,F,up,0.7853658999956679,0.3822759420222009,,experiment,emotion,0.0,,,,864.8235281000088,219,22,female,True
312,138.0,25,M,up,0.5684376999852248,1.346212457919068,,experiment,emotion,0.0,,,,867.2234506000241,219,22,female,True
313,138.0,25,F,up,0.789521499973489,1.797166981481226,,experiment,emotion,0.0,,,,869.8733715999988,219,22,female,True
314,123.0,25,F,up,0.4416128000011667,0.6967435499611553,,experiment,emotion,0.0,,,,871.6232795000251,219,22,female,True
315,131.0,25,F,up,0.2834402000007685,1.714825725892539,,experiment,emotion,0.0,,,,874.0565624000155,219,22,female,True
316,146.0,25,M,up,0.2835355999995954,1.1275566957181582,,experiment,emotion,0.0,,,,875.889788600005,219,22,female,True
317,131.0,25,M,up,0.5798827999969944,1.450967697805913,,experiment,emotion,0.0,,,,878.0230502000195,219,22,female,True
318,131.0,25,F,up,0.4001904999895487,1.06361636647956,,experiment,emotion,0.0,,,,879.9396478999988,219,22,female,True
319,131.0,25,F,up,0.3501737000187859,1.0437486556568938,,experiment,emotion,0.0,,,,881.6729080000077,219,22,female,True
320,146.0,25,M,up,0.3334751999936998,0.8259691838045107,,experiment,emotion,0.0,,,,883.2062376000104,219,22,female,True
321,138.0,25,M,up,0.3667941000021528,1.4603318690181113,,experiment,emotion,0.0,,,,885.3561469000124,219,22,female,True
322,123.0,25,M,up,0.3502673999755643,1.422151608637511,,experiment,emotion,0.0,,,,887.472694200027,219,22,female,True
323,123.0,25,M,up,0.3834974000055808,0.7287099950889835,,experiment,emotion,0.0,,,,888.8726989999996,219,22,female,True
324,138.0,25,M,up,0.3835144999902695,1.8387645737889045,,experiment,emotion,0.0,,,,891.3892475000175,219,22,female,True
325,146.0,25,F,up,0.4393446000176482,0.3877659656042704,,experiment,emotion,0.0,,,,892.4725434000138,219,22,female,True
326,146.0,25,F,up,0.3001743000058923,0.4097502585332579,,experiment,emotion,0.0,,,,893.5891597000009,219,22,female,True
327,123.0,25,M,up,0.3501527000044007,1.5752912440930262,,experiment,emotion,0.0,,,,895.8557468000217,219,22,female,True
328,146.0,25,F,up,0.4972616000159178,1.900013994294396,,experiment,emotion,0.0,,,,898.4556224000116,219,22,female,True
329,131.0,25,F,down,0.6162850999971852,0.9977796442911352,,experiment,emotion,0.0,,,,900.2556025000231,219,22,female,True
330,138.0,25,F,up,0.5240315000119153,0.8387013793498308,,experiment,emotion,0.0,,,,901.9888443000092,219,22,female,True
331,131.0,25,M,up,0.2835358999727759,1.4454710384749496,,experiment,emotion,0.0,,,,904.238751500001,219,22,female,True
332,123.0,25,F,up,0.2335186999989673,1.0487050250684815,,experiment,emotion,0.0,,,,905.97202310001,219,22,female,True
333,138.0,25,F,up,0.5503390000085346,1.874086447495506,,experiment,emotion,0.0,,,,908.5385425000276,219,22,female,True
334,131.0,25,F,up,0.3835341999947559,0.7344381316502404,,experiment,emotion,0.0,,,,910.1051945000072,219,22,female,True
335,138.0,25,M,up,0.3668537999910768,0.4965805327813518,,experiment,emotion,0.0,,,,911.2885184000188,219,22,female,True
336,123.0,25,M,up,0.3668731000216212,1.6118006044721165,,experiment,emotion,0.0,,,,913.5884029000008,219,22,female,True
337,146.0,25,F,up,0.5231889999995474,1.1928911944926766,,experiment,emotion,0.0,,,,915.4716864000076,219,22,female,True
338,138.0,25,M,up,0.3501940999994986,1.6365871998625996,,experiment,emotion,0.0,,,,917.888262100023,219,22,female,True
339,146.0,25,F,up,0.3501551999943331,1.7806738405974247,,experiment,emotion,0.0,,,,920.3548438000144,219,22,female,True
340,123.0,25,M,up,0.2835094000038225,0.6481298099065118,,experiment,emotion,0.0,,,,921.7047938000178,219,22,female,True
341,131.0,25,M,up,0.5234959999797866,1.558496115687228,,experiment,emotion,0.0,,,,923.9713866000238,219,22,female,True
342,0.3185596497872488,25,up,up,0.6012719999998808,1.5173106079491547,,experiment,cRDM,1.0,,,,950.50365660002,219,22,female,True
343,0.3185596497872488,25,up,up,0.3172387999948114,1.4851840837895562,,experiment,cRDM,1.0,,,,952.8535656000022,219,22,female,True
344,0.3185596497872488,25,down,up,0.3337889999966137,1.1679403764639047,,experiment,cRDM,1.0,,,,954.7034937000136,219,22,female,True
345,0.3185596497872488,25,down,down,0.5348091000050772,0.374978234818911,,experiment,cRDM,1.0,,,,955.7701272000268,219,22,female,True
346,0.3185596497872488,25,up,up,0.5404495999973733,1.3929560568373545,,experiment,cRDM,1.0,,,,957.9534107000218,219,22,female,True
347,0.3185596497872488,25,down,down,0.5328794999804813,1.1101829826823313,,experiment,cRDM,1.0,,,,959.8699802000192,219,22,female,True
348,0.3185596497872488,25,up,up,0.3504469000035897,0.3283679761083019,,experiment,cRDM,1.0,,,,960.98661740002,219,22,female,True
349,0.3185596497872488,25,up,up,0.4002524000243284,1.3834067786992,,experiment,cRDM,1.0,,,,963.0532271000266,219,22,female,True
350,0.3185596497872488,25,down,down,0.4454685999953653,1.0648509573138594,,experiment,cRDM,1.0,,,,964.7864583000191,219,22,female,True
351,0.3185596497872488,25,down,down,0.5001752999960445,1.9867824877765796,,experiment,cRDM,1.0,,,,967.4696868000028,219,22,female,True
352,0.3185596497872488,25,down,down,0.6868640999891795,0.3819587889224066,,experiment,cRDM,1.0,,,,968.6029896000108,219,22,female,True
353,0.3185596497872488,25,down,up,0.2671506000042427,1.862056706085068,,experiment,cRDM,1.0,,,,971.4195530000144,219,22,female,True
354,0.3185596497872488,25,down,down,0.4807318999955896,1.4302803557320634,,experiment,cRDM,1.0,,,,973.5361436000094,219,22,female,True
355,0.3185596497872488,25,down,down,0.5218500999908429,1.719621789828233,,experiment,cRDM,1.0,,,,975.9860555000196,219,22,female,True
356,0.3185596497872488,25,up,up,0.3504708999826107,1.3910161781670736,,experiment,cRDM,1.0,,,,978.1693085000152,219,22,female,True
357,0.3185596497872488,25,up,down,0.5296322999929544,0.7776682869377849,,experiment,cRDM,1.0,,,,979.619226300012,219,22,female,True
358,0.3185596497872488,25,up,up,0.480686599999899,0.3520579760324039,,experiment,cRDM,1.0,,,,980.7692056000232,219,22,female,True
359,0.3185596497872488,25,up,up,0.4002789999940432,1.2267869670070168,,experiment,cRDM,1.0,,,,982.7358013000048,219,22,female,True
360,0.3185596497872488,25,down,down,0.4257686999917496,0.3028264783583675,,experiment,cRDM,1.0,,,,983.7190773000184,219,22,female,True
361,0.3185596497872488,25,up,up,0.40022539999336,1.7414732997002824,,experiment,cRDM,1.0,,,,986.1356753,219,22,female,True
362,0.3185596497872488,25,up,down,0.4170066999795381,0.9599755560124172,,experiment,cRDM,1.0,,,,987.7689451000188,219,22,female,True
363,0.3185596497872488,25,down,down,0.5546446999942418,0.6949591835400559,,experiment,cRDM,1.0,,,,989.1522807000148,219,22,female,True
364,0.3185596497872488,25,up,up,0.4170220000087283,0.7086005731732539,,experiment,cRDM,1.0,,,,990.6855013000022,219,22,female,True
365,0.3185596497872488,25,down,down,0.4454375999921467,0.6085315484548692,,experiment,cRDM,1.0,,,,991.985472500004,219,22,female,True
366,0.3185596497872488,25,down,up,0.534164700016845,0.9683655227992568,,experiment,cRDM,1.0,,,,993.6687444000272,219,22,female,True
367,0.3185596497872488,25,up,up,0.5302767000102904,0.740472060788615,,experiment,cRDM,1.0,,,,995.2186529000172,219,22,female,True
368,0.3185596497872488,25,up,up,0.4170145000098273,1.9456684744297168,,experiment,cRDM,1.0,,,,997.968563500006,219,22,female,True
369,0.3185596497872488,25,down,down,0.5426727999874856,1.0802659885742003,,experiment,cRDM,1.0,,,,999.7351771000248,219,22,female,True
370,0.3185596497872488,25,up,up,0.3838241000194102,1.2718092636258749,,experiment,cRDM,1.0,,,,1001.8017589000228,219,22,female,True
371,0.3185596497872488,25,down,down,0.4851456999895163,0.4697022499926626,,experiment,cRDM,1.0,,,,1002.9517546000134,219,22,female,True
372,0.3185596497872488,25,down,up,0.4841754999943077,0.7563291231196695,,experiment,cRDM,1.0,,,,1004.4517048000124,219,22,female,True
373,0.3185596497872488,25,down,up,0.4169507999904454,1.0633081479008453,,experiment,cRDM,1.0,,,,1006.2516406000068,219,22,female,True
374,0.3185596497872488,25,up,down,0.4002544000104535,0.8154382081735005,,experiment,cRDM,1.0,,,,1007.7515864000017,219,22,female,True
375,0.3185596497872488,25,up,up,0.4002531000005547,0.4114479829574036,,experiment,cRDM,1.0,,,,1008.8348614000132,219,22,female,True
376,0.3185596497872488,25,up,up,0.4002457999740727,1.1799419499959252,,experiment,cRDM,1.0,,,,1010.7014384000212,219,22,female,True
377,0.3185596497872488,25,down,down,0.6028661000018474,1.7339123277350648,,experiment,cRDM,1.0,,,,1013.1180193000182,219,22,female,True
378,0.3185596497872488,25,down,up,0.4496024000109173,1.2300058393406497,,experiment,cRDM,1.0,,,,1015.201260700007,219,22,female,True
379,0.3185596497872488,25,up,up,0.4622839000076055,0.5547588196784338,,experiment,cRDM,1.0,,,,1016.4845601000123,219,22,female,True
380,0.3185596497872488,25,down,down,0.4854396000155248,1.7256643973185457,,experiment,cRDM,1.0,,,,1018.934458100004,219,22,female,True
381,0.3185596497872488,25,up,up,0.4002676000236533,1.1640769440184613,,experiment,cRDM,1.0,,,,1020.834389399999,219,22,female,True
382,0.3185596497872488,25,up,up,0.4331801999942399,0.6630126172250875,,experiment,cRDM,1.0,,,,1022.1676848000208,219,22,female,True
383,0.3185596497872488,25,up,up,0.4665821999951731,1.3807768845773862,,experiment,cRDM,1.0,,,,1024.2342820000194,219,22,female,True
384,0.3185596497872488,25,down,down,0.5274094000051264,1.763752033176562,,experiment,cRDM,1.0,,,,1026.7174881000246,219,22,female,True
385,0.3185596497872488,25,down,up,0.4934399999910965,0.5004327386067619,,experiment,cRDM,1.0,,,,1028.0174735000182,219,22,female,True
386,0.3185596497872488,25,up,up,0.3006140999787021,1.0344593904306043,,experiment,cRDM,1.0,,,,1029.80073420002,219,22,female,True
387,0.3185596497872488,25,down,down,0.4881587999989278,0.3151769529843045,,experiment,cRDM,1.0,,,,1030.800691500015,219,22,female,True
388,0.3185596497872488,25,down,up,0.7225551000155974,1.8216012642602768,,experiment,cRDM,1.0,,,,1033.3672716,219,22,female,True
389,0.3185596497872488,25,up,up,0.3504997999989427,1.2738145542084165,,experiment,cRDM,1.0,,,,1035.6171728000045,219,22,female,True
390,0.3185596497872488,25,up,up,0.3004771999840159,0.5879778301279466,,experiment,cRDM,1.0,,,,1036.8838093000231,219,22,female,True
391,0.3185596497872488,25,down,up,0.2838118999789003,1.4840940136930978,,experiment,cRDM,1.0,,,,1039.0337371000203,219,22,female,True
392,0.3185596497872488,25,up,up,0.4915088000125251,1.0008592613847265,,experiment,cRDM,1.0,,,,1040.7003388000012,219,22,female,True
393,0.3185596497872488,25,down,down,0.4382592999900225,1.0220951550432462,,experiment,cRDM,1.0,,,,1042.4836014000175,219,22,female,True
394,0.3185596497872488,25,down,down,0.468679500016151,0.7187992654412347,,experiment,cRDM,1.0,,,,1043.9001915000265,219,22,female,True
395,0.3185596497872488,25,down,down,0.6203318999905605,0.7514837452025183,,experiment,cRDM,1.0,,,,1045.383520400006,219,22,female,True
396,0.3185596497872488,25,up,up,0.3172550000017509,1.622212197104706,,experiment,cRDM,1.0,,,,1047.9000661000027,219,22,female,True
397,0.3185596497872488,25,up,up,0.3671930000127759,0.7882196120446008,,experiment,cRDM,1.0,,,,1049.3666878000076,219,22,female,True
398,0.3185596497872488,25,down,down,0.4829467000090517,0.4421016598393195,,experiment,cRDM,1.0,,,,1050.4999816000054,219,22,female,True
399,0.3185596497872488,25,down,up,0.3504759999923408,1.6292463643404589,,experiment,cRDM,1.0,,,,1052.8665348000068,219,22,female,True
400,0.3185596497872488,25,up,up,0.4287387000222225,1.048112214990183,,experiment,cRDM,1.0,,,,1054.5831510999997,219,22,female,True
401,0.3185596497872488,25,up,up,0.5750910999777261,0.92325635414095,,experiment,cRDM,1.0,,,,1056.1997683000227,219,22,female,True
402,0.3185596497872488,25,up,down,0.4170005000196397,1.0138331255859658,,experiment,cRDM,1.0,,,,1058.0497077000036,219,22,female,True
403,0.3185596497872488,25,up,up,0.4312140999827534,1.4643279609279367,,experiment,cRDM,1.0,,,,1060.1996302000189,219,22,female,True
404,0.3185596497872488,25,up,up,0.3505401000147685,1.134834269494115,,experiment,cRDM,1.0,,,,1062.0161689000088,219,22,female,True
405,0.3185596497872488,25,down,down,0.4680694000271614,1.0335687847132262,,experiment,cRDM,1.0,,,,1063.7328189000254,219,22,female,True
406,0.3185596497872488,25,down,down,0.5192802000092342,1.5096192252524108,,experiment,cRDM,1.0,,,,1065.9826433999988,219,22,female,True
407,0.3185596497872488,25,up,up,0.3004826999967918,0.9742343742318528,,experiment,cRDM,1.0,,,,1067.749380400026,219,22,female,True
408,0.3185596497872488,25,down,down,0.3671689000038896,1.6777159418733385,,experiment,cRDM,1.0,,,,1070.0992627000087,219,22,female,True
409,0.3185596497872488,25,down,up,0.6573444999812637,1.1393495744204534,,experiment,cRDM,1.0,,,,1071.932514300017,219,22,female,True
410,0.3185596497872488,25,down,up,0.4170538999896962,1.0465589559187998,,experiment,cRDM,1.0,,,,1073.9157812000194,219,22,female,True
411,0.3185596497872488,25,up,up,0.3504772000014782,1.43134400989037,,experiment,cRDM,1.0,,,,1076.015688500018,219,22,female,True
412,0.3185596497872488,25,down,down,0.400308500014944,1.2595803979673947,,experiment,cRDM,1.0,,,,1077.9489049000258,219,22,female,True
413,0.3185596497872488,25,down,down,0.3837919000070542,1.086806285468076,,experiment,cRDM,1.0,,,,1079.715570100001,219,22,female,True
414,0.3185596497872488,25,down,down,0.4606637000106275,0.8351067832096724,,experiment,cRDM,1.0,,,,1081.232180400024,219,22,female,True
415,0.3185596497872488,25,up,up,0.4487851999874692,0.8787415918018355,,experiment,cRDM,1.0,,,,1082.8321254000184,219,22,female,True
416,0.3185596497872488,25,up,up,0.4574735000205692,1.13114109738513,,experiment,cRDM,1.0,,,,1084.6653733000276,219,22,female,True
417,0.3185596497872488,25,down,down,0.3671998000063468,1.187657954795691,,experiment,cRDM,1.0,,,,1086.5653170000005,219,22,female,True
418,0.3185596497872488,25,up,up,0.4002423000056296,0.5767513595817891,,experiment,cRDM,1.0,,,,1087.8319546999992,219,22,female,True
419,0.3185596497872488,25,down,down,0.4664071000006515,1.9800839218388595,,experiment,cRDM,1.0,,,,1090.4984861000266,219,22,female,True
420,0.3185596497872488,25,up,up,0.4224105999746825,1.319141785535592,,experiment,cRDM,1.0,,,,1092.5484565000224,219,22,female,True
421,0.3185596497872488,25,up,up,0.4298741999955382,1.2712746080883877,,experiment,cRDM,1.0,,,,1094.514987500006,219,22,female,True
422,146.0,25,M,up,0.464257199986605,1.2925549746831888,,experiment,emotion,1.0,,,,1098.5815952000266,219,22,female,True
423,123.0,25,M,down,0.4001992999983486,0.7801268193211943,,experiment,emotion,1.0,,,,1100.1148877000087,219,22,female,True
424,138.0,25,F,up,0.4169160000164993,0.4514474963984871,,experiment,emotion,1.0,,,,1101.2815072000085,219,22,female,True
425,146.0,25,F,up,0.5147065999917686,0.3825065535151452,,experiment,emotion,1.0,,,,1102.3481491999992,219,22,female,True
426,138.0,25,M,up,0.4828134000126738,1.9730230622757168,,experiment,emotion,1.0,,,,1105.0980275000038,219,22,female,True
427,131.0,25,F,up,0.6938635000260547,0.8367707740946073,,experiment,emotion,1.0,,,,1106.6979691000015,219,22,female,True
428,123.0,25,M,up,0.5082765000115614,0.6000623908666409,,experiment,emotion,1.0,,,,1108.2645758000144,219,22,female,True
429,131.0,25,M,up,0.4826382999890484,0.5821510919484996,,experiment,emotion,1.0,,,,1109.6312175000205,219,22,female,True
430,146.0,25,F,up,0.4520710000069812,0.652016019886738,,experiment,emotion,1.0,,,,1111.047825800022,219,22,female,True
431,131.0,25,F,up,0.3334995999757666,0.4877266402924358,,experiment,emotion,1.0,,,,1112.2477753999992,219,22,female,True
432,138.0,25,F,up,0.2668834000069182,0.7770387686402341,,experiment,emotion,1.0,,,,1113.6976732000185,219,22,female,True
433,146.0,25,F,up,0.4673068999836687,1.9106400252566385,,experiment,emotion,1.0,,,,1116.2976278999995,219,22,female,True
434,138.0,25,F,up,0.4953933000215329,1.769522858106723,,experiment,emotion,1.0,,,,1118.79752610001,219,22,female,True
435,123.0,25,F,up,0.6507069000217598,0.9034946010474804,,experiment,emotion,1.0,,,,1120.4641449000046,219,22,female,True
436,131.0,25,M,up,0.491113399999449,0.3905555058174634,,experiment,emotion,1.0,,,,1121.780735200009,219,22,female,True
437,123.0,25,M,up,0.3502021999738645,0.4745174278640127,,experiment,emotion,1.0,,,,1123.0140353000024,219,22,female,True
438,146.0,25,M,up,0.5415727000217885,0.7937009344645124,,experiment,emotion,1.0,,,,1124.497298400005,219,22,female,True
439,123.0,25,M,up,0.4740469000244047,1.7990802041641212,,experiment,emotion,1.0,,,,1127.1138697999995,219,22,female,True
440,138.0,25,F,up,0.6157134000095539,1.003710551055372,,experiment,emotion,1.0,,,,1128.8471614000157,219,22,female,True
441,138.0,25,M,up,0.4561782000237144,0.9702204012433906,,experiment,emotion,1.0,,,,1130.7137441000086,219,22,female,True
442,131.0,25,M,down,0.5765438999806065,1.8399029535269964,,experiment,emotion,1.0,,,,1133.280328200024,219,22,female,True
443,131.0,25,F,up,0.4823044000077061,0.442082930513917,,experiment,emotion,1.0,,,,1134.563598800014,219,22,female,True
444,123.0,25,M,up,0.4200101000024006,1.8249098251227416,,experiment,emotion,1.0,,,,1137.1468423000188,219,22,female,True
445,146.0,25,F,up,0.3668766000191681,1.0727356245998407,,experiment,emotion,1.0,,,,1138.9134096000053,219,22,female,True
446,138.0,25,F,up,0.3168410999933257,1.1654711129274735,,experiment,emotion,1.0,,,,1140.780054700008,219,22,female,True
447,123.0,25,M,down,0.417014399979962,0.6379279608239962,,experiment,emotion,1.0,,,,1142.096669200022,219,22,female,True
448,146.0,25,M,down,0.4722157999931369,0.4738512767007056,,experiment,emotion,1.0,,,,1143.2466323000262,219,22,female,True
449,146.0,25,F,up,0.3834341999900061,1.7486072586051338,,experiment,emotion,1.0,,,,1145.729883300024,219,22,female,True
450,131.0,25,M,up,0.3834997999947518,0.9729354949489342,,experiment,emotion,1.0,,,,1147.3798062000133,219,22,female,True
451,123.0,25,F,down,0.5730761000013445,0.6161279223341898,,experiment,emotion,1.0,,,,1148.679763400025,219,22,female,True
452,131.0,25,F,up,0.4169453000067733,0.9585295216224694,,experiment,emotion,1.0,,,,1150.46303850002,219,22,female,True
453,138.0,25,F,up,0.5372338000161108,0.8240841426215826,,experiment,emotion,1.0,,,,1151.9796370000113,219,22,female,True
454,123.0,25,M,down,0.4889632999838795,0.4282030825286875,,experiment,emotion,1.0,,,,1153.2128866000276,219,22,female,True
455,146.0,25,M,up,0.4450142999994568,1.8056966116798825,,experiment,emotion,1.0,,,,1155.762831,219,22,female,True
456,138.0,25,M,up,0.3168008000066038,1.9649844163601355,,experiment,emotion,1.0,,,,1158.4460738000053,219,22,female,True
457,146.0,25,F,up,0.3834943999827374,1.233464895934523,,experiment,emotion,1.0,,,,1160.362672200019,219,22,female,True
458,123.0,25,F,down,0.426579999999376,0.7389600963089102,,experiment,emotion,1.0,,,,1161.7792867000098,219,22,female,True
459,138.0,25,M,up,0.4001819000113755,1.4816785459574815,,experiment,emotion,1.0,,,,1163.962532900012,219,22,female,True
460,131.0,25,F,up,0.7066916000039782,1.177412810874534,,experiment,emotion,1.0,,,,1165.829105700017,219,22,female,True
461,131.0,25,M,down,0.4630764000175986,0.5417830658238072,,experiment,emotion,1.0,,,,1167.3457458000048,219,22,female,True
462,138.0,25,M,up,0.4169361999956891,1.5158115127704233,,experiment,emotion,1.0,,,,1169.595645400026,219,22,female,True
463,146.0,25,M,up,0.3668206000002101,1.3809252561311016,,experiment,emotion,1.0,,,,1171.645584200014,219,22,female,True
464,131.0,25,F,down,0.4001751999894622,1.307503327536867,,experiment,emotion,1.0,,,,1173.628816600016,219,22,female,True
465,123.0,25,F,down,0.585769800003618,1.9818796954093452,,experiment,emotion,1.0,,,,1176.3120543000114,219,22,female,True
466,123.0,25,M,down,0.550186999986181,0.5605653340572836,,experiment,emotion,1.0,,,,1177.728656500025,219,22,female,True
467,131.0,25,F,down,0.3835090000065975,1.0144780472353907,,experiment,emotion,1.0,,,,1179.5619480000169,219,22,female,True
468,146.0,25,F,up,0.7216396000003442,1.5550987180348268,,experiment,emotion,1.0,,,,1181.7952010000008,219,22,female,True
469,138.0,25,M,up,0.3501664999930653,0.7183747520333741,,experiment,emotion,1.0,,,,1183.5117970000138,219,22,female,True
470,123.0,25,M,up,0.6470852999773342,0.8605876767154708,,experiment,emotion,1.0,,,,1185.0617507999996,219,22,female,True
471,146.0,25,F,up,0.7671786000137217,1.7810083306422562,,experiment,emotion,1.0,,,,1187.7616591000117,219,22,female,True
472,138.0,25,M,down,0.4439623999933246,1.6123071631948136,,experiment,emotion,1.0,,,,1190.394882100023,219,22,female,True
473,138.0,25,F,up,0.823737800004892,1.762269976121144,,experiment,emotion,1.0,,,,1192.8781292000203,219,22,female,True
474,123.0,25,F,down,0.4787805999803822,1.0048392890504645,,experiment,emotion,1.0,,,,1194.978053400002,219,22,female,True
475,131.0,25,F,up,0.5018354999774601,0.6473575301441274,,experiment,emotion,1.0,,,,1196.378003900027,219,22,female,True
476,146.0,25,M,up,0.3836141999927349,1.094991500838144,,experiment,emotion,1.0,,,,1198.2446140000247,219,22,female,True
477,131.0,25,M,up,0.7503576000162866,1.2665891255288315,,experiment,emotion,1.0,,,,1200.1945073000095,219,22,female,True
478,131.0,25,F,up,0.4001890000072308,1.309315048026962,,experiment,emotion,1.0,,,,1202.5110938000144,219,22,female,True
479,131.0,25,F,up,0.7498174000065774,0.4163711745333699,,experiment,emotion,1.0,,,,1203.6110294000246,219,22,female,True
480,146.0,25,M,down,0.4169787999999244,1.4763283233557387,,experiment,emotion,1.0,,,,1206.1109601000207,219,22,female,True
481,138.0,25,M,up,0.4169460000121034,0.6691835879772882,,experiment,emotion,1.0,,,,1207.4775968000176,219,22,female,True
482,123.0,25,M,up,0.3835711999854538,1.6259768988901913,,experiment,emotion,1.0,,,,1209.810770800017,219,22,female,True
483,123.0,25,M,up,0.4563877999898977,0.5421689755309026,,experiment,emotion,1.0,,,,1211.0274508000002,219,22,female,True
484,138.0,25,M,up,0.5704101999872364,0.3175497636954019,,experiment,emotion,1.0,,,,1212.0774288000248,219,22,female,True
485,146.0,25,F,down,0.4618448999826796,1.927600879458696,,experiment,emotion,1.0,,,,1214.8439753000275,219,22,female,True
486,146.0,25,F,up,0.4839215000101831,0.9526316515607324,,experiment,emotion,1.0,,,,1216.5439155000204,219,22,female,True
487,123.0,25,M,down,0.5373262999928556,1.561212689236293,,experiment,emotion,1.0,,,,1218.8605084000155,219,22,female,True
488,146.0,25,F,up,0.4374412999895867,1.9852691083278284,,experiment,emotion,1.0,,,,1221.6603988000134,219,22,female,True
489,131.0,25,F,down,0.9514871999854222,0.8270796850887494,,experiment,emotion,1.0,,,,1223.210333200026,219,22,female,True
490,138.0,25,F,up,0.6039275000221096,0.4016609155713267,,experiment,emotion,1.0,,,,1224.826940400002,219,22,female,True
491,131.0,25,M,up,0.5009955000132322,1.7353726614260576,,experiment,emotion,1.0,,,,1227.426840900007,219,22,female,True
492,123.0,25,F,down,0.4848146000003908,1.4987522074439883,,experiment,emotion,1.0,,,,1229.7100803000212,219,22,female,True
493,138.0,25,F,up,0.4474381000036374,0.87264116705367,,experiment,emotion,1.0,,,,1231.343397300021,219,22,female,True
494,131.0,25,F,up,0.6321869000094011,0.412369834434431,,experiment,emotion,1.0,,,,1232.476674000005,219,22,female,True
495,138.0,25,M,down,0.4391961999936029,1.2078789423141874,,experiment,emotion,1.0,,,,1234.5766062000184,219,22,female,True
496,123.0,25,M,down,0.4766377999912947,0.6557804916651315,,experiment,emotion,1.0,,,,1235.9432170000218,219,22,female,True
497,146.0,25,F,up,0.4001535999996122,1.967253886014804,,experiment,emotion,1.0,,,,1238.67647570002,219,22,female,True
498,138.0,25,M,up,0.4167873999977018,0.4629942184461176,,experiment,emotion,1.0,,,,1239.8097203000216,219,22,female,True
499,146.0,25,F,up,0.4169995000120252,1.8292947070283996,,experiment,emotion,1.0,,,,1242.32629550001,219,22,female,True
500,123.0,25,M,up,0.8122707000002265,1.734518532963198,,experiment,emotion,1.0,,,,1244.7595473000256,219,22,female,True
501,131.0,25,M,up,0.6643908999976702,1.4026334552548392,,experiment,emotion,1.0,,,,1247.2594417000073,219,22,female,True
502,0.3185596497872488,25,up,up,0.535852300003171,1.296246326188934,,experiment,cRDM,2.0,,,,1265.0920563000254,219,22,female,True
503,0.3185596497872488,25,up,up,0.4170097000023816,1.886464386474799,,experiment,cRDM,2.0,,,,1267.7752992000023,219,22,female,True
504,0.3185596497872488,25,down,down,0.4829600999946706,0.3287250080434695,,experiment,cRDM,2.0,,,,1268.791907100007,219,22,female,True
505,0.3185596497872488,25,down,up,0.3171463999897241,1.349215525449541,,experiment,cRDM,2.0,,,,1270.875185300014,219,22,female,True
506,0.3185596497872488,25,up,up,0.3338828000123612,0.7224193216181576,,experiment,cRDM,2.0,,,,1272.2917839000002,219,22,female,True
507,0.3185596497872488,25,down,down,0.3671651000040583,0.4893774210143525,,experiment,cRDM,2.0,,,,1273.4584387000068,219,22,female,True
508,0.3185596497872488,25,up,up,0.4195280999992974,1.9213892512878612,,experiment,cRDM,2.0,,,,1276.0583331000234,219,22,female,True
509,0.3185596497872488,25,up,up,0.4170521000050939,1.5778251172363018,,experiment,cRDM,2.0,,,,1278.308250000002,219,22,female,True
510,0.3185596497872488,25,down,down,0.3504905999870971,1.2585305998684952,,experiment,cRDM,2.0,,,,1280.2414984000206,219,22,female,True
511,0.3185596497872488,25,down,up,0.6545008000102825,1.459454492746698,,experiment,cRDM,2.0,,,,1282.3913879000174,219,22,female,True
512,0.3185596497872488,25,down,up,0.3838305000099353,1.6504821472040176,,experiment,cRDM,2.0,,,,1284.9579866000277,219,22,female,True
513,0.3185596497872488,25,down,down,0.5699224999989383,1.960743709346956,,experiment,cRDM,2.0,,,,1287.6079025000215,219,22,female,True
514,0.3185596497872488,25,down,down,0.622047399985604,1.6172381722295457,,experiment,cRDM,2.0,,,,1290.057838400011,219,22,female,True
515,0.3185596497872488,25,down,up,0.3504296000173781,0.4010381233051145,,experiment,cRDM,2.0,,,,1291.3411588000015,219,22,female,True
516,0.3185596497872488,25,up,up,0.4169888999895192,1.672403594084244,,experiment,cRDM,2.0,,,,1293.691007800022,219,22,female,True
517,0.3185596497872488,25,up,up,0.3837862000218592,1.1134552878672384,,experiment,cRDM,2.0,,,,1295.4742963000026,219,22,female,True
518,0.3185596497872488,25,up,up,0.5746268999937456,1.625777117554788,,experiment,cRDM,2.0,,,,1297.7741990000068,219,22,female,True
519,0.3185596497872488,25,up,up,0.6654759999946691,1.4443347229178278,,experiment,cRDM,2.0,,,,1300.0574603000132,219,22,female,True
520,0.3185596497872488,25,down,down,0.4575216000084765,1.780010773486651,,experiment,cRDM,2.0,,,,1302.7573427000025,219,22,female,True
521,0.3185596497872488,25,up,up,0.4002246999880299,1.164463127694184,,experiment,cRDM,2.0,,,,1304.640661100013,219,22,female,True
522,0.3185596497872488,25,up,up,0.4402744999970309,1.7645776004788751,,experiment,cRDM,2.0,,,,1307.0905053000024,219,22,female,True
523,0.3185596497872488,25,down,down,0.4680323999782558,0.7267473564275614,,experiment,cRDM,2.0,,,,1308.523791500018,219,22,female,True
524,0.3185596497872488,25,up,up,0.4266470000147819,0.7995223291959436,,experiment,cRDM,2.0,,,,1310.0571420000051,219,22,female,True
525,0.3185596497872488,25,down,down,0.3672936999937519,1.5404913140383831,,experiment,cRDM,2.0,,,,1312.290330400021,219,22,female,True
526,0.3185596497872488,25,down,down,0.4943112000182736,1.4996214153530156,,experiment,cRDM,2.0,,,,1314.4735775000008,219,22,female,True
527,0.3185596497872488,25,up,down,0.3171220999793149,1.229200098322473,,experiment,cRDM,2.0,,,,1316.4568465000193,219,22,female,True
528,0.3185596497872488,25,up,up,0.3838480000267736,0.6294666013555312,,experiment,cRDM,2.0,,,,1317.7567872000218,219,22,female,True
529,0.3185596497872488,25,down,down,0.4169750000000931,0.9161755625138792,,experiment,cRDM,2.0,,,,1319.3400995000266,219,22,female,True
530,0.3185596497872488,25,up,up,0.3504989000211935,1.1130140865025482,,experiment,cRDM,2.0,,,,1321.1400202000225,219,22,female,True
531,0.3185596497872488,25,down,down,0.3504099000128917,0.6062079040356108,,experiment,cRDM,2.0,,,,1322.440014700027,219,22,female,True
532,0.3185596497872488,25,down,up,0.4942700999963563,0.605407438803051,,experiment,cRDM,2.0,,,,1323.7235508000012,219,22,female,True
533,0.3185596497872488,25,down,down,0.4170387999911327,1.936899620862908,,experiment,cRDM,2.0,,,,1326.42313130002,219,22,female,True
534,0.3185596497872488,25,up,up,0.5111230000038631,0.7952533865120106,,experiment,cRDM,2.0,,,,1327.88974090002,219,22,female,True
535,0.3185596497872488,25,up,up,0.6154963999870233,1.4883982087832652,,experiment,cRDM,2.0,,,,1330.1563314000086,219,22,female,True
536,0.3185596497872488,25,up,up,0.3671545000106562,1.0983273613081612,,experiment,cRDM,2.0,,,,1332.1229163000244,219,22,female,True
537,0.3185596497872488,25,down,down,0.4170655999914743,1.427980255510785,,experiment,cRDM,2.0,,,,1334.222827300022,219,22,female,True
538,0.3185596497872488,25,down,down,0.5123971999855712,0.6041223667281284,,experiment,cRDM,2.0,,,,1335.4894680000143,219,22,female,True
539,0.3185596497872488,25,up,up,0.4667437999742105,0.3393508036932061,,experiment,cRDM,2.0,,,,1336.6061024000228,219,22,female,True
540,0.3185596497872488,25,down,down,0.4534741999814287,0.6027955055640499,,experiment,cRDM,2.0,,,,1337.9393553000118,219,22,female,True
541,0.3185596497872488,25,up,up,0.4002463000069838,1.877673326931798,,experiment,cRDM,2.0,,,,1340.539292900008,219,22,female,True
542,0.3185596497872488,25,up,down,0.300558999995701,1.9554196325399988,,experiment,cRDM,2.0,,,,1343.1724983000022,219,22,female,True
543,0.3185596497872488,25,up,up,0.4530595000251196,1.7967436871324258,,experiment,cRDM,2.0,,,,1345.6557641000254,219,22,female,True
544,0.3185596497872488,25,down,down,0.4511024999956134,0.721713252494852,,experiment,cRDM,2.0,,,,1347.1056926000165,219,22,female,True
545,0.3185596497872488,25,down,up,0.4211726000066846,1.4294129236865294,,experiment,cRDM,2.0,,,,1349.25562370001,219,22,female,True
546,0.3185596497872488,25,up,up,0.3337990999862086,1.5754237392504775,,experiment,cRDM,2.0,,,,1351.52224630001,219,22,female,True
547,0.3185596497872488,25,down,down,0.4002640999970026,1.806370762745479,,experiment,cRDM,2.0,,,,1354.0054151000222,219,22,female,True
548,0.3185596497872488,25,down,up,0.4537471999938134,0.4818280563658362,,experiment,cRDM,2.0,,,,1355.1720779000025,219,22,female,True
549,0.3185596497872488,25,up,up,0.4169961999868974,0.6689953672936269,,experiment,cRDM,2.0,,,,1356.5553666000196,219,22,female,True
550,0.3185596497872488,25,up,up,0.3338198999990709,0.4431808027379418,,experiment,cRDM,2.0,,,,1357.6719850000227,219,22,female,True
551,0.3185596497872488,25,down,down,0.4542237999849021,1.6924365350070352,,experiment,cRDM,2.0,,,,1360.0385769999991,219,22,female,True
552,0.3185596497872488,25,up,up,0.4509536999976262,0.8678456228042439,,experiment,cRDM,2.0,,,,1361.621884799999,219,22,female,True
553,0.3185596497872488,25,down,down,0.6176892999792472,0.5757200406494614,,experiment,cRDM,2.0,,,,1362.905124700017,219,22,female,True
554,0.3185596497872488,25,down,up,0.6521065999986604,1.5942189681436088,,experiment,cRDM,2.0,,,,1365.3716943000036,219,22,female,True
555,0.3185596497872488,25,down,down,0.479849399998784,0.512645543085892,,experiment,cRDM,2.0,,,,1366.8049624000269,219,22,female,True
556,0.3185596497872488,25,up,up,0.4999024999851826,1.2038369120591184,,experiment,cRDM,2.0,,,,1368.7549329000176,219,22,female,True
557,0.3185596497872488,25,up,up,0.3171376000100281,1.3479327347206802,,experiment,cRDM,2.0,,,,1370.8548334000225,219,22,female,True
558,0.3185596497872488,25,down,down,0.504421799996635,1.6374397123353883,,experiment,cRDM,2.0,,,,1373.1714110000175,219,22,female,True
559,0.3185596497872488,25,down,up,0.3838754000025801,1.5116101662781185,,experiment,cRDM,2.0,,,,1375.4546446000168,219,22,female,True
560,0.3185596497872488,25,up,up,0.3671406999928877,1.6113167674423543,,experiment,cRDM,2.0,,,,1377.7545801000088,219,22,female,True
561,0.3185596497872488,25,up,up,0.3171424999891314,1.0951931531950465,,experiment,cRDM,2.0,,,,1379.5378480000072,219,22,female,True
562,0.3185596497872488,25,up,up,0.3838078999833669,0.9570471436016236,,experiment,cRDM,2.0,,,,1381.1711169000191,219,22,female,True
563,0.3185596497872488,25,up,up,0.3171154000156093,0.3326015468311095,,experiment,cRDM,2.0,,,,1382.1877480000255,219,22,female,True
564,0.3185596497872488,25,up,up,0.3505127999815158,1.8366368674006883,,experiment,cRDM,2.0,,,,1384.704304600018,219,22,female,True
565,0.3185596497872488,25,down,down,0.4002412999980151,1.87155536521878,,experiment,cRDM,2.0,,,,1387.2376141000132,219,22,female,True
566,0.3185596497872488,25,down,down,0.4656682999921031,1.0822646480051126,,experiment,cRDM,2.0,,,,1389.0041406000091,219,22,female,True
567,0.3185596497872488,25,up,up,0.2671526999911293,0.9522870263942236,,experiment,cRDM,2.0,,,,1390.6874402000103,219,22,female,True
568,0.3185596497872488,25,down,down,0.4450746000220533,0.3003885847150764,,experiment,cRDM,2.0,,,,1391.6707324000015,219,22,female,True
569,0.3185596497872488,25,down,up,0.4915560000226833,1.670889275301686,,experiment,cRDM,2.0,,,,1394.0373155999987,219,22,female,True
570,0.3185596497872488,25,down,down,0.495488699991256,0.7314205561914673,,experiment,cRDM,2.0,,,,1395.520570200024,219,22,female,True
571,0.3185596497872488,25,up,up,0.400184599973727,1.4346301272804418,,experiment,cRDM,2.0,,,,1397.720587400021,219,22,female,True
572,0.3185596497872488,25,down,down,0.3671545000106562,0.8946124393197505,,experiment,cRDM,2.0,,,,1399.2871097000025,219,22,female,True
573,0.3185596497872488,25,down,up,0.3837888000125531,0.6597667656640211,,experiment,cRDM,2.0,,,,1400.6203975000244,219,22,female,True
574,0.3185596497872488,25,down,down,0.4704738000000361,0.9137126467614708,,experiment,cRDM,2.0,,,,1402.2203436000273,219,22,female,True
575,0.3185596497872488,25,up,up,0.3838661999907344,1.3582665710047448,,experiment,cRDM,2.0,,,,1404.3203098000083,219,22,female,True
576,0.3185596497872488,25,up,up,0.3838339000067208,0.5746042828317475,,experiment,cRDM,2.0,,,,1405.570205200027,219,22,female,True
577,0.3185596497872488,25,down,down,0.4739764000114519,0.7307903389483325,,experiment,cRDM,2.0,,,,1406.9868177000026,219,22,female,True
578,0.3185596497872488,25,up,up,0.3337753999803681,1.2385770345282214,,experiment,cRDM,2.0,,,,1408.9701034000027,219,22,female,True
579,0.3185596497872488,25,down,down,0.4167962000065017,0.7396217266784553,,experiment,cRDM,2.0,,,,1410.3866958,219,22,female,True
580,0.3185596497872488,25,up,up,0.3672247000213247,0.4355068579744503,,experiment,cRDM,2.0,,,,1411.5033178000012,219,22,female,True
581,0.3185596497872488,25,up,up,0.5499360999965575,1.3739396970463564,,experiment,cRDM,2.0,,,,1413.569927000004,219,22,female,True
582,146.0,25,M,up,0.5691088000021409,0.9890977266005124,,experiment,emotion,2.0,,,,1419.9197563000198,219,22,female,True
583,123.0,25,M,up,0.4184918999962974,0.768377737606624,,experiment,emotion,2.0,,,,1421.5363708000225,219,22,female,True
584,138.0,25,F,up,0.3168910999957006,1.862521610157444,,experiment,emotion,2.0,,,,1424.1028940000106,219,22,female,True
585,146.0,25,F,up,0.2835013000003528,1.9722148434964024,,experiment,emotion,2.0,,,,1426.7528418000147,219,22,female,True
586,138.0,25,M,up,0.4403786000038963,1.3920018854642344,,experiment,emotion,2.0,,,,1428.8194319000177,219,22,female,True
587,131.0,25,F,up,0.3335659999866038,1.623359722621295,,experiment,emotion,2.0,,,,1431.1860017,219,22,female,True
588,123.0,25,M,up,0.4169608000083826,1.5038381214203371,,experiment,emotion,2.0,,,,1433.3692912000115,219,22,female,True
589,131.0,25,M,down,0.4443142999953124,1.9948216659513665,,experiment,emotion,2.0,,,,1436.0525192000205,219,22,female,True
590,146.0,25,F,down,0.6427765999978874,1.845893126420256,,experiment,emotion,2.0,,,,1438.6190530000022,219,22,female,True
591,131.0,25,F,up,0.4474625999864656,0.717072700305673,,experiment,emotion,2.0,,,,1440.2523653000244,219,22,female,True
592,138.0,25,F,up,0.4350560000166297,0.7912572446909683,,experiment,emotion,2.0,,,,1441.7689507000032,219,22,female,True
593,146.0,25,F,up,0.3501355999906081,1.0883744790033782,,experiment,emotion,2.0,,,,1443.5522369000246,219,22,female,True
594,138.0,25,F,up,0.4169879000110086,0.3573815985688967,,experiment,emotion,2.0,,,,1444.6188134000113,219,22,female,True
595,123.0,25,F,up,0.4002165999845601,1.8083911920877396,,experiment,emotion,2.0,,,,1447.1187424000236,219,22,female,True
596,131.0,25,M,up,0.7411882000160404,1.614074424642256,,experiment,emotion,2.0,,,,1449.418654100009,219,22,female,True
597,123.0,25,M,down,0.4663493000261951,1.2007138456446536,,experiment,emotion,2.0,,,,1451.6184760000033,219,22,female,True
598,146.0,25,M,down,0.6672891000052914,0.7565737832267705,,experiment,emotion,2.0,,,,1453.1185211000266,219,22,female,True
599,123.0,25,M,down,0.423692900018068,1.1818882252409386,,experiment,emotion,2.0,,,,1455.235129000008,219,22,female,True
600,138.0,25,F,down,0.4814672000065911,0.779331681315668,,experiment,emotion,2.0,,,,1456.7183876000054,219,22,female,True
601,138.0,25,M,up,0.400179600022966,1.6460632991817372,,experiment,emotion,2.0,,,,1459.101642900001,219,22,female,True
602,131.0,25,M,up,0.3501838999800384,1.1231130137794545,,experiment,emotion,2.0,,,,1460.9182391000213,219,22,female,True
603,131.0,25,F,down,0.3835510000062641,1.759449529574802,,experiment,emotion,2.0,,,,1463.3681822000071,219,22,female,True
604,123.0,25,M,down,0.3668863000057172,0.5655833802246664,,experiment,emotion,2.0,,,,1464.618079500011,219,22,female,True
605,146.0,25,F,down,0.3834819000039715,1.6760836918900688,,experiment,emotion,2.0,,,,1466.9680361000064,219,22,female,True
606,138.0,25,F,down,0.633528500009561,1.7004930331140569,,experiment,emotion,2.0,,,,1469.3512650000048,219,22,female,True
607,123.0,25,M,down,0.4979518999753054,0.9493477794479714,,experiment,emotion,2.0,,,,1471.2178902000014,219,22,female,True
608,146.0,25,M,down,0.4936658999940846,0.7471514896424358,,experiment,emotion,2.0,,,,1472.7511608000204,219,22,female,True
609,146.0,25,F,up,0.4221156999992672,1.1979394793014997,,experiment,emotion,2.0,,,,1474.7177589000205,219,22,female,True
610,131.0,25,M,up,0.5712677999981679,1.3877560858953082,,experiment,emotion,2.0,,,,1476.817666100018,219,22,female,True
611,123.0,25,F,down,0.3501713000005111,1.6864428981784392,,experiment,emotion,2.0,,,,1479.3509066000115,219,22,female,True
612,131.0,25,F,down,0.4516088999807834,0.583539187540377,,experiment,emotion,2.0,,,,1480.634195700026,219,22,female,True
613,138.0,25,F,up,0.5077116999891587,1.726701216429802,,experiment,emotion,2.0,,,,1483.084086100018,219,22,female,True
614,123.0,25,M,down,0.5974726999993436,1.003734193432134,,experiment,emotion,2.0,,,,1484.8673718000064,219,22,female,True
615,146.0,25,M,down,0.4351848000078462,0.7034185840633962,,experiment,emotion,2.0,,,,1486.450652200001,219,22,female,True
616,138.0,25,M,up,0.3168472999823279,1.750542860258964,,experiment,emotion,2.0,,,,1488.900542700023,219,22,female,True
617,146.0,25,F,up,0.3334821999887936,0.6922438609707661,,experiment,emotion,2.0,,,,1490.267165600002,219,22,female,True
618,123.0,25,F,up,0.33353299999726,0.4502593301660744,,experiment,emotion,2.0,,,,1491.4170923000202,219,22,female,True
619,138.0,25,M,down,0.3501481999992393,1.1145704105353975,,experiment,emotion,2.0,,,,1493.217067700025,219,22,female,True
620,131.0,25,F,up,0.4001830999914091,1.7022403761191025,,experiment,emotion,2.0,,,,1495.6003027000115,219,22,female,True
621,131.0,25,M,up,0.3168640999938361,0.7278784386245813,,experiment,emotion,2.0,,,,1497.0169192000176,219,22,female,True
622,138.0,25,M,down,0.4170450000092387,0.9143263471628348,,experiment,emotion,2.0,,,,1498.6001771000156,219,22,female,True
623,146.0,25,M,up,0.4169376000063494,1.6458008119785834,,experiment,emotion,2.0,,,,1500.950110900012,219,22,female,True
624,131.0,25,F,up,0.383598799991887,1.3463071895590373,,experiment,emotion,2.0,,,,1502.9833606000177,219,22,female,True
625,123.0,25,F,down,0.5005408000142779,1.90953279374968,,experiment,emotion,2.0,,,,1505.583262500004,219,22,female,True
626,123.0,25,M,down,0.400173799978802,0.3895660773668268,,experiment,emotion,2.0,,,,1506.749893100001,219,22,female,True
627,131.0,25,F,down,0.3168368999904487,0.4011982977661081,,experiment,emotion,2.0,,,,1507.8331876000157,219,22,female,True
628,146.0,25,F,down,0.4456831999996211,0.8637209070572551,,experiment,emotion,2.0,,,,1509.3831221,219,22,female,True
629,138.0,25,M,up,0.5041304999904241,1.637252579979844,,experiment,emotion,2.0,,,,1511.7497169000271,219,22,female,True
630,123.0,25,M,up,0.4001645999960601,1.5986290494170114,,experiment,emotion,2.0,,,,1514.116273600026,219,22,female,True
631,146.0,25,F,down,0.4469810000155121,1.2321149028980336,,experiment,emotion,2.0,,,,1516.03288720001,219,22,female,True
632,138.0,25,M,down,0.7862256000225898,0.941613225761064,,experiment,emotion,2.0,,,,1517.699567600008,219,22,female,True
633,138.0,25,F,down,0.531404899986228,0.4959500265765376,,experiment,emotion,2.0,,,,1519.249441300024,219,22,female,True
634,123.0,25,F,up,0.6011181999929249,1.3259151537962317,,experiment,emotion,2.0,,,,1521.382693200023,219,22,female,True
635,131.0,25,F,up,0.3334948999981861,1.3131758899606432,,experiment,emotion,2.0,,,,1523.5826149000204,219,22,female,True
636,146.0,25,M,up,0.4849305000097956,1.364736591740736,,experiment,emotion,2.0,,,,1525.615857299999,219,22,female,True
637,131.0,25,M,down,0.854691400018055,1.8403291190329,,experiment,emotion,2.0,,,,1528.2161057000048,219,22,female,True
638,131.0,25,F,down,0.4334644000045955,0.5423466481364028,,experiment,emotion,2.0,,,,1529.882321000012,219,22,female,True
639,131.0,25,F,down,0.4341399999975692,0.5785673126246158,,experiment,emotion,2.0,,,,1531.1656538000095,219,22,female,True
640,146.0,25,M,up,0.3834096000064164,1.6350233754751735,,experiment,emotion,2.0,,,,1533.515569900017,219,22,female,True
641,138.0,25,M,down,0.425973100005649,1.2870200937145253,,experiment,emotion,2.0,,,,1535.4988137000182,219,22,female,True
642,123.0,25,M,down,0.5816200999834109,0.609347934415567,,experiment,emotion,2.0,,,,1536.832122400025,219,22,female,True
643,123.0,25,M,down,0.4587196999927982,0.3950065062487739,,experiment,emotion,2.0,,,,1538.0820707000094,219,22,female,True
644,138.0,25,M,down,0.3335324999934528,0.5060871416689233,,experiment,emotion,2.0,,,,1539.3153381000157,219,22,female,True
645,146.0,25,F,up,0.4179151999996975,0.7721210178069444,,experiment,emotion,2.0,,,,1540.7819580000069,219,22,female,True
646,146.0,25,F,up,0.4169441999983974,1.846655556363591,,experiment,emotion,2.0,,,,1543.315223600017,219,22,female,True
647,123.0,25,M,down,0.6346115999913309,0.5625088829796229,,experiment,emotion,2.0,,,,1544.5651735000138,219,22,female,True
648,146.0,25,F,down,0.5260392000200227,0.3693746265916857,,experiment,emotion,2.0,,,,1545.8317714000004,219,22,female,True
649,131.0,25,F,up,0.4001681999943685,1.308507191649673,,experiment,emotion,2.0,,,,1547.9483891000273,219,22,female,True
650,138.0,25,F,up,0.3501838000083808,0.9754166735425742,,experiment,emotion,2.0,,,,1549.614971300005,219,22,female,True
651,131.0,25,M,up,0.3668137000058777,0.4330085088553725,,experiment,emotion,2.0,,,,1550.714948000008,219,22,female,True
652,123.0,25,F,up,0.436912899982417,1.1652850406734596,,experiment,emotion,2.0,,,,1552.5648468,219,22,female,True
653,138.0,25,F,down,0.4560057000198867,1.297048002492946,,experiment,emotion,2.0,,,,1554.5647664999997,219,22,female,True
654,131.0,25,F,down,0.6090594000124838,1.1724613736271978,,experiment,emotion,2.0,,,,1556.4647265000094,219,22,female,True
655,138.0,25,M,up,1.0341179999813903,1.28100707551231,,experiment,emotion,2.0,,,,1558.6146685000276,219,22,female,True
656,123.0,25,M,down,0.5418749999953434,0.4293131730717023,,experiment,emotion,2.0,,,,1560.347914000013,219,22,female,True
657,146.0,25,F,up,0.3668442999769468,1.3723744266265023,,experiment,emotion,2.0,,,,1562.5478301000255,219,22,female,True
658,138.0,25,M,down,0.4169447000022046,0.8726519281400389,,experiment,emotion,2.0,,,,1564.1144564000133,219,22,female,True
659,146.0,25,F,up,0.4693573999975342,1.5219692706569456,,experiment,emotion,2.0,,,,1566.3143794000207,219,22,female,True
660,123.0,25,M,down,0.4888666000042576,0.5862741819394961,,experiment,emotion,2.0,,,,1567.6309800000165,219,22,female,True
661,131.0,25,M,up,0.5195190999947954,0.5181692195406781,,experiment,emotion,2.0,,,,1568.914287200023,219,22,female,True
662,0.3185596497872488,25,up,up,0.3505378999980166,0.4181103467233623,,experiment,cRDM,3.0,,,,1591.680003400019,219,22,female,True
663,0.3185596497872488,25,up,up,0.3837743999902159,1.5692647443784216,,experiment,cRDM,3.0,,,,1593.9299715000088,219,22,female,True
664,0.3185596497872488,25,down,down,0.3838358000211883,1.433627403964261,,experiment,cRDM,3.0,,,,1596.0465425000002,219,22,female,True
665,0.3185596497872488,25,down,up,0.5076594000274781,0.6359795592405206,,experiment,cRDM,3.0,,,,1597.363127700024,219,22,female,True
666,0.3185596497872488,25,up,up,0.612349400005769,0.4082085662853906,,experiment,cRDM,3.0,,,,1598.5464331000112,219,22,female,True
667,0.3185596497872488,25,down,up,0.3504440999822691,1.5216443397707575,,experiment,cRDM,3.0,,,,1600.9297237000137,219,22,female,True
668,0.3185596497872488,25,up,up,0.3170979999995325,1.1242690963143536,,experiment,cRDM,3.0,,,,1602.729665300023,219,22,female,True
669,0.3185596497872488,25,up,up,0.4202381999930367,0.6561673320237392,,experiment,cRDM,3.0,,,,1604.079608,219,22,female,True
670,0.3185596497872488,25,down,down,0.3505229000002146,1.6699302408290908,,experiment,cRDM,3.0,,,,1606.4461461000028,219,22,female,True
671,0.3185596497872488,25,down,up,0.5137475999945309,0.8219705387456862,,experiment,cRDM,3.0,,,,1607.9460887000023,219,22,female,True
672,0.3185596497872488,25,down,down,0.5884770000120625,0.6064256524832587,,experiment,cRDM,3.0,,,,1609.3293711000006,219,22,female,True
673,0.3185596497872488,25,down,down,0.4828175000147894,1.5218427048194438,,experiment,cRDM,3.0,,,,1611.6959655000246,219,22,female,True
674,0.3185596497872488,25,down,down,0.4198965999821666,1.3025179839920331,,experiment,cRDM,3.0,,,,1613.7458824000205,219,22,female,True
675,0.3185596497872488,25,down,down,0.4242690999817569,1.1849921954648384,,experiment,cRDM,3.0,,,,1615.612515100016,219,22,female,True
676,0.3185596497872488,25,up,up,0.4897363999916706,1.6871453490881283,,experiment,cRDM,3.0,,,,1617.97904820001,219,22,female,True
677,0.3185596497872488,25,up,up,0.4924765999894589,1.2254275202140217,,experiment,cRDM,3.0,,,,1619.9623375000083,219,22,female,True
678,0.3185596497872488,25,up,up,0.4718749000167008,0.5134105345998785,,experiment,cRDM,3.0,,,,1621.2289278000244,219,22,female,True
679,0.3185596497872488,25,up,up,0.4492260999977588,0.9871895202358298,,experiment,cRDM,3.0,,,,1622.945535900013,219,22,female,True
680,0.3185596497872488,25,down,down,0.3671751000219956,0.5286197880942188,,experiment,cRDM,3.0,,,,1624.195465100027,219,22,female,True
681,0.3185596497872488,25,up,up,0.3838759000063874,0.6772696762502886,,experiment,cRDM,3.0,,,,1625.5621192000108,219,22,female,True
682,0.3185596497872488,25,up,up,0.4736909000203013,0.581613483888582,,experiment,cRDM,3.0,,,,1626.812109600025,219,22,female,True
683,0.3185596497872488,25,down,down,0.5774406999989878,1.4489279752894235,,experiment,cRDM,3.0,,,,1628.9953273000135,219,22,female,True
684,0.3185596497872488,25,up,up,0.4002318999846466,0.8331908899889073,,experiment,cRDM,3.0,,,,1630.6619311000104,219,22,female,True
685,0.3185596497872488,25,down,down,0.3505140999914147,1.105346017467867,,experiment,cRDM,3.0,,,,1632.445191900013,219,22,female,True
686,0.3185596497872488,25,down,up,0.4883336999919265,0.5556513181698741,,experiment,cRDM,3.0,,,,1633.6784654000076,219,22,female,True
687,0.3185596497872488,25,up,up,0.4170189999858849,1.6363399983436444,,experiment,cRDM,3.0,,,,1636.061734100018,219,22,female,True
688,0.3185596497872488,25,up,up,0.3338020000082906,1.0277454138584317,,experiment,cRDM,3.0,,,,1637.761670500011,219,22,female,True
689,0.3185596497872488,25,down,down,0.5008906000002753,0.5864624602700603,,experiment,cRDM,3.0,,,,1639.0449465000129,219,22,female,True
690,0.3185596497872488,25,up,up,0.4745430999901145,0.5243729265800291,,experiment,cRDM,3.0,,,,1640.3282379000157,219,22,female,True
691,0.3185596497872488,25,down,down,0.3838622999901417,0.5804678044679751,,experiment,cRDM,3.0,,,,1641.628190400021,219,22,female,True
692,0.3185596497872488,25,down,down,0.5256848999997601,1.571474448896683,,experiment,cRDM,3.0,,,,1643.8780845,219,22,female,True
693,0.3185596497872488,25,down,up,0.4524075999797787,0.9015249311118888,,experiment,cRDM,3.0,,,,1645.561382600019,219,22,female,True
694,0.3185596497872488,25,up,up,0.4334583999880124,0.3249110605240737,,experiment,cRDM,3.0,,,,1646.6113679000118,219,22,female,True
695,0.3185596497872488,25,up,down,0.4170409999787807,0.8546995479099504,,experiment,cRDM,3.0,,,,1648.161279700027,219,22,female,True
696,0.3185596497872488,25,up,down,0.6795113000262063,0.3828739622949712,,experiment,cRDM,3.0,,,,1649.2112624,219,22,female,True
697,0.3185596497872488,25,down,down,0.4170033000118565,0.6120520619440857,,experiment,cRDM,3.0,,,,1650.7611913,219,22,female,True
698,0.3185596497872488,25,down,down,0.4002354000112973,1.3324281729191714,,experiment,cRDM,3.0,,,,1652.777779200027,219,22,female,True
699,0.3185596497872488,25,up,down,0.4002327999914996,0.9174018971513608,,experiment,cRDM,3.0,,,,1654.3610610000032,219,22,female,True
700,0.3185596497872488,25,down,down,0.507529099995736,1.99053027766818,,experiment,cRDM,3.0,,,,1657.044273700012,219,22,female,True
701,0.3185596497872488,25,up,up,0.439767900010338,1.097204539574871,,experiment,cRDM,3.0,,,,1658.9109256000083,219,22,female,True
702,0.3185596497872488,25,up,up,0.5368901999900118,0.3898326771200757,,experiment,cRDM,3.0,,,,1660.0108760000148,219,22,female,True
703,0.3185596497872488,25,up,up,0.4002548999851569,1.4119990916691805,,experiment,cRDM,3.0,,,,1662.2274701000133,219,22,female,True
704,0.3185596497872488,25,down,down,0.4293999999936204,1.464385429021148,,experiment,cRDM,3.0,,,,1664.377355900011,219,22,female,True
705,0.3185596497872488,25,down,up,0.4668849000008777,1.62018509170611,,experiment,cRDM,3.0,,,,1666.6939064000037,219,22,female,True
706,0.3185596497872488,25,up,up,0.3505218999926001,1.9823923652143345,,experiment,cRDM,3.0,,,,1669.4104678000149,219,22,female,True
707,0.3185596497872488,25,down,down,0.4002389999805018,1.2589739949726406,,experiment,cRDM,3.0,,,,1671.3437709000136,219,22,female,True
708,0.3185596497872488,25,down,up,0.5938186000275891,0.7539429923090986,,experiment,cRDM,3.0,,,,1672.7770458000014,219,22,female,True
709,0.3185596497872488,25,up,up,0.40025579999201,1.5111409203659976,,experiment,cRDM,3.0,,,,1675.143619200011,219,22,female,True
710,0.3185596497872488,25,up,up,0.8610887000104412,0.7097987060668922,,experiment,cRDM,3.0,,,,1676.5268861000077,219,22,female,True
711,0.3185596497872488,25,down,down,0.8003890000109095,1.847578788740168,,experiment,cRDM,3.0,,,,1679.4933836000273,219,22,female,True
712,0.3185596497872488,25,up,up,0.3337882999912835,1.645585405358459,,experiment,cRDM,3.0,,,,1682.1933698000212,219,22,female,True
713,0.3185596497872488,25,down,down,0.4648099000041839,1.4875334215616285,,experiment,cRDM,3.0,,,,1684.3599542000156,219,22,female,True
714,0.3185596497872488,25,down,down,0.4952338000002783,0.8814035449526896,,experiment,cRDM,3.0,,,,1685.9765174000058,219,22,female,True
715,0.3185596497872488,25,down,up,0.442980499996338,1.766566637262694,,experiment,cRDM,3.0,,,,1688.5098234000034,219,22,female,True
716,0.3185596497872488,25,up,up,0.5737254999985453,1.7375320298062928,,experiment,cRDM,3.0,,,,1690.94303200001,219,22,female,True
717,0.3185596497872488,25,up,up,0.417021700006444,1.9424373306355127,,experiment,cRDM,3.0,,,,1693.7262701000143,219,22,female,True
718,0.3185596497872488,25,down,down,0.426587300025858,0.765752970271115,,experiment,cRDM,3.0,,,,1695.1761858000243,219,22,female,True
719,0.3185596497872488,25,down,down,0.4793405000236816,1.1456991158047225,,experiment,cRDM,3.0,,,,1697.0094943000004,219,22,female,True
720,0.3185596497872488,25,up,up,0.3005031000066083,0.9052052387770028,,experiment,cRDM,3.0,,,,1698.6593883000023,219,22,female,True
721,0.3185596497872488,25,up,up,0.3504217000154312,0.9680791910512978,,experiment,cRDM,3.0,,,,1700.3094038999989,219,22,female,True
722,0.3185596497872488,25,up,up,0.4170207999995909,1.4423190070251664,,experiment,cRDM,3.0,,,,1702.425943600014,219,22,female,True
723,0.3185596497872488,25,up,up,0.3504879999964032,0.8234795563091466,,experiment,cRDM,3.0,,,,1703.9259003000043,219,22,female,True
724,0.3185596497872488,25,up,up,0.3671462000056635,0.4417248561953692,,experiment,cRDM,3.0,,,,1705.0591765000136,219,22,female,True
725,0.3185596497872488,25,down,down,0.455574899999192,0.5696951409055105,,experiment,cRDM,3.0,,,,1706.3091853000224,219,22,female,True
726,0.3185596497872488,25,down,down,0.515376199997263,1.3512751103784997,,experiment,cRDM,3.0,,,,1708.3923900000227,219,22,female,True
