,stimLvl,stimTime,rand,response,rt,precedingITI,trialNumber,trialType,stimuli,block,estIntens,estThres,estSlope,trialStart,subject,age,gender,headRest
0,150.0,100,F,,,1.476800391085578,,introTrial,emotion,,,,,337.02746209999896,1017,26,male,True
1,0.9,100,down,,,1.038089226751229,,introTrial,cRDM,,,,,341.99394199999733,1017,26,male,True
2,200.0,25,M,up,1.3226265000012063,1.9015762085121248,,tutorial,emotion,,,,,401.7417311999998,1017,26,male,True
3,200.0,25,F,up,0.9994121999989148,1.778324576642487,,tutorial,emotion,,,,,405.124910999999,1017,26,male,True
4,200.0,25,M,up,0.9862050999981876,1.116011587359346,,tutorial,emotion,,,,,407.55817009999737,1017,26,male,True
5,0.0,25,M,down,0.9007242000006954,1.609041813103729,,tutorial,emotion,,,,,410.4746086999985,1017,26,male,True
6,0.0,25,M,down,0.568029199999728,0.8775359312144064,,tutorial,emotion,,,,,412.54130449999866,1017,26,male,True
7,200.0,25,F,up,0.6231161000032444,0.4556481539836803,,tutorial,emotion,,,,,413.84125069999936,1017,26,male,True
8,0.0,25,M,down,0.8731827000010526,1.5370545894672218,,tutorial,emotion,,,,,416.2911782999981,1017,26,male,True
9,200.0,25,F,up,0.6441866000022856,0.6935350686332944,,tutorial,emotion,,,,,418.1411055999997,1017,26,male,True
10,0.0,25,F,down,0.589766499997495,1.887612896216073,,tutorial,emotion,,,,,420.9576629999974,1017,26,male,True
11,0.0,25,F,down,0.5344358000002103,0.8233816486265455,,tutorial,emotion,,,,,422.6409296999991,1017,26,male,True
12,0.9,25,up,up,0.8647782999978517,0.5785451632529934,,tutorial,cRDM,,,,,431.8906270999978,1017,26,male,True
13,0.9,25,up,up,0.782219199998508,1.015693537759068,,tutorial,cRDM,,,,,434.0571896000001,1017,26,male,True
14,0.9,25,down,down,0.6164793000025384,1.2504374571022634,,tutorial,cRDM,,,,,436.3570921999999,1017,26,male,True
15,0.9,25,down,up,1.1196701999979268,0.9893250836743148,,tutorial,cRDM,,,,,438.2237081999992,1017,26,male,True
16,0.9,25,up,up,0.6827166000002762,1.3012038699149682,,tutorial,cRDM,,,,,440.92360539999936,1017,26,male,True
17,0.9,25,down,down,0.5851978999999119,0.4852390067826417,,tutorial,cRDM,,,,,442.3901678000002,1017,26,male,True
18,0.9,25,up,up,0.4948922000003222,1.757379845769251,,tutorial,cRDM,,,,,445.02344879999873,1017,26,male,True
19,0.9,25,up,up,0.5242684000004374,0.620778471490281,,tutorial,cRDM,,,,,446.3900974999997,1017,26,male,True
20,0.9,25,down,down,0.5949942999977793,1.2344467269312485,,tutorial,cRDM,,,,,448.42332429999806,1017,26,male,True
21,0.9,25,down,down,0.4167932000018481,0.5495267308051539,,tutorial,cRDM,,,,,449.8399519999985,1017,26,male,True
22,100.0,25,M,,,1.862929236683852,,psi_staircase_training,emotion,,100.0,100.0,25.00050000000001,464.1060963999989,1017,26,male,True
23,100.0,25,F,up,1.5333974999994098,1.862929236683852,,psi_staircase_training,emotion,,100.0,100.0,25.00050000000001,468.65593239999725,1017,26,male,True
24,55.0,25,M,down,0.7401769999996759,1.6815598530061364,,psi_staircase_training,emotion,,54.7428094675419,54.7428094675419,25.00050000000011,472.2391228999986,1017,26,male,True
25,79.0,25,F,up,0.7709643999987748,0.4178262219318229,,psi_staircase_training,emotion,,79.636070985635,79.636070985635,25.713269254886413,473.7223995999993,1017,26,male,True
26,63.0,25,F,down,0.9244595999989542,1.6023850552347496,,psi_staircase_training,emotion,,62.16401670338348,62.16401670338348,25.292325986283885,476.43896529999984,1017,26,male,True
27,73.0,25,M,down,1.3114734000009776,0.3483344910072904,,psi_staircase_training,emotion,,73.53930944190891,73.53930944190891,23.64975108561003,478.0889098999978,1017,26,male,True
28,87.0,25,F,down,2.002228599998489,1.809355691034124,,psi_staircase_training,emotion,,82.48355301883353,82.48355301883353,24.57617413513036,481.5721130999991,1017,26,male,True
29,106.0,25,M,down,1.7177104000002146,0.6695102339633208,,psi_staircase_training,emotion,,93.47321971198342,93.47321971198342,30.11570117720217,484.5886677999988,1017,26,male,True
30,122.0,25,F,up,0.8045019999990473,1.7455068068401232,,psi_staircase_training,emotion,,106.38438652375147,106.38438652375147,35.11755585279654,488.4218743999991,1017,26,male,True
31,117.0,25,F,up,1.3443585999993957,1.8727426626809085,,psi_staircase_training,emotion,,99.83666875700578,99.83666875700578,33.624951265145846,491.4720041000001,1017,26,male,True
32,113.0,25,M,up,0.6504889999996522,0.7083013070406716,,psi_staircase_training,emotion,,95.38058249628054,95.38058249628054,32.2167824305347,493.8719143999988,1017,26,male,True
33,74.0,25,F,down,0.7781543000019155,1.2785633235385387,,psi_staircase_training,emotion,,91.93529307222585,91.93529307222585,30.97015401731504,496.1882415,1017,26,male,True
34,115.0,25,F,down,0.7891712999989977,0.6587791359106081,,psi_staircase_training,emotion,,94.7803779169802,94.7803779169802,29.793246610682463,497.9882111000006,1017,26,male,True
35,125.0,25,F,,,0.7366333863489463,,psi_staircase_training,emotion,,101.9124528883282,101.9124528883282,33.858939982483946,499.8716982000005,1017,26,male,True
36,125.0,25,F,up,1.0313976999968872,0.7366333863489463,,psi_staircase_training,emotion,,101.9124528883282,101.9124528883282,33.858939982483946,503.2879816999957,1017,26,male,True
37,123.0,25,M,up,1.2001632999963476,1.6186207439365716,,psi_staircase_training,emotion,,99.48531788543292,99.48531788543292,32.76379403844969,506.3212098999975,1017,26,male,True
38,76.0,25,M,down,0.6608885000023292,0.3535660685339017,,psi_staircase_training,emotion,,97.4754002119166,97.4754002119166,31.744804809714125,508.2544453999981,1017,26,male,True
39,124.0,25,F,up,0.9524572999944212,1.9936737105848985,,psi_staircase_training,emotion,,99.42007133755033,99.42007133755033,30.688791221342782,511.27088999999614,1017,26,male,True
40,76.0,25,F,down,1.105110500000592,1.3519143223787085,,psi_staircase_training,emotion,,97.88379277967948,97.88379277967948,29.623001657074933,513.904259400002,1017,26,male,True
41,124.0,25,M,up,2.2259080999938305,1.645379769479494,,psi_staircase_training,emotion,,99.44244480189718,99.44244480189718,28.52004607879813,516.9874803999955,1017,26,male,True
42,77.0,25,M,down,0.7674363000041922,1.5881438404722086,,psi_staircase_training,emotion,,98.226534679778,98.226534679778,27.44837058805137,521.1709082999987,1017,26,male,True
43,79.0,25,M,down,0.7725436999971862,1.1026963600159911,,psi_staircase_training,emotion,,99.53334000955662,99.53334000955662,26.34036297531208,523.4039147999974,1017,26,male,True
44,124.0,25,M,up,2.2148664999986067,1.4168173772243722,,psi_staircase_training,emotion,,100.68756317854432,100.68756317854432,25.30728617830116,525.9204826999958,1017,26,male,True
45,81.0,25,F,down,1.0127187999969465,1.11992782749625,,psi_staircase_training,emotion,,99.72732497569504,99.72732497569504,24.228914734248967,529.6036672000009,1017,26,male,True
46,122.0,25,F,up,0.6994542000029469,1.2542036468167217,,psi_staircase_training,emotion,,100.76670728873988,100.76670728873988,23.231491644921785,532.236915999998,1017,26,male,True
47,85.0,25,F,down,1.489864300005138,0.9544019868247832,,psi_staircase_training,emotion,,99.93433117657288,99.93433117657288,22.228432297872423,534.2535177999998,1017,26,male,True
48,88.0,25,M,down,0.845008999996935,1.3545285296239935,,psi_staircase_training,emotion,,100.99670190272,100.99670190272,21.292090823384218,537.4533746999987,1017,26,male,True
49,122.0,25,M,,,1.239748903207846,,psi_staircase_training,emotion,,102.05357606695618,102.05357606695618,20.43331997269901,539.8698781999956,1017,26,male,True
50,122.0,25,M,up,0.7418567999993684,1.239748903207846,,psi_staircase_training,emotion,,102.05357606695618,102.05357606695618,20.43331997269901,543.7865196000021,1017,26,male,True
51,91.0,25,F,down,0.758926500006055,0.3781328958939552,,psi_staircase_training,emotion,,101.39983149281046,101.39983149281046,19.526002114290343,545.2864272999977,1017,26,male,True
52,93.0,25,F,down,1.106042699997488,0.6162624643702979,,psi_staircase_training,emotion,,102.4820528603324,102.4820528603324,18.719868522132103,547.0363782999957,1017,26,male,True
53,94.0,25,M,down,0.997819199998048,1.447945251073805,,psi_staircase_training,emotion,,103.53753603315673,103.53753603315673,17.942087471196096,549.9695298999977,1017,26,male,True
54,96.0,25,M,down,0.920164000002842,1.1072185956852516,,psi_staircase_training,emotion,,104.51320849697986,104.51320849697986,17.159296766740272,552.4362032999961,1017,26,male,True
55,0.29,25,down,,,1.8624447004604647,,psi_staircase_training,cRDM,,0.25,0.2569312402994632,0.105,560.1025862999995,1017,26,male,True
56,0.29,25,down,up,0.9099824000004446,1.8624447004604647,,psi_staircase_training,cRDM,,0.25,0.2569312402994632,0.105,564.6524018000018,1017,26,male,True
57,0.39,25,up,up,0.8167457999952603,1.1588539194466496,,psi_staircase_training,cRDM,,0.3546095744690496,0.3616109212953642,0.1060620300265678,566.9856373999974,1017,26,male,True
58,0.38,25,up,up,0.687080399999104,1.5326440591704973,,psi_staircase_training,cRDM,,0.3357987849034938,0.3429317268363466,0.1080555384881884,569.6022469999989,1017,26,male,True
59,0.35,25,down,up,1.0129267000011168,1.3625284662058192,,psi_staircase_training,cRDM,,0.3178220825339425,0.3249720550198983,0.1083135309972574,571.9354458999987,1017,26,male,True
60,0.41,25,down,down,0.7635127999965334,0.8581722706329706,,psi_staircase_training,cRDM,,0.380209013873896,0.387126060036953,0.1047849758112157,574.1019980000019,1017,26,male,True
61,0.4,25,down,down,0.71136039999692,0.3548792579894923,,psi_staircase_training,cRDM,,0.3683317485518004,0.3751914040682512,0.1039155761607495,575.502002899997,1017,26,male,True
62,0.4,25,up,up,0.6517125999962445,0.6251700121144567,,psi_staircase_training,cRDM,,0.3573248709371661,0.3640336778518085,0.1016304002751134,577.1186229999985,1017,26,male,True
63,0.4,25,down,up,0.7874446000059834,0.6428770658582295,,psi_staircase_training,cRDM,,0.3479501384639377,0.3544107507010633,0.0978705477792656,578.7019265000017,1017,26,male,True
64,0.43,25,up,down,1.054123800000525,1.1128972532638366,,psi_staircase_training,cRDM,,0.3899884768183521,0.3981267592557004,0.1232852446318656,580.8852273999983,1017,26,male,True
65,0.46,25,up,up,0.6156428000031156,1.190733954703774,,psi_staircase_training,cRDM,,0.4238554834130622,0.4321036547510864,0.1249499300377176,583.4017301000022,1017,26,male,True
66,0.46,25,down,down,0.6333778000043822,0.4379558428716171,,psi_staircase_training,cRDM,,0.41706439172282,0.4254465782555924,0.1269800999410242,584.7350039999983,1017,26,male,True
67,0.42,25,down,down,1.0864442000020065,0.7879307593082637,,psi_staircase_training,cRDM,,0.4107638635248116,0.4191747277191127,0.1274145322115005,586.4349382999972,1017,26,male,True
68,0.42,25,up,up,0.5461742000043159,0.8184328356702208,,psi_staircase_training,cRDM,,0.4020648578311982,0.4108368340893306,0.1328849480482186,588.6181875000002,1017,26,male,True
69,0.42,25,up,up,0.9019534999970348,1.7690644400450608,,psi_staircase_training,cRDM,,0.3934203663372357,0.4024363104447943,0.1365807691542533,591.2014240999961,1017,26,male,True
70,0.42,25,down,up,0.9140282000007574,1.8231840737086216,,psi_staircase_training,cRDM,,0.3849886779362763,0.3941461620404666,0.1387249308055938,594.2013110000007,1017,26,male,True
71,0.47,25,up,up,0.8254841999951168,0.7290898941578804,,psi_staircase_training,cRDM,,0.4127096116642979,0.4216752519331856,0.1358187261673947,596.1179152000004,1017,26,male,True
72,0.42,25,down,down,0.8462211000005482,0.6270641738639908,,psi_staircase_training,cRDM,,0.40819728931502,0.4170523614521736,0.1341437512234474,597.851177499997,1017,26,male,True
73,0.42,25,up,up,0.6202620999974897,1.3128008130991986,,psi_staircase_training,cRDM,,0.4008637757496032,0.410021045368571,0.1387216816110204,600.3010825999991,1017,26,male,True
74,0.41,25,up,up,0.5554794999989099,1.4595241047502563,,psi_staircase_training,cRDM,,0.3935999298907915,0.4029717714651193,0.1419721900827206,602.6509597000004,1017,26,male,True
75,0.41,25,down,down,0.922179999994114,1.408405393366976,,psi_staircase_training,cRDM,,0.3861052721060261,0.3956736875790532,0.1449500495236965,604.8841734999987,1017,26,male,True
76,0.41,25,up,up,0.5361594000059995,1.1049039324269625,,psi_staircase_training,cRDM,,0.378739340202132,0.3884393168456532,0.1469430438948403,607.1841750999993,1017,26,male,True
77,0.41,25,down,down,0.9249161000043388,1.7807100817513228,,psi_staircase_training,cRDM,,0.3715572404713435,0.381336476301818,0.1481437257743525,609.7674539999971,1017,26,male,True
78,0.42,25,down,up,0.5153651000000536,1.372012258550223,,psi_staircase_training,cRDM,,0.3645993234571205,0.3744162595031305,0.1487148389460504,612.333972700002,1017,26,male,True
79,0.41,25,down,down,0.9231469000005744,1.6235663890009788,,psi_staircase_training,cRDM,,0.3899755459394561,0.39990530659628,0.1504239968490542,614.7672394000001,1017,26,male,True
80,0.41,25,up,up,0.9592258000047876,1.649827394424811,,psi_staircase_training,cRDM,,0.3835585709469559,0.3935975665071654,0.1520787749782141,617.6171170999987,1017,26,male,True
81,0.42,25,down,down,0.5286570000025677,0.9864516323476732,,psi_staircase_training,cRDM,,0.3772431945835685,0.3873566710039406,0.1532070709222577,619.8337038999998,1017,26,male,True
82,0.4,25,up,up,0.5116941999949631,0.8651950703000046,,psi_staircase_training,cRDM,,0.3713531927199062,0.3814873292199269,0.1535200464171722,621.4836585999983,1017,26,male,True
83,0.4,25,up,down,0.966096700001799,0.8402772770973328,,psi_staircase_training,cRDM,,0.3650186524641422,0.3752085012356822,0.1543640206925956,623.1002520000002,1017,26,male,True
84,0.44,25,down,down,0.608367900000303,1.6104476525657505,,psi_staircase_training,cRDM,,0.3862368074883213,0.3963025924542348,0.1524846024315104,625.9670548999966,1017,26,male,True
85,0.44,25,up,up,0.5603341999958502,0.4043554420990305,,psi_staircase_training,cRDM,,0.3815428923203722,0.3915742328728853,0.1519628107678556,627.2500775999979,1017,26,male,True
86,100.0,25,M,down,1.1436264000003575,0.8642599129503978,,psi_staircase,emotion,,100.0,100.0,25.00050000000001,645.6827509999966,1017,26,male,True
87,145.0,25,M,up,0.5150695999982418,0.6463951961574409,,psi_staircase,emotion,,145.25719053245996,145.25719053245996,25.00050000000028,647.8493251,1017,26,male,True
88,121.0,25,F,up,0.528678900001978,0.6494617289133229,,psi_staircase,emotion,,120.36392901436103,120.36392901436103,25.71326925488699,649.3657475999971,1017,26,male,True
89,97.0,25,F,down,0.5627956000025733,0.6400441222828182,,psi_staircase,emotion,,102.3887610608496,102.3887610608496,26.14633372628729,650.8825647000012,1017,26,male,True
90,113.0,25,M,up,0.4942260000025271,0.8977508949374542,,psi_staircase,emotion,,114.01123255420406,114.01123255420406,23.00305641778335,652.6991634999977,1017,26,male,True
91,105.0,25,F,down,0.9866133999967132,0.8078468930251896,,psi_staircase,emotion,,104.94359593877375,104.94359593877375,22.15060322358215,654.3657811999983,1017,26,male,True
92,116.0,25,M,down,0.6413786000048276,0.8921712123570391,,psi_staircase,emotion,,111.58377353439042,111.58377353439042,20.59785325106301,656.5990140999966,1017,26,male,True
93,131.0,25,M,up,0.7010643000030541,0.4435308543580226,,psi_staircase,emotion,,119.22444233711109,119.22444233711109,26.33379145122974,658.0323246000007,1017,26,male,True
94,129.0,25,F,up,0.8955056999984663,0.9460635876300124,,psi_staircase,emotion,,115.25120882513642,115.25120882513642,23.77356239496929,660.048882799998,1017,26,male,True
95,100.0,25,F,down,0.6102237000013702,1.6715066768863331,,psi_staircase,emotion,,112.70789044424168,112.70789044424168,21.562133495044044,662.9821268999985,1017,26,male,True
96,127.0,25,F,down,0.5683441000001039,0.5198872541988278,,psi_staircase,emotion,,114.91549407296937,114.91549407296937,19.18743550316675,664.4820656999982,1017,26,male,True
97,139.0,25,F,down,1.8489769999941927,1.6924181653140578,,psi_staircase,emotion,,120.47937512084611,120.47937512084611,26.248527516222318,667.1153191000012,1017,26,male,True
98,149.0,25,F,up,0.6818668999985675,0.7795645843386392,,psi_staircase,emotion,,127.0440593523414,127.0440593523414,32.44087341336444,670.0985236000015,1017,26,male,True
99,148.0,25,F,up,0.5545551999966847,1.2960638855081972,,psi_staircase,emotion,,124.7574418335625,124.7574418335625,31.05959062279408,672.4317663000002,1017,26,male,True
100,99.0,25,M,down,0.616025900002569,0.5534637038534604,,psi_staircase,emotion,,122.96020496993847,122.96020496993847,29.769482301128573,673.8983886000024,1017,26,male,True
101,148.0,25,M,up,0.7027470999964862,0.6405950130124749,,psi_staircase,emotion,,124.4001993227432,124.4001993227432,28.560480106064592,675.481668700002,1017,26,male,True
102,99.0,25,M,down,0.7591285000016796,0.4885462285605453,,psi_staircase,emotion,,123.01112917236355,123.01112917236355,27.251910432430293,676.9982637999965,1017,26,male,True
103,146.0,25,M,up,0.643842700003006,1.0831729434781272,,psi_staircase,emotion,,124.11827199084084,124.11827199084084,26.04505057077883,679.1815494000002,1017,26,male,True
104,101.0,25,F,down,0.619224199996097,0.5201453439963222,,psi_staircase,emotion,,122.96294966318244,122.96294966318244,24.7577861542418,680.6981309000003,1017,26,male,True
105,145.0,25,M,up,0.6969421000030707,1.013005212689405,,psi_staircase,emotion,,123.89046482040482,123.89046482040482,23.588242092353088,682.6814130999956,1017,26,male,True
106,143.0,25,M,up,0.978866299999936,1.2166993971737752,,psi_staircase,emotion,,122.9575754840836,122.9575754840836,22.39166907629592,684.9645463000015,1017,26,male,True
107,102.0,25,F,down,0.944497799995588,0.4495076061440168,,psi_staircase,emotion,,122.1576390198216,122.1576390198216,21.31106083547161,686.747894600001,1017,26,male,True
108,141.0,25,M,up,0.6019044000058784,0.7997038732127864,,psi_staircase,emotion,,122.90962894419104,122.90962894419104,20.24358562549456,688.8645150999982,1017,26,male,True
109,104.0,25,F,down,0.6456944000019575,1.619500577200281,,psi_staircase,emotion,,122.20400332748332,122.20400332748332,19.28074210798226,691.4477272999975,1017,26,male,True
110,139.0,25,F,up,0.8883219000053941,0.5332794176768708,,psi_staircase,emotion,,122.85997692693766,122.85997692693766,18.348104991047272,692.981020700001,1017,26,male,True
111,106.0,25,M,down,1.507423100003507,0.6507193939769038,,psi_staircase,emotion,,122.21549011557752,122.21549011557752,17.510852606970776,694.8809583000002,1017,26,male,True
112,136.0,25,M,up,1.1922715999971842,1.090094353023334,,psi_staircase,emotion,,122.80751102596004,122.80751102596004,16.713265158301617,697.8641081999995,1017,26,male,True
113,108.0,25,F,down,0.5985797000030288,0.9083779058779664,,psi_staircase,emotion,,122.15186708966804,122.15186708966804,15.991659574810702,700.3307746999963,1017,26,male,True
114,133.0,25,M,up,0.7440190999986953,0.9333896522936678,,psi_staircase,emotion,,122.70759084738222,122.70759084738222,15.31514325064096,702.2473225999966,1017,26,male,True
115,131.0,25,F,up,0.7874731999982032,0.5455372037586301,,psi_staircase,emotion,,122.01243673504877,122.01243673504877,14.698209463628276,703.9139535999966,1017,26,male,True
116,129.0,25,F,up,0.721088400001463,0.5794332066521143,,psi_staircase,emotion,,121.31004865671268,121.31004865671268,14.14687673724102,705.6472219000025,1017,26,male,True
117,110.0,25,F,down,0.5729710000014165,1.6112761796707704,,psi_staircase,emotion,,120.58580815839916,120.58580815839916,13.649721198536492,708.3304564999962,1017,26,male,True
118,127.0,25,M,up,0.6743145000000368,0.3288309118344681,,psi_staircase,emotion,,121.12936008876252,121.12936008876252,13.09354863118467,709.5970736999989,1017,26,male,True
119,127.0,25,M,up,0.983417499999632,1.3463342863772605,,psi_staircase,emotion,,120.3725062228792,120.3725062228792,12.64269769706638,711.946977399999,1017,26,male,True
120,126.0,25,M,up,0.8784815999970306,1.3404776716775295,,psi_staircase,emotion,,119.70460462455408,119.70460462455408,12.168405204445694,714.646870200002,1017,26,male,True
121,125.0,25,F,up,0.7985802999974112,1.2023719458885342,,psi_staircase,emotion,,119.05525994628913,119.05525994628913,11.696330631846696,717.0968152999958,1017,26,male,True
122,123.0,25,F,up,0.6761330000008456,1.2162773394205308,,psi_staircase,emotion,,118.4213324022288,118.4213324022288,11.220535886829923,719.4632965000019,1017,26,male,True
123,123.0,25,M,down,0.7857779999976628,1.561848496906453,,psi_staircase,emotion,,117.73315372717909,117.73315372717909,10.761034699338817,722.0466044999957,1017,26,male,True
124,108.0,25,F,down,1.0378784999993511,1.756981788386134,,psi_staircase,emotion,,119.12947302641938,119.12947302641938,11.93360860871285,724.9465031999971,1017,26,male,True
125,109.0,25,M,down,1.5409393000009004,0.6277821003227033,,psi_staircase,emotion,,119.47819296168365,119.47819296168365,11.430474013840993,726.9964395000025,1017,26,male,True
126,129.0,25,M,up,0.5731027000001632,1.1931195236455876,,psi_staircase,emotion,,119.79693517335194,119.79693517335194,10.98255639432502,730.0962904000007,1017,26,male,True
127,110.0,25,M,down,0.6497467000008328,0.7595813041996111,,psi_staircase,emotion,,119.48076889340658,119.48076889340658,10.584433161254196,731.779628100001,1017,26,male,True
128,128.0,25,F,up,0.657554400000663,1.3109930178990956,,psi_staircase,emotion,,119.77771475454428,119.77771475454428,10.187672628549889,734.112838099998,1017,26,male,True
129,128.0,25,F,up,0.8969110999969416,0.9751483813677267,,psi_staircase,emotion,,119.4643061642986,119.4643061642986,9.813775183847396,736.079442899998,1017,26,male,True
130,111.0,25,M,down,0.7968221000046469,1.1347864305056636,,psi_staircase,emotion,,119.18966035246235,119.18966035246235,9.46117489288694,738.4625682000005,1017,26,male,True
131,127.0,25,F,down,1.779558599999291,0.9488652727118554,,psi_staircase,emotion,,119.47339818831853,119.47339818831853,9.108262108076572,740.5628611999964,1017,26,male,True
132,111.0,25,F,down,1.684573400001682,1.1134134812196317,,psi_staircase,emotion,,120.55146650144174,120.55146650144174,10.408274356224062,743.7958093000016,1017,26,male,True
133,111.0,25,M,down,0.5963757999998052,1.9020120194867132,,psi_staircase,emotion,,120.79803946291472,120.79803946291472,10.078009807042063,747.7290156999989,1017,26,male,True
134,130.0,25,M,up,0.8858391000030679,1.0903933072704233,,psi_staircase,emotion,,121.01265088228588,121.01265088228588,9.777918832132396,749.7955944000023,1017,26,male,True
135,112.0,25,F,up,1.3048236000031466,0.5392685605286855,,psi_staircase,emotion,,120.7962434893662,120.7962434893662,9.490017119179669,751.5955374000005,1017,26,male,True
136,0.29,25,up,up,0.6256415000025299,0.5503703573030585,,psi_staircase,cRDM,,0.25,0.2569312402994632,0.105,755.9787449999967,1017,26,male,True
137,0.25,25,up,up,0.6381149000008008,0.586948979898433,,psi_staircase,cRDM,,0.2191026665318312,0.2260132002683492,0.1046863203387393,757.4452816000012,1017,26,male,True
138,0.21,25,down,up,1.0191278999991482,1.748639041723476,,psi_staircase,cRDM,,0.1900540959403307,0.1968497961554001,0.1029467298424999,760.0952579999976,1017,26,male,True
139,0.32,25,down,down,0.6076208000013139,0.8722207677059848,,psi_staircase,cRDM,,0.2819387795981387,0.2893209636160949,0.1118312579561586,762.261770000001,1017,26,male,True
140,0.29,25,up,up,0.6566334000017378,1.723778460843982,,psi_staircase,cRDM,,0.259426876942127,0.2667634756990502,0.1111406957765679,764.8617420999981,1017,26,male,True
141,0.27,25,down,up,1.262394299999869,0.8098874656684849,,psi_staircase,cRDM,,0.238671950950526,0.2458822432686334,0.109227304305105,766.594973299998,1017,26,male,True
142,0.34,25,up,up,1.1651446999967447,1.970173797298131,,psi_staircase,cRDM,,0.3095700646318685,0.3173617612486154,0.1180348840050718,770.0782763999996,1017,26,male,True
143,0.33,25,down,down,0.4773081000021193,0.6112908677938467,,psi_staircase,cRDM,,0.2918098075291885,0.2995539490843272,0.1173144817028677,772.128111199996,1017,26,male,True
144,0.32,25,down,down,1.0503546000036297,1.0117206133409808,,psi_staircase,cRDM,,0.2760740137711686,0.2836649683739273,0.1149938826030014,773.8780437999994,1017,26,male,True
145,0.31,25,up,up,0.6554237000018475,1.1756299023512575,,psi_staircase,cRDM,,0.2624584113970729,0.2698322462424223,0.1117047779777088,776.3779630999961,1017,26,male,True
146,0.26,25,down,up,0.657168300000194,1.822730815007422,,psi_staircase,cRDM,,0.2507345041127192,0.2578711164378538,0.1081111405410598,779.1111913999957,1017,26,male,True
147,0.32,25,down,down,0.7069644999937736,0.8035694145013399,,psi_staircase,cRDM,,0.2893572460461391,0.295352290881649,0.0908177585153542,780.844438899996,1017,26,male,True
148,0.31,25,down,down,0.7936856000014814,1.1108259757858576,,psi_staircase,cRDM,,0.2805773265399167,0.286138026209083,0.0842379487705353,782.927719999996,1017,26,male,True
149,0.31,25,up,up,0.6235219000009238,1.4763129173635088,,psi_staircase,cRDM,,0.2734634563744305,0.2786218582005888,0.0781436176420777,785.4608622999986,1017,26,male,True
150,0.3,25,up,up,0.6865410000027623,0.918375301151478,,psi_staircase,cRDM,,0.2682141001544855,0.2729734496764234,0.0720984525442264,787.2608180999996,1017,26,male,True
151,0.29,25,down,up,1.4981803000046057,0.939685884118862,,psi_staircase,cRDM,,0.2635431434880233,0.2680073423354219,0.0676272728580984,789.144150600001,1017,26,male,True
152,0.32,25,down,down,0.6414562999998452,1.5538965418472712,,psi_staircase,cRDM,,0.2864569542855869,0.2914416526492294,0.0755122179536903,792.4609573000016,1017,26,male,True
153,0.32,25,up,up,0.6583791000011843,0.7650900109667536,,psi_staircase,cRDM,,0.2821163005084025,0.2866361785080957,0.0684707454168837,794.1439913999966,1017,26,male,True
154,0.32,25,up,up,0.6918799999984913,1.9515218586868732,,psi_staircase,cRDM,,0.2791368278634569,0.2832282865307907,0.0619807049689662,797.0105146999958,1017,26,male,True
155,0.3,25,up,up,0.7372968000054243,1.4659681899848518,,psi_staircase,cRDM,,0.2772036797664727,0.2809093964799239,0.0561371757580674,799.4270911999956,1017,26,male,True
156,0.29,25,up,up,0.636706299999787,1.1687840285145794,,psi_staircase,cRDM,,0.2740743979118597,0.2776314989100141,0.0538858254323025,801.5936918999978,1017,26,male,True
157,0.28,25,down,down,1.0170091000036336,0.5630973429862889,,psi_staircase,cRDM,,0.2694099741708443,0.2730864560391003,0.0556943028214999,803.0603458000005,1017,26,male,True
158,0.27,25,down,up,0.5429338999965694,1.7608063516385866,,psi_staircase,cRDM,,0.262480387841343,0.266603932602911,0.0624667709180654,806.0934895999999,1017,26,male,True
159,0.29,25,down,down,1.25660240000434,0.7265603696118296,,psi_staircase,cRDM,,0.2799512044033605,0.2826845697075941,0.0414072149492131,807.6267996999995,1017,26,male,True
160,0.29,25,up,up,0.5002286000017193,1.0267421380433366,,psi_staircase,cRDM,,0.2769740772670677,0.279716937293507,0.041551048633882,810.1601064999959,1017,26,male,True
161,0.29,25,up,down,1.3857592999993358,0.9575930668798704,,psi_staircase,cRDM,,0.2743390308106753,0.2770658688439866,0.0413083346020852,811.8766347999954,1017,26,male,True
162,0.31,25,down,up,0.6568202999987989,0.3068411120703194,,psi_staircase,cRDM,,0.2840667512758913,0.2869513091483847,0.0436976015151645,813.8265685999977,1017,26,male,True
163,0.33,25,down,down,0.7971928999977536,1.9930358514627875,,psi_staircase,cRDM,,0.2938645261926471,0.2997094362441848,0.08854339611613,816.7431621999967,1017,26,male,True
164,0.33,25,up,up,0.6713198000070406,0.8314342287216743,,psi_staircase,cRDM,,0.2903648509331762,0.295694029428581,0.0807306799132092,818.6430910000017,1017,26,male,True
165,0.33,25,up,up,0.8677502999998978,1.3014493562962923,,psi_staircase,cRDM,,0.2878406459421175,0.2926783067706583,0.0732847751701983,820.859651099996,1017,26,male,True
166,0.33,25,down,down,0.7371084000042174,1.18027599859783,,psi_staircase,cRDM,,0.2861202830702177,0.2904997849862827,0.0663442156553767,823.1762527999999,1017,26,male,True
167,0.33,25,up,up,0.9175705000016025,1.2176710099308976,,psi_staircase,cRDM,,0.2850403972618059,0.2890001900316524,0.0599861241091403,825.3928156000002,1017,26,male,True
168,0.3,25,down,down,0.7409216999949422,1.6835620568725416,,psi_staircase,cRDM,,0.2844551506462883,0.2880356131448782,0.0542397242209376,828.2594395000015,1017,26,male,True
169,0.3,25,up,up,0.598062500001106,1.8905522955412144,,psi_staircase,cRDM,,0.2817550860671304,0.2853003487421613,0.0537064889969364,831.159326500001,1017,26,male,True
170,0.3,25,down,down,0.8211645999981556,1.3911303598396425,,psi_staircase,cRDM,,0.2794577876114547,0.282933184680858,0.052648108638739,833.4092083999967,1017,26,male,True
171,0.3,25,up,up,0.6739544000010937,1.555123182664076,,psi_staircase,cRDM,,0.2775587506038313,0.2809375718363674,0.0511851002256791,836.0424125999962,1017,26,male,True
172,0.29,25,down,down,0.5654093999983161,1.9753153517039852,,psi_staircase,cRDM,,0.2760327875319873,0.2792958863166238,0.0494320435569607,838.9589326999958,1017,26,male,True
173,0.27,25,up,up,0.504800200003956,1.1373853197641244,,psi_staircase,cRDM,,0.2727433430144045,0.27616991209079,0.0519084229482477,840.9255683999982,1017,26,male,True
174,0.26,25,up,down,0.6464400000040769,0.4675409219513687,,psi_staircase,cRDM,,0.2657702341308238,0.2699902483787884,0.0639281682487025,842.1589041000007,1017,26,male,True
175,0.29,25,down,up,0.4404990999973961,0.4336285650809998,,psi_staircase,cRDM,,0.2792846915589336,0.2820050721009786,0.0412105113332818,843.5088391999998,1017,26,male,True
176,0.3,25,down,down,0.7829629999978351,1.5625617383610648,,psi_staircase,cRDM,,0.2868385381675807,0.2893364709679953,0.0378406941199025,845.7754036000006,1017,26,male,True
177,0.3,25,down,up,0.5730283000011696,1.3107905694374875,,psi_staircase,cRDM,,0.2856170664893639,0.2880051961114115,0.0361773073044972,848.1253333000022,1017,26,male,True
178,0.32,25,up,up,0.8130881000033696,0.9084442188528996,,psi_staircase,cRDM,,0.290901658583421,0.2939032940731206,0.0454711873779457,849.8752625000016,1017,26,male,True
179,0.32,25,up,down,0.6528290999995079,0.4135899375543456,,psi_staircase,cRDM,,0.2905775406734557,0.293254949488656,0.040559541070565,851.3585758000008,1017,26,male,True
180,0.33,25,down,down,1.7539754000026733,1.6029879163163774,,psi_staircase,cRDM,,0.2919780129915392,0.2981733170339997,0.0938514459682949,853.8584107000024,1017,26,male,True
181,0.33,25,down,up,0.6186231000028783,1.755534155515446,,psi_staircase,cRDM,,0.290220696668908,0.295938255105498,0.0866141714764148,857.6249767000008,1017,26,male,True
182,0.34,25,down,down,0.9567711999989116,0.4654351505759949,,psi_staircase,cRDM,,0.298826512047826,0.307804505426664,0.1360058610074422,858.9915870000004,1017,26,male,True
183,0.34,25,up,up,0.670545699998911,0.6121601314495094,,psi_staircase,cRDM,,0.2951665769484082,0.3038875582659308,0.1321124356936199,860.8248448999984,1017,26,male,True
184,0.34,25,up,down,1.5359396999992896,1.7217894667726386,,psi_staircase,cRDM,,0.2919425506354494,0.3003847316624282,0.1278889447681413,863.491424099997,1017,26,male,True
185,0.42,25,up,up,0.6060456999985036,1.2983220221109912,,psi_staircase,cRDM,,0.3053696812166809,0.3152526155797513,0.1497146345081636,866.5913219999966,1017,26,male,True
186,124.0,25,F,down,1.355356899999606,1.4821683134906605,,experiment,emotion,0.0,,,,873.7410047999983,1017,26,male,True
187,115.0,25,M,up,1.280892099995981,1.4660216301320093,,experiment,emotion,0.0,,,,876.8574876999955,1017,26,male,True
188,121.0,25,F,up,0.874287300001015,1.9067973337521096,,experiment,emotion,0.0,,,,880.3241205999984,1017,26,male,True
189,124.0,25,M,up,0.9356509000062944,1.2599545924569018,,experiment,emotion,0.0,,,,882.7407159999966,1017,26,male,True
190,121.0,25,F,up,0.8437520000006771,1.003517210983901,,experiment,emotion,0.0,,,,884.9406070000005,1017,26,male,True
191,118.0,25,F,up,0.8238023000012618,0.4395962085966937,,experiment,emotion,0.0,,,,886.540566599997,1017,26,male,True
192,115.0,25,M,up,0.935517499994603,0.9475588668408126,,experiment,emotion,0.0,,,,888.5738393999964,1017,26,male,True
193,118.0,25,F,up,1.571585600002436,0.598004153096489,,experiment,emotion,0.0,,,,890.373773700001,1017,26,male,True
194,124.0,25,M,up,1.2536789999940083,0.3151721793581509,,experiment,emotion,0.0,,,,892.5236831999973,1017,26,male,True
195,118.0,25,M,up,0.9601078999985476,1.2288943632015683,,experiment,emotion,0.0,,,,895.2902544999997,1017,26,male,True
196,121.0,25,F,up,0.8478589000005741,1.0682865963623716,,experiment,emotion,0.0,,,,897.6235070000002,1017,26,male,True
197,124.0,25,M,down,1.7063325999988592,1.900410938795596,,experiment,emotion,0.0,,,,900.6400354999969,1017,26,male,True
198,121.0,25,M,,,1.880908330158336,,experiment,emotion,0.0,,,,904.4899437000022,1017,26,male,True
199,115.0,25,M,,,1.6586837007099429,,experiment,emotion,0.0,,,,908.8564187999982,1017,26,male,True
200,118.0,25,F,down,0.1169063999986974,1.7482091342411912,,experiment,emotion,0.0,,,,913.3229048999964,1017,26,male,True
201,115.0,25,F,down,1.4871562999978778,0.9802843689069884,,experiment,emotion,0.0,,,,915.0061963000009,1017,26,male,True
202,124.0,25,M,down,1.320994100002281,0.4493770224064743,,experiment,emotion,0.0,,,,917.2394364999964,1017,26,male,True
203,115.0,25,M,down,2.3156759000048623,1.342858552550763,,experiment,emotion,0.0,,,,920.1726874999986,1017,26,male,True
204,121.0,25,F,up,0.9071579000010388,0.5546011474055672,,experiment,emotion,0.0,,,,923.3392114999988,1017,26,male,True
205,121.0,25,F,up,1.2882615999988047,0.723510543650402,,experiment,emotion,0.0,,,,925.2391361000008,1017,26,male,True
206,118.0,25,M,down,1.8210526000038956,1.7534447674704623,,experiment,emotion,0.0,,,,928.5723704000012,1017,26,male,True
207,118.0,25,F,up,1.304780700003903,0.5422188200440492,,experiment,emotion,0.0,,,,931.2055927,1017,26,male,True
208,115.0,25,M,down,2.228532399996766,0.793404487057543,,experiment,emotion,0.0,,,,933.5888382000012,1017,26,male,True
209,124.0,25,F,up,1.0346959000016795,1.280634299976903,,experiment,emotion,0.0,,,,937.388715099998,1017,26,male,True
210,121.0,25,F,up,1.1217566000050283,0.9058844744763186,,experiment,emotion,0.0,,,,939.6385971000018,1017,26,male,True
211,115.0,25,M,up,1.8672561999992467,1.8777623688042075,,experiment,emotion,0.0,,,,942.9051759999966,1017,26,male,True
212,124.0,25,M,up,0.9930219000016224,1.2463803796384143,,experiment,emotion,0.0,,,,946.288374599997,1017,26,male,True
213,124.0,25,F,up,1.6914446000009775,1.189170460606808,,experiment,emotion,0.0,,,,948.7549145999984,1017,26,male,True
214,118.0,25,M,down,1.5341843999995035,1.4027810015599926,,experiment,emotion,0.0,,,,952.1382013000002,1017,26,male,True
215,115.0,25,F,down,0.8929419999985839,0.4139916851528711,,experiment,emotion,0.0,,,,954.3714262999964,1017,26,male,True
216,118.0,25,M,down,0.7057497999994666,0.3585554841551613,,experiment,emotion,0.0,,,,955.9046826000013,1017,26,male,True
217,121.0,25,F,down,0.920734999999695,0.6942002225842538,,experiment,emotion,0.0,,,,957.604635599997,1017,26,male,True
218,115.0,25,M,down,0.7949594000019715,0.7616988785003498,,experiment,emotion,0.0,,,,959.5544539000002,1017,26,male,True
219,124.0,25,F,up,0.8819301999974414,0.8118124291477673,,experiment,emotion,0.0,,,,961.454474299997,1017,26,male,True
220,121.0,25,M,up,0.9633007000011276,1.6525977876481628,,experiment,emotion,0.0,,,,964.2710683000004,1017,26,male,True
221,124.0,25,F,down,0.7981799999979557,1.231027751631668,,experiment,emotion,0.0,,,,966.754192999997,1017,26,male,True
222,115.0,25,M,down,1.9737201999960237,0.5467895253916467,,experiment,emotion,0.0,,,,968.3709192999996,1017,26,male,True
223,121.0,25,F,up,1.240922099997988,0.8818127024095139,,experiment,emotion,0.0,,,,971.4874635999986,1017,26,male,True
224,118.0,25,M,up,1.3256655000004685,1.4917997326232295,,experiment,emotion,0.0,,,,974.5206999999972,1017,26,male,True
225,118.0,25,F,up,1.6278245000066818,1.9453624735013857,,experiment,emotion,0.0,,,,978.070548599997,1017,26,male,True
226,121.0,25,F,up,2.122240899996541,0.5537067645217302,,experiment,emotion,0.0,,,,980.5371034000018,1017,26,male,True
227,124.0,25,M,up,1.231372399997781,0.9251080137089952,,experiment,emotion,0.0,,,,983.8870009999991,1017,26,male,True
228,118.0,25,F,up,1.5659064999999828,0.9538769107943256,,experiment,emotion,0.0,,,,986.3535135999956,1017,26,male,True
229,115.0,25,M,down,1.48793139999907,0.536808419769448,,experiment,emotion,0.0,,,,988.7534827999953,1017,26,male,True
230,115.0,25,M,down,0.7013036999996984,1.7141865189907048,,experiment,emotion,0.0,,,,992.2200761999956,1017,26,male,True
231,118.0,25,F,up,0.7980533000009018,0.6218152675053794,,experiment,emotion,0.0,,,,993.8033307999976,1017,26,male,True
232,124.0,25,F,down,0.7635150999994949,1.752693668859899,,experiment,emotion,0.0,,,,996.6198600000024,1017,26,male,True
233,121.0,25,M,down,2.4073183000000427,0.3685318505484238,,experiment,emotion,0.0,,,,998.053018900002,1017,26,male,True
234,115.0,25,F,up,1.487339899998915,0.3755958849379022,,experiment,emotion,0.0,,,,1001.1030283999972,1017,26,male,True
235,124.0,25,M,up,0.7734213000003365,0.4873892125367201,,experiment,emotion,0.0,,,,1003.3529519999976,1017,26,male,True
236,121.0,25,M,up,0.8932036999976845,1.138463027906191,,experiment,emotion,0.0,,,,1005.5361852000024,1017,26,male,True
237,121.0,25,M,down,1.2845885999995517,0.39981544210886,,experiment,emotion,0.0,,,,1007.102822799996,1017,26,male,True
238,115.0,25,M,down,0.7227220000058878,0.6968883435404325,,experiment,emotion,0.0,,,,1009.3526932999994,1017,26,male,True
239,118.0,25,M,down,1.5857009999963338,1.2761137502349271,,experiment,emotion,0.0,,,,1011.6526607000014,1017,26,male,True
240,124.0,25,F,down,1.9188557000015865,1.5478343178136802,,experiment,emotion,0.0,,,,1015.0525263999988,1017,26,male,True
241,118.0,25,F,up,0.9496959000025528,0.6944477760829848,,experiment,emotion,0.0,,,,1017.9357156000004,1017,26,male,True
242,118.0,25,F,up,0.7997883999996702,1.440657254944412,,experiment,emotion,0.0,,,,1020.5856497999956,1017,26,male,True
243,118.0,25,M,up,0.8744724999996834,0.8683960758458191,,experiment,emotion,0.0,,,,1022.5189145000004,1017,26,male,True
244,124.0,25,F,up,0.8255284999977448,1.0993395368983747,,experiment,emotion,0.0,,,,1024.768844000002,1017,26,male,True
245,121.0,25,F,up,0.7699346999943373,0.4456680281537116,,experiment,emotion,0.0,,,,1026.335437099999,1017,26,male,True
246,115.0,25,F,up,1.232704100002593,0.7192752588363838,,experiment,emotion,0.0,,,,1028.1187033999995,1017,26,male,True
247,115.0,25,M,down,0.9127566999959528,1.211355327697888,,experiment,emotion,0.0,,,,1030.8186139999998,1017,26,male,True
248,121.0,25,F,up,1.740870100002212,1.0698182441163058,,experiment,emotion,0.0,,,,1033.0685059999996,1017,26,male,True
249,124.0,25,M,up,1.266429600000265,1.4123251642995702,,experiment,emotion,0.0,,,,1036.5349510999986,1017,26,male,True
250,124.0,25,M,up,0.8987191999985953,0.3428788164759883,,experiment,emotion,0.0,,,,1038.4016786999964,1017,26,male,True
251,115.0,25,F,up,0.82113670000399,0.8518296262960658,,experiment,emotion,0.0,,,,1040.4182381999965,1017,26,male,True
252,124.0,25,M,up,0.8315285999997286,0.6706518703636171,,experiment,emotion,0.0,,,,1042.1848517,1017,26,male,True
253,118.0,25,F,up,0.9549480000059702,1.6799394878183425,,experiment,emotion,0.0,,,,1045.0014139000014,1017,26,male,True
254,121.0,25,M,up,1.2610777000008966,1.946475383812256,,experiment,emotion,0.0,,,,1048.2013031999995,1017,26,male,True
255,118.0,25,F,up,1.0185998000015388,1.4693351761610156,,experiment,emotion,0.0,,,,1051.2178588999996,1017,26,male,True
256,115.0,25,M,up,0.8612539000023389,0.8381161176599286,,experiment,emotion,0.0,,,,1053.401122799998,1017,26,male,True
257,121.0,25,F,down,1.816357199997583,0.9162856075982332,,experiment,emotion,0.0,,,,1055.4510255999958,1017,26,male,True
258,118.0,25,F,down,2.2771837999971467,1.934826089473842,,experiment,emotion,0.0,,,,1059.4842207000002,1017,26,male,True
259,121.0,25,F,down,0.7202431000041543,0.7506901250241443,,experiment,emotion,0.0,,,,1062.784138400002,1017,26,male,True
260,115.0,25,F,down,0.6953869000062696,1.5954072718537375,,experiment,emotion,0.0,,,,1065.3839936999975,1017,26,male,True
261,124.0,25,F,down,0.9880845000006956,0.6936760269221945,,experiment,emotion,0.0,,,,1067.0672904999992,1017,26,male,True
262,121.0,25,M,down,1.2526446999982,1.9921528079419923,,experiment,emotion,0.0,,,,1070.3337686999985,1017,26,male,True
263,124.0,25,M,up,1.5533339999965392,1.0674203525659265,,experiment,emotion,0.0,,,,1072.9170486999974,1017,26,male,True
264,115.0,25,M,up,0.6364612999968813,0.3797876675696572,,experiment,emotion,0.0,,,,1075.1169666000023,1017,26,male,True
265,118.0,25,M,up,0.5247755000018515,0.397674699342562,,experiment,emotion,0.0,,,,1076.4336076,1017,26,male,True
266,0.302323779851427,25,up,up,0.7366274000014528,1.2207134667196475,,experiment,cRDM,0.0,,,,1171.296785900002,1017,26,male,True
267,0.302323779851427,25,up,up,0.5840798999997787,0.8205337648139999,,experiment,cRDM,0.0,,,,1173.1133673999975,1017,26,male,True
268,0.302323779851427,25,down,down,1.256472599998233,1.7631115286170276,,experiment,cRDM,0.0,,,,1175.7299113000008,1017,26,male,True
269,0.302323779851427,25,down,down,0.6824699999997392,1.3093481579793165,,experiment,cRDM,0.0,,,,1178.5798583999967,1017,26,male,True
270,0.302323779851427,25,up,up,1.2108680000019376,0.3274398744546358,,experiment,cRDM,0.0,,,,1179.8465267999964,1017,26,male,True
271,0.302323779851427,25,down,down,0.7180239000008442,1.6722641181984834,,experiment,cRDM,0.0,,,,1182.9963577999988,1017,26,male,True
272,0.302323779851427,25,up,up,0.7067544000019552,0.3022387749529421,,experiment,cRDM,0.0,,,,1184.2796506999985,1017,26,male,True
273,0.302323779851427,25,up,down,1.2845517000023392,0.7273089273660112,,experiment,cRDM,0.0,,,,1185.9629117999975,1017,26,male,True
274,0.302323779851427,25,down,down,0.8819583000004059,1.267150211625775,,experiment,cRDM,0.0,,,,1188.7794687000023,1017,26,male,True
275,0.302323779851427,25,down,up,1.1180776999972295,1.0060205719099435,,experiment,cRDM,0.0,,,,1190.929324599998,1017,26,male,True
276,0.302323779851427,25,down,up,1.2873823999980232,1.723146307374191,,experiment,cRDM,0.0,,,,1194.045995299999,1017,26,male,True
277,0.302323779851427,25,down,down,0.7618625999966753,0.7580991459431761,,experiment,cRDM,0.0,,,,1196.3625204999953,1017,26,male,True
278,0.302323779851427,25,down,up,2.02629159999924,1.133711271215616,,experiment,cRDM,0.0,,,,1198.5290894999962,1017,26,male,True
279,0.302323779851427,25,down,up,1.5510664000030374,1.329677532955745,,experiment,cRDM,0.0,,,,1202.1623614999953,1017,26,male,True
280,0.302323779851427,25,up,up,0.6658246000006329,1.059221753795228,,experiment,cRDM,0.0,,,,1205.045562700001,1017,26,male,True
281,0.302323779851427,25,up,up,0.8272829999987152,1.543381574147605,,experiment,cRDM,0.0,,,,1207.5121268999974,1017,26,male,True
282,0.302323779851427,25,up,up,1.127992699999595,0.4295256272371535,,experiment,cRDM,0.0,,,,1209.0454333999987,1017,26,male,True
283,0.302323779851427,25,up,up,0.9618368000010378,1.0871559540432487,,experiment,cRDM,0.0,,,,1211.5285494999953,1017,26,male,True
284,0.302323779851427,25,down,down,0.933115400002862,0.4904883419558441,,experiment,cRDM,0.0,,,,1213.2452597999982,1017,26,male,True
285,0.302323779851427,25,up,down,0.8659202999988338,1.5897909689100356,,experiment,cRDM,0.0,,,,1216.0284460000005,1017,26,male,True
286,0.302323779851427,25,up,up,0.7367425999982515,1.956039351739128,,experiment,cRDM,0.0,,,,1219.111673800002,1017,26,male,True
287,0.302323779851427,25,down,down,0.5923729999994976,0.5320167803259999,,experiment,cRDM,0.0,,,,1220.6450193999954,1017,26,male,True
288,0.302323779851427,25,up,up,0.797816900005273,1.205824767142233,,experiment,cRDM,0.0,,,,1222.711561699998,1017,26,male,True
289,0.302323779851427,25,down,down,0.814891499998339,0.330342159315716,,experiment,cRDM,0.0,,,,1224.1115115999964,1017,26,male,True
290,0.302323779851427,25,down,down,0.9089735000015936,0.906252810491105,,experiment,cRDM,0.0,,,,1226.1114396000012,1017,26,male,True
291,0.302323779851427,25,up,up,1.0744948999999906,0.5282815297437268,,experiment,cRDM,0.0,,,,1227.8278948999978,1017,26,male,True
292,0.302323779851427,25,up,up,0.7681574000016553,1.864811753043553,,experiment,cRDM,0.0,,,,1231.011244899997,1017,26,male,True
293,0.302323779851427,25,down,down,1.1402828999998746,1.969950028987996,,experiment,cRDM,0.0,,,,1234.0111265999983,1017,26,male,True
294,0.302323779851427,25,up,up,0.6893273000023328,1.1408021544216016,,experiment,cRDM,0.0,,,,1236.561062799996,1017,26,male,True
295,0.302323779851427,25,down,down,1.1300579000017024,0.6802813592308732,,experiment,cRDM,0.0,,,,1238.1943285999987,1017,26,male,True
296,0.302323779851427,25,down,down,2.0745452999981358,1.776824738367721,,experiment,cRDM,0.0,,,,1241.3608934999977,1017,26,male,True
297,0.302323779851427,25,down,down,1.1662982999987437,0.6923332777107492,,experiment,cRDM,0.0,,,,1244.394099000001,1017,26,male,True
298,0.302323779851427,25,up,,,0.6211228461616463,,experiment,cRDM,0.0,,,,1246.4440572999993,1017,26,male,True
299,0.302323779851427,25,up,up,0.6092023000019253,0.4023663252153249,,experiment,cRDM,0.0,,,,1249.5105566999955,1017,26,male,True
300,0.302323779851427,25,up,up,1.0201967999964836,0.4024091779659902,,experiment,cRDM,0.0,,,,1250.7772117999957,1017,26,male,True
301,0.302323779851427,25,down,down,0.6575776999961818,0.992243223368588,,experiment,cRDM,0.0,,,,1253.043814599998,1017,26,male,True
302,0.302323779851427,25,down,down,1.6640833999990718,1.651779807732236,,experiment,cRDM,0.0,,,,1255.6103533999958,1017,26,male,True
303,0.302323779851427,25,up,down,2.349449900000764,1.4377134771428703,,experiment,cRDM,0.0,,,,1258.976924300001,1017,26,male,True
304,0.302323779851427,25,down,down,1.634011999994982,1.1615121789572431,,experiment,cRDM,0.0,,,,1262.7434415999996,1017,26,male,True
305,0.302323779851427,25,up,up,0.6047896000018227,1.484001869189795,,experiment,cRDM,0.0,,,,1266.126561299996,1017,26,male,True
306,0.302323779851427,25,up,up,0.7037335999993957,0.6256785282009323,,experiment,cRDM,0.0,,,,1267.6266088000011,1017,26,male,True
307,0.302323779851427,25,up,up,0.7225846000001184,1.1210198940938385,,experiment,cRDM,0.0,,,,1269.7098194999962,1017,26,male,True
308,0.302323779851427,25,down,up,0.7489648999981,0.7738022639027942,,experiment,cRDM,0.0,,,,1271.4764481999991,1017,26,male,True
309,0.302323779851427,25,down,up,1.0183167000068352,1.0596646858342416,,experiment,cRDM,0.0,,,,1273.5430731999986,1017,26,male,True
310,0.302323779851427,25,up,up,0.5758279000001494,1.989162982042724,,experiment,cRDM,0.0,,,,1276.8095525999995,1017,26,male,True
311,0.302323779851427,25,down,up,1.0576234999971348,1.6390893385913556,,experiment,cRDM,0.0,,,,1279.2928040000006,1017,26,male,True
312,0.302323779851427,25,down,up,1.3643315999943295,1.961457682569998,,experiment,cRDM,0.0,,,,1282.576032699999,1017,26,male,True
313,0.302323779851427,25,up,up,1.1244409999999334,0.7181112104981506,,experiment,cRDM,0.0,,,,1284.9259541999963,1017,26,male,True
314,0.302323779851427,25,up,down,1.015589299997373,1.656416895523716,,experiment,cRDM,0.0,,,,1287.9758382999971,1017,26,male,True
315,0.302323779851427,25,down,down,0.5520070999991731,1.6267345898819685,,experiment,cRDM,0.0,,,,1290.8924073999988,1017,26,male,True
316,0.302323779851427,25,up,up,0.8250308999995468,1.1363556213833024,,experiment,cRDM,0.0,,,,1292.8423596999965,1017,26,male,True
317,0.302323779851427,25,down,down,0.980861999996705,1.735865686977085,,experiment,cRDM,0.0,,,,1295.6755356999963,1017,26,male,True
318,0.302323779851427,25,down,down,1.0692462000006344,0.9734848412826196,,experiment,cRDM,0.0,,,,1297.8921358999978,1017,26,male,True
319,0.302323779851427,25,down,down,0.7442758999968646,0.3592593244210307,,experiment,cRDM,0.0,,,,1299.5920683999975,1017,26,male,True
320,0.302323779851427,25,up,up,0.6757459000000381,1.0025019474312709,,experiment,cRDM,0.0,,,,1301.6086411999968,1017,26,male,True
321,0.302323779851427,25,up,up,0.9227828000002772,0.705499784206137,,experiment,cRDM,0.0,,,,1303.258608799999,1017,26,male,True
322,0.302323779851427,25,down,up,1.1902515000037963,0.9322699382835132,,experiment,cRDM,0.0,,,,1305.375173999997,1017,26,male,True
323,0.302323779851427,25,down,down,1.6286313999953563,1.3257031911338566,,experiment,cRDM,0.0,,,,1308.1417804999985,1017,26,male,True
324,0.302323779851427,25,up,up,0.8217562999998336,1.208289492694929,,experiment,cRDM,0.0,,,,1311.2416621999982,1017,26,male,True
325,0.302323779851427,25,up,up,0.6961964000001899,1.7344647517423954,,experiment,cRDM,0.0,,,,1314.0582418000013,1017,26,male,True
326,0.302323779851427,25,up,up,0.7842374999963795,1.0893882842372278,,experiment,cRDM,0.0,,,,1316.1081718000023,1017,26,male,True
327,0.302323779851427,25,up,up,0.8043264000007184,0.7981566384181831,,experiment,cRDM,0.0,,,,1317.958100699998,1017,26,male,True
328,0.302323779851427,25,up,up,0.6747099999993225,0.8096944422665173,,experiment,cRDM,0.0,,,,1319.8246869999966,1017,26,male,True
329,0.302323779851427,25,down,down,0.7910815999930492,0.5641014097731039,,experiment,cRDM,0.0,,,,1321.341289,1017,26,male,True
330,0.302323779851427,25,down,up,0.7315505000005942,1.7103466468650426,,experiment,cRDM,0.0,,,,1324.1078299999972,1017,26,male,True
331,0.302323779851427,25,up,up,0.9259807000053116,1.0749985155443982,,experiment,cRDM,0.0,,,,1326.1744126000012,1017,26,male,True
332,0.302323779851427,25,down,down,0.6630739999964135,1.1101350742494125,,experiment,cRDM,0.0,,,,1328.474322799997,1017,26,male,True
333,0.302323779851427,25,down,down,1.1322843000016292,1.1112966586822148,,experiment,cRDM,0.0,,,,1330.5241231,1017,26,male,True
334,0.302323779851427,25,down,down,0.7299189000041224,1.738230937891941,,experiment,cRDM,0.0,,,,1333.657471999995,1017,26,male,True
335,0.302323779851427,25,up,up,1.18625510000129,0.4268514768906029,,experiment,cRDM,0.0,,,,1335.0740970000006,1017,26,male,True
336,0.302323779851427,25,down,down,0.9584431000039332,1.008800672393655,,experiment,cRDM,0.0,,,,1337.523986799995,1017,26,male,True
337,0.302323779851427,25,down,down,1.1044633999990765,1.3774133899217882,,experiment,cRDM,0.0,,,,1340.1239392000025,1017,26,male,True
338,0.302323779851427,25,down,down,0.8476093999997829,1.89043427023762,,experiment,cRDM,0.0,,,,1343.373785300002,1017,26,male,True
339,0.302323779851427,25,up,up,0.9769795999964116,0.5095251156376656,,experiment,cRDM,0.0,,,,1344.9904145,1017,26,male,True
340,0.302323779851427,25,up,down,1.367742599999474,1.5414184953891046,,experiment,cRDM,0.0,,,,1347.773636599999,1017,26,male,True
341,0.302323779851427,25,down,down,0.6518266999992193,1.2715600014891986,,experiment,cRDM,0.0,,,,1350.673525000002,1017,26,male,True
342,0.302323779851427,25,up,up,0.8246501999965403,0.7137814574758103,,experiment,cRDM,0.0,,,,1352.3067827000011,1017,26,male,True
343,0.302323779851427,25,down,down,1.039746299997205,1.7012413610456163,,experiment,cRDM,0.0,,,,1355.1066820000017,1017,26,male,True
344,0.302323779851427,25,up,up,0.7914691000041785,1.674082054094614,,experiment,cRDM,0.0,,,,1358.089922700001,1017,26,male,True
345,0.302323779851427,25,up,down,0.8604039999991073,0.7297345756387597,,experiment,cRDM,0.0,,,,1359.8731810999998,1017,26,male,True
346,124.0,25,M,up,1.0417659000013373,0.5875363624679553,,experiment,emotion,1.0,,,,1373.872668,1017,26,male,True
347,115.0,25,M,up,0.6774568000037107,0.5829875272882016,,experiment,emotion,1.0,,,,1375.8059381999956,1017,26,male,True
348,121.0,25,F,down,2.2199118999997154,1.9940572948309283,,experiment,emotion,1.0,,,,1378.7724875000022,1017,26,male,True
349,124.0,25,F,up,0.8973492000004626,1.0168517838184683,,experiment,emotion,1.0,,,,1382.2890485999997,1017,26,male,True
350,121.0,25,M,up,1.5391149000060975,1.0651283249045551,,experiment,emotion,1.0,,,,1384.5222781000011,1017,26,male,True
351,118.0,25,F,up,1.0431727999966824,0.8046704098443211,,experiment,emotion,1.0,,,,1387.1722109000002,1017,26,male,True
352,115.0,25,M,up,0.7779526000012993,0.5222269237725556,,experiment,emotion,1.0,,,,1389.005478199997,1017,26,male,True
353,118.0,25,M,down,1.1047146999990218,1.493159837016881,,experiment,emotion,1.0,,,,1391.5386762000016,1017,26,male,True
354,124.0,25,F,down,0.8555219000045327,1.475131281945124,,experiment,emotion,1.0,,,,1394.371923499999,1017,26,male,True
355,118.0,25,F,up,0.7922441999980947,1.945004869014831,,experiment,emotion,1.0,,,,1397.4551495000014,1017,26,male,True
356,121.0,25,F,up,0.7654045000017504,0.8598528758076123,,experiment,emotion,1.0,,,,1399.4050481999984,1017,26,male,True
357,124.0,25,F,up,1.123713699998916,1.6284309234773304,,experiment,emotion,1.0,,,,1402.0716537000008,1017,26,male,True
358,121.0,25,F,up,1.5298335999978008,0.5577004671076353,,experiment,emotion,1.0,,,,1404.021564599996,1017,26,male,True
359,115.0,25,F,up,0.8645999000000302,0.7436504460901346,,experiment,emotion,1.0,,,,1406.6047992999993,1017,26,male,True
360,118.0,25,M,down,0.8123122000033618,0.6509108130348319,,experiment,emotion,1.0,,,,1408.3880817999998,1017,26,male,True
361,115.0,25,M,down,1.7740770999953384,1.4014056623914095,,experiment,emotion,1.0,,,,1410.8713212999974,1017,26,male,True
362,124.0,25,M,up,0.98787319999974,1.395982998040208,,experiment,emotion,1.0,,,,1414.3045038000018,1017,26,male,True
363,115.0,25,M,up,0.8048987000001944,0.59855438203902,,experiment,emotion,1.0,,,,1416.154476300002,1017,26,male,True
364,121.0,25,F,down,1.1163953999930527,1.21046169340857,,experiment,emotion,1.0,,,,1418.471026299998,1017,26,male,True
365,121.0,25,M,,,1.826195882675419,,experiment,emotion,1.0,,,,1421.6875943000014,1017,26,male,True
366,118.0,25,M,down,0.7590495000040391,1.2792546483162577,,experiment,emotion,1.0,,,,1425.6874186999958,1017,26,male,True
367,118.0,25,F,down,0.8396657000048435,0.9447279596677152,,experiment,emotion,1.0,,,,1427.6707167999955,1017,26,male,True
368,115.0,25,M,down,2.0617398000031244,0.758831344066955,,experiment,emotion,1.0,,,,1429.5706283,1017,26,male,True
369,124.0,25,F,up,2.0212383000034606,1.9366439294299391,,experiment,emotion,1.0,,,,1433.887138800001,1017,26,male,True
370,121.0,25,F,up,0.8843535999985761,1.3072663229112198,,experiment,emotion,1.0,,,,1437.5370430000005,1017,26,male,True
371,115.0,25,M,up,0.8168903999976465,1.8061197970727536,,experiment,emotion,1.0,,,,1440.5035754999951,1017,26,male,True
372,124.0,25,M,up,0.8365911000000779,1.1839137493414926,,experiment,emotion,1.0,,,,1442.7868020999997,1017,26,male,True
373,124.0,25,F,up,0.7743183999991743,0.8727690417366101,,experiment,emotion,1.0,,,,1444.7700866999985,1017,26,male,True
374,118.0,25,M,down,0.932691399997566,1.0395298465547187,,experiment,emotion,1.0,,,,1446.8866619,1017,26,male,True
375,115.0,25,F,down,0.8828716999996686,1.4808891171195044,,experiment,emotion,1.0,,,,1449.5865930999971,1017,26,male,True
376,118.0,25,F,down,0.6472116000004462,0.6599077621410926,,experiment,emotion,1.0,,,,1451.4031576000016,1017,26,male,True
377,121.0,25,F,up,0.8020002999983262,1.430372290130071,,experiment,emotion,1.0,,,,1453.7864160999998,1017,26,male,True
378,115.0,25,M,up,0.6830857999957516,0.7728952098706839,,experiment,emotion,1.0,,,,1455.6363313000002,1017,26,male,True
379,124.0,25,M,up,0.7359648999990895,0.3802705837890109,,experiment,emotion,1.0,,,,1456.969639400002,1017,26,male,True
380,121.0,25,M,up,1.4784761999981129,1.4705246887517798,,experiment,emotion,1.0,,,,1459.4528831000025,1017,26,male,True
381,124.0,25,F,down,1.3823046000034085,0.974950402704276,,experiment,emotion,1.0,,,,1462.1860990999958,1017,26,male,True
382,115.0,25,F,up,0.9930860999957076,1.5284979552387024,,experiment,emotion,1.0,,,,1465.3693199000008,1017,26,male,True
383,121.0,25,M,up,1.5901831000010134,1.4435119336253872,,experiment,emotion,1.0,,,,1468.0692172000015,1017,26,male,True
384,118.0,25,F,up,0.7866241000010632,0.6190616173876327,,experiment,emotion,1.0,,,,1470.5858075999968,1017,26,male,True
385,118.0,25,M,down,1.1237624999994296,1.6443873900546166,,experiment,emotion,1.0,,,,1473.2857072000006,1017,26,male,True
386,121.0,25,M,down,1.3117611999987275,1.245823470279619,,experiment,emotion,1.0,,,,1475.9355904000004,1017,26,male,True
387,124.0,25,M,down,1.610541199996078,1.4602997770195474,,experiment,emotion,1.0,,,,1479.018828700002,1017,26,male,True
388,118.0,25,F,down,1.0264154999968014,1.6049667945596042,,experiment,emotion,1.0,,,,1482.5019950999958,1017,26,male,True
389,115.0,25,F,up,0.8151387000034447,0.920551169165902,,experiment,emotion,1.0,,,,1484.735246100001,1017,26,male,True
390,115.0,25,M,down,0.921865100004652,0.9607893437073016,,experiment,emotion,1.0,,,,1486.7685270999973,1017,26,male,True
391,118.0,25,F,up,1.3799300999962725,0.6673549458959533,,experiment,emotion,1.0,,,,1488.6184734000017,1017,26,male,True
392,124.0,25,F,down,1.3277394000033382,1.839370014262905,,experiment,emotion,1.0,,,,1492.151666399997,1017,26,male,True
393,121.0,25,M,up,1.4955293000020902,1.8153560747792568,,experiment,emotion,1.0,,,,1495.5848767000025,1017,26,male,True
394,115.0,25,M,up,1.0559857000043849,1.210313330765031,,experiment,emotion,1.0,,,,1498.6014061999997,1017,26,male,True
395,124.0,25,F,up,0.6557236000007833,0.518476357937161,,experiment,emotion,1.0,,,,1500.434713300001,1017,26,male,True
396,121.0,25,M,down,1.3314348999992944,1.7622186085700482,,experiment,emotion,1.0,,,,1503.1179761999992,1017,26,male,True
397,121.0,25,F,down,1.4312363999997617,1.3358279008259637,,experiment,emotion,1.0,,,,1506.0511627999986,1017,26,male,True
398,115.0,25,F,down,0.7444313000014517,1.9812341328444023,,experiment,emotion,1.0,,,,1509.7510140999984,1017,26,male,True
399,118.0,25,F,down,1.0541087000019616,0.973039350558604,,experiment,emotion,1.0,,,,1511.7842996,1017,26,male,True
400,124.0,25,M,down,1.2105558999974164,0.9490477168497404,,experiment,emotion,1.0,,,,1514.1008504999954,1017,26,male,True
401,118.0,25,M,down,0.9911434999958146,1.8738590877280503,,experiment,emotion,1.0,,,,1517.467412599999,1017,26,male,True
402,118.0,25,F,down,1.4244543000022531,1.2571800940598616,,experiment,emotion,1.0,,,,1519.983973799997,1017,26,male,True
403,118.0,25,F,down,0.8308692999999039,1.4090056882497817,,experiment,emotion,1.0,,,,1523.1005350000014,1017,26,male,True
404,124.0,25,M,up,0.7896440999975312,0.3733772083675367,,experiment,emotion,1.0,,,,1524.5837865999963,1017,26,male,True
405,121.0,25,M,down,1.4180495999971754,0.4178372078975044,,experiment,emotion,1.0,,,,1526.100391099997,1017,26,male,True
406,115.0,25,M,up,0.9250523000009708,0.6119693983385182,,experiment,emotion,1.0,,,,1528.4003171999975,1017,26,male,True
407,115.0,25,M,up,1.113253800001985,1.6490919957126136,,experiment,emotion,1.0,,,,1531.2502265999974,1017,26,male,True
408,121.0,25,M,down,1.2669815000044764,1.5361636419771474,,experiment,emotion,1.0,,,,1534.183429599998,1017,26,male,True
409,124.0,25,F,down,1.7750273999990895,0.6820328883567829,,experiment,emotion,1.0,,,,1536.4333789999982,1017,26,male,True
410,124.0,25,F,down,1.2851405999972485,1.1020987503460178,,experiment,emotion,1.0,,,,1539.5832598000015,1017,26,male,True
411,115.0,25,M,down,2.177672400001029,1.4610894786020625,,experiment,emotion,1.0,,,,1542.5998026999987,1017,26,male,True
412,124.0,25,F,up,0.8673481000005268,0.7904634823485901,,experiment,emotion,1.0,,,,1545.833023299998,1017,26,male,True
413,118.0,25,F,down,0.7808009000000311,0.9907624214996348,,experiment,emotion,1.0,,,,1547.9996090999955,1017,26,male,True
414,121.0,25,F,up,0.6778717999986839,0.7535013015973416,,experiment,emotion,1.0,,,,1549.849538599996,1017,26,male,True
415,118.0,25,M,up,0.9572587000002386,0.8697469235042818,,experiment,emotion,1.0,,,,1551.6661458999988,1017,26,male,True
416,115.0,25,F,up,0.754997000003641,0.4019696725408513,,experiment,emotion,1.0,,,,1553.299408099996,1017,26,male,True
417,121.0,25,F,down,1.2420937000060803,1.6191640748337326,,experiment,emotion,1.0,,,,1555.9493246999957,1017,26,male,True
418,118.0,25,F,,,1.3463140444061563,,experiment,emotion,1.0,,,,1558.799199600002,1017,26,male,True
419,121.0,25,M,up,2.267320600003586,0.8208213108780036,,experiment,emotion,1.0,,,,1562.2990866,1017,26,male,True
420,115.0,25,M,up,0.6267723999990267,0.4253888320315951,,experiment,emotion,1.0,,,,1565.2656442999978,1017,26,male,True
421,124.0,25,F,down,1.6635322000001906,0.9478467698639246,,experiment,emotion,1.0,,,,1567.1488737,1017,26,male,True
422,121.0,25,M,up,0.7752792000028421,1.047332907074017,,experiment,emotion,1.0,,,,1570.1321400999989,1017,26,male,True
423,124.0,25,F,up,0.8610055999961332,1.0480271237528902,,experiment,emotion,1.0,,,,1572.2154065999966,1017,26,male,True
424,115.0,25,M,up,0.7557658000005176,0.8475726393157981,,experiment,emotion,1.0,,,,1574.1986433999955,1017,26,male,True
425,118.0,25,M,down,0.8734734999961802,0.3946545866435826,,experiment,emotion,1.0,,,,1575.6319314999964,1017,26,male,True
426,0.302323779851427,25,up,up,0.7724861000024248,0.7632007890187984,,experiment,cRDM,1.0,,,,1611.9639231,1017,26,male,True
427,0.302323779851427,25,up,up,0.9082250999999816,0.7475665162295329,,experiment,cRDM,1.0,,,,1613.7472008000004,1017,26,male,True
428,0.302323779851427,25,down,down,0.6323523000028217,0.7862989839273218,,experiment,cRDM,1.0,,,,1615.6970408000016,1017,26,male,True
429,0.302323779851427,25,down,down,1.2656977999940864,0.3658948704314586,,experiment,cRDM,1.0,,,,1616.963746999998,1017,26,male,True
430,0.302323779851427,25,up,up,0.7927753999974811,1.3858913432349165,,experiment,cRDM,1.0,,,,1619.8636357999967,1017,26,male,True
431,0.302323779851427,25,down,down,0.6471798999991734,0.6580980595535855,,experiment,cRDM,1.0,,,,1621.580234099998,1017,26,male,True
432,0.302323779851427,25,up,up,0.5752627999972901,0.4017820199859908,,experiment,cRDM,1.0,,,,1622.8801763999982,1017,26,male,True
433,0.302323779851427,25,up,down,1.0189749999990454,1.8763792015108944,,experiment,cRDM,1.0,,,,1625.6134719,1017,26,male,True
434,0.302323779851427,25,down,down,0.5294466999985161,1.6828628737235496,,experiment,cRDM,1.0,,,,1628.5799687,1017,26,male,True
435,0.302323779851427,25,down,down,0.5201491000043461,0.3977872060828937,,experiment,cRDM,1.0,,,,1629.7632747999996,1017,26,male,True
436,0.302323779851427,25,down,up,0.6302045000047656,0.872004238300675,,experiment,cRDM,1.0,,,,1631.4132443000017,1017,26,male,True
437,0.302323779851427,25,down,down,1.6362924999993993,1.3900102823579918,,experiment,cRDM,1.0,,,,1633.7131391999974,1017,26,male,True
438,0.302323779851427,25,down,up,0.894094800001767,1.579075532075816,,experiment,cRDM,1.0,,,,1637.1963185000022,1017,26,male,True
439,0.302323779851427,25,down,up,1.0971782999986317,0.8618020235645052,,experiment,cRDM,1.0,,,,1639.1962613999967,1017,26,male,True
440,0.302323779851427,25,up,up,0.7359580000047572,1.4719553556640257,,experiment,cRDM,1.0,,,,1642.0295041999962,1017,26,male,True
441,0.302323779851427,25,up,up,0.6487559999950463,0.584924776120909,,experiment,cRDM,1.0,,,,1643.6126560000012,1017,26,male,True
442,0.302323779851427,25,up,up,0.6334043999959249,1.322964814969953,,experiment,cRDM,1.0,,,,1645.846009199999,1017,26,male,True
443,0.302323779851427,25,up,up,0.6084410999974352,0.9751399932884128,,experiment,cRDM,1.0,,,,1647.6959279999974,1017,26,male,True
444,0.302323779851427,25,down,down,0.4791338000068208,0.7751064628809257,,experiment,cRDM,1.0,,,,1649.3292693000003,1017,26,male,True
445,0.302323779851427,25,up,up,0.831627399995341,1.5356771665686622,,experiment,cRDM,1.0,,,,1651.5957938999964,1017,26,male,True
446,0.302323779851427,25,up,up,0.5761031000001822,0.3129225765424722,,experiment,cRDM,1.0,,,,1653.012349499997,1017,26,male,True
447,0.302323779851427,25,down,down,0.5840890999970725,1.6663030647073551,,experiment,cRDM,1.0,,,,1655.512351100002,1017,26,male,True
448,0.302323779851427,25,up,up,1.0138735000000452,1.4902068674070108,,experiment,cRDM,1.0,,,,1657.8455765,1017,26,male,True
449,0.302323779851427,25,down,down,0.5959201000005123,0.4808398057824181,,experiment,cRDM,1.0,,,,1659.5954937000024,1017,26,male,True
450,0.302323779851427,25,down,down,0.661983700003475,1.3337674370132435,,experiment,cRDM,1.0,,,,1661.7954480000008,1017,26,male,True
451,0.302323779851427,25,up,up,0.6561049000010826,1.9317406649409696,,experiment,cRDM,1.0,,,,1664.6453301999973,1017,26,male,True
452,0.302323779851427,25,up,up,0.8162298000024748,1.6209519682187703,,experiment,cRDM,1.0,,,,1667.195216899996,1017,26,male,True
453,0.302323779851427,25,down,down,0.6053379999939352,1.0252845543001894,,experiment,cRDM,1.0,,,,1669.295135299999,1017,26,male,True
454,0.302323779851427,25,up,up,0.6686432000060449,0.407552088735406,,experiment,cRDM,1.0,,,,1670.5617759999986,1017,26,male,True
455,0.302323779851427,25,down,down,0.6610366999957478,0.393323248939645,,experiment,cRDM,1.0,,,,1671.8783992999995,1017,26,male,True
456,0.302323779851427,25,down,down,0.8124468000023626,1.381741284996833,,experiment,cRDM,1.0,,,,1674.1949663000014,1017,26,male,True
457,0.302323779851427,25,down,up,1.3765408000035677,0.7839022054753542,,experiment,cRDM,1.0,,,,1676.0449083999956,1017,26,male,True
458,0.302323779851427,25,up,up,0.9696693000005324,1.8714747696082057,,experiment,cRDM,1.0,,,,1679.5447910999974,1017,26,male,True
459,0.302323779851427,25,up,up,0.8717546999978367,1.920003107625619,,experiment,cRDM,1.0,,,,1682.6946654999956,1017,26,male,True
460,0.302323779851427,25,up,up,0.7663055999946664,0.7787641045457439,,experiment,cRDM,1.0,,,,1684.611108699999,1017,26,male,True
461,0.302323779851427,25,down,down,0.7275594000020646,1.1344358507809984,,experiment,cRDM,1.0,,,,1686.7778547000016,1017,26,male,True
462,0.302323779851427,25,down,down,1.050021700000798,0.534722385571929,,experiment,cRDM,1.0,,,,1688.2944400000015,1017,26,male,True
463,0.302323779851427,25,up,up,0.5639393000019481,0.731122227194084,,experiment,cRDM,1.0,,,,1690.3444406000017,1017,26,male,True
464,0.302323779851427,25,down,down,0.644445199999609,1.2961082402927089,,experiment,cRDM,1.0,,,,1692.4609693999992,1017,26,male,True
465,0.302323779851427,25,up,up,0.6405188999997335,1.5508173858321288,,experiment,cRDM,1.0,,,,1694.910935099997,1017,26,male,True
466,0.302323779851427,25,up,up,0.7279611000049044,1.8688400176090767,,experiment,cRDM,1.0,,,,1697.6774559000005,1017,26,male,True
467,0.302323779851427,25,up,up,0.7316692999957013,1.8412352947175337,,experiment,cRDM,1.0,,,,1700.5107626999998,1017,26,male,True
468,0.302323779851427,25,down,down,0.5618322000009357,1.7990746788351526,,experiment,cRDM,1.0,,,,1703.3106695999995,1017,26,male,True
469,0.302323779851427,25,down,up,1.2822990999993635,1.9331598259805745,,experiment,cRDM,1.0,,,,1706.0771367000016,1017,26,male,True
470,0.302323779851427,25,up,up,0.6433166999995592,0.5220264090137037,,experiment,cRDM,1.0,,,,1708.1270980000008,1017,26,male,True
471,0.302323779851427,25,down,down,0.9278371999971567,1.7088120064617245,,experiment,cRDM,1.0,,,,1710.7436357000006,1017,26,male,True
472,0.302323779851427,25,down,down,0.6508705000014743,1.3087206824277686,,experiment,cRDM,1.0,,,,1713.243550999996,1017,26,male,True
473,0.302323779851427,25,up,up,0.6562904999955208,0.5942800671164845,,experiment,cRDM,1.0,,,,1714.7601585999982,1017,26,male,True
474,0.302323779851427,25,up,up,0.7927218000040739,1.7047386636871906,,experiment,cRDM,1.0,,,,1717.3767066999972,1017,26,male,True
475,0.302323779851427,25,down,down,0.8244362000041292,1.7780161505151395,,experiment,cRDM,1.0,,,,1720.209990499996,1017,26,male,True
476,0.302323779851427,25,up,up,0.7388923000034993,1.531134286788018,,experiment,cRDM,1.0,,,,1722.8265482000024,1017,26,male,True
477,0.302323779851427,25,down,down,0.7782741999981226,0.4094852535745797,,experiment,cRDM,1.0,,,,1724.2431332000017,1017,26,male,True
478,0.302323779851427,25,down,down,0.7567712000018219,1.4158120740134357,,experiment,cRDM,1.0,,,,1726.7096297999997,1017,26,male,True
479,0.302323779851427,25,down,down,0.6467974000042886,1.536541347194286,,experiment,cRDM,1.0,,,,1729.2596174999962,1017,26,male,True
480,0.302323779851427,25,up,up,0.7445296000005328,1.2853568547665064,,experiment,cRDM,1.0,,,,1731.4428901999963,1017,26,male,True
481,0.302323779851427,25,up,up,0.8706296000018483,1.3059469010488929,,experiment,cRDM,1.0,,,,1733.7427864999954,1017,26,male,True
482,0.302323779851427,25,down,down,0.6933196000027237,1.440033915108161,,experiment,cRDM,1.0,,,,1736.3260625000005,1017,26,male,True
483,0.302323779851427,25,down,up,0.8900999999968917,0.7916461317479131,,experiment,cRDM,1.0,,,,1738.059320999997,1017,26,male,True
484,0.302323779851427,25,up,up,0.6075564999991911,1.261897354978839,,experiment,cRDM,1.0,,,,1740.4758636000006,1017,26,male,True
485,0.302323779851427,25,up,up,0.8616311000005226,0.7183269497362998,,experiment,cRDM,1.0,,,,1742.0758294000009,1017,26,male,True
486,0.302323779851427,25,up,up,0.4803504000010434,1.248773799623241,,experiment,cRDM,1.0,,,,1744.4590676999978,1017,26,male,True
487,0.302323779851427,25,up,up,0.902490399996168,1.8094283245859,,experiment,cRDM,1.0,,,,1747.0089260999994,1017,26,male,True
488,0.302323779851427,25,up,up,0.7205496999958996,1.3711750911478378,,experiment,cRDM,1.0,,,,1749.5588796999982,1017,26,male,True
489,0.302323779851427,25,down,up,1.1193544999987353,1.4522733739783569,,experiment,cRDM,1.0,,,,1751.992102100001,1017,26,male,True
490,0.302323779851427,25,down,down,0.7110688000029768,1.2888407709286542,,experiment,cRDM,1.0,,,,1754.6753538000012,1017,26,male,True
491,0.302323779851427,25,up,up,0.7264929000011762,0.9915479287626529,,experiment,cRDM,1.0,,,,1756.6419749000015,1017,26,male,True
492,0.302323779851427,25,down,down,2.08788579999964,1.3752780029482652,,experiment,cRDM,1.0,,,,1759.0085376000025,1017,26,male,True
493,0.302323779851427,25,down,down,0.8519794999956503,0.5830051863397983,,experiment,cRDM,1.0,,,,1761.9584383,1017,26,male,True
494,0.302323779851427,25,down,down,0.9944157999998424,0.5078618241364932,,experiment,cRDM,1.0,,,,1763.5750311999982,1017,26,male,True
495,0.302323779851427,25,up,up,1.022456400001829,0.4436884034341097,,experiment,cRDM,1.0,,,,1765.2749573,1017,26,male,True
496,0.302323779851427,25,down,down,0.7865431999962311,0.7603857878620611,,experiment,cRDM,1.0,,,,1767.3248940000012,1017,26,male,True
497,0.302323779851427,25,down,down,1.3016196000025957,0.3071447852523277,,experiment,cRDM,1.0,,,,1768.6748228999968,1017,26,male,True
498,0.302323779851427,25,down,down,0.8140205000017886,0.9148617505578064,,experiment,cRDM,1.0,,,,1771.141397999996,1017,26,male,True
499,0.302323779851427,25,up,up,0.7314906999963569,0.8956846833652214,,experiment,cRDM,1.0,,,,1773.1079178999971,1017,26,male,True
500,0.302323779851427,25,up,up,0.7761892999988049,0.8851518226280588,,experiment,cRDM,1.0,,,,1774.991256500001,1017,26,male,True
501,0.302323779851427,25,down,down,1.1786338000019896,0.9665726803959316,,experiment,cRDM,1.0,,,,1777.0077924999969,1017,26,male,True
502,0.302323779851427,25,up,up,0.7183382000002894,1.2331920759478017,,experiment,cRDM,1.0,,,,1779.691093999998,1017,26,male,True
503,0.302323779851427,25,down,down,0.7361289999971632,1.407545352477707,,experiment,cRDM,1.0,,,,1782.091279999997,1017,26,male,True
504,0.302323779851427,25,up,up,1.0341693999944257,1.5754606733584098,,experiment,cRDM,1.0,,,,1784.674245899998,1017,26,male,True
505,0.302323779851427,25,up,up,0.7886119000031613,1.3552174093007792,,experiment,cRDM,1.0,,,,1787.340836200001,1017,26,male,True
506,124.0,25,M,up,1.5037980999986758,0.3328239524754655,,experiment,emotion,2.0,,,,1827.9726526999984,1017,26,male,True
507,115.0,25,M,up,0.9875010999967344,1.1244800213204948,,experiment,emotion,2.0,,,,1830.9059145999963,1017,26,male,True
508,121.0,25,F,down,0.8216986999977962,1.5032325471403845,,experiment,emotion,2.0,,,,1833.7057278999964,1017,26,male,True
509,124.0,25,F,up,0.8874418000050355,1.7037046320078677,,experiment,emotion,2.0,,,,1836.4890161999972,1017,26,male,True
510,121.0,25,M,up,0.7991314999962924,0.7349322979579695,,experiment,emotion,2.0,,,,1838.3722919999964,1017,26,male,True
511,118.0,25,F,up,0.8715579000054277,0.7007411142898512,,experiment,emotion,2.0,,,,1840.1888647999983,1017,26,male,True
512,115.0,25,M,up,0.7862645999994129,0.8858105358771629,,experiment,emotion,2.0,,,,1842.2221549999997,1017,26,male,True
513,118.0,25,M,up,0.8789953999948921,0.3891982991354214,,experiment,emotion,2.0,,,,1843.6554299999952,1017,26,male,True
514,124.0,25,F,up,0.7784820000015316,0.7073383217414653,,experiment,emotion,2.0,,,,1845.5220144000011,1017,26,male,True
515,118.0,25,F,down,0.8918306999985361,1.226799138656772,,experiment,emotion,2.0,,,,1847.7885948000005,1017,26,male,True
516,121.0,25,F,down,1.5306137000006856,1.5881738014208635,,experiment,emotion,2.0,,,,1850.5718361,1017,26,male,True
517,124.0,25,F,up,1.2283844000048705,1.5811689259198276,,experiment,emotion,2.0,,,,1853.955042999998,1017,26,male,True
518,121.0,25,F,up,0.5681073000014294,1.586491901562381,,experiment,emotion,2.0,,,,1857.038287499996,1017,26,male,True
519,115.0,25,F,down,1.1955577000044286,1.350061052609117,,experiment,emotion,2.0,,,,1859.254863799997,1017,26,male,True
520,118.0,25,M,up,1.2396920999963186,1.7138380154265311,,experiment,emotion,2.0,,,,1862.4547346,1017,26,male,True
521,115.0,25,M,up,1.2445570999989286,1.861145102502317,,experiment,emotion,2.0,,,,1865.837933400002,1017,26,male,True
522,124.0,25,M,up,0.9316293000010774,1.5628492660218511,,experiment,emotion,2.0,,,,1868.937818399998,1017,26,male,True
523,115.0,25,M,down,1.6250820999994176,1.0476423038464104,,experiment,emotion,2.0,,,,1871.2044080000012,1017,26,male,True
524,121.0,25,F,down,1.2668487999981153,0.4867373774220747,,experiment,emotion,2.0,,,,1873.6376432,1017,26,male,True
525,121.0,25,M,down,1.6778751000019838,1.866122189574468,,experiment,emotion,2.0,,,,1877.0375538999976,1017,26,male,True
526,118.0,25,M,down,1.739660900006129,0.6133458433475449,,experiment,emotion,2.0,,,,1879.620765800002,1017,26,male,True
527,118.0,25,F,up,0.8577887000064948,1.3999007398772876,,experiment,emotion,2.0,,,,1883.020643300002,1017,26,male,True
528,115.0,25,M,down,0.8542875999992248,1.5930878486203666,,experiment,emotion,2.0,,,,1885.7871295999976,1017,26,male,True
529,124.0,25,F,up,1.0852995999957784,1.4917961916579336,,experiment,emotion,2.0,,,,1888.437128499998,1017,26,male,True
530,121.0,25,F,down,1.2291267999971751,1.8376349203800293,,experiment,emotion,2.0,,,,1891.670301000002,1017,26,male,True
531,115.0,25,M,up,1.0128676000022097,0.9375440025216012,,experiment,emotion,2.0,,,,1894.103584200002,1017,26,male,True
532,124.0,25,M,up,0.9796069000003628,1.1480325474495676,,experiment,emotion,2.0,,,,1896.5368228999976,1017,26,male,True
533,124.0,25,F,up,0.8750051000024541,0.3709703518594434,,experiment,emotion,2.0,,,,1898.153421400002,1017,26,male,True
534,118.0,25,M,down,2.16111539999838,0.9280613501731017,,experiment,emotion,2.0,,,,1900.2533649,1017,26,male,True
535,115.0,25,F,down,1.2205556999979308,0.4703634396873277,,experiment,emotion,2.0,,,,1903.1699188999955,1017,26,male,True
536,118.0,25,F,up,1.621968499996001,0.7366505574923404,,experiment,emotion,2.0,,,,1905.386466699998,1017,26,male,True
537,121.0,25,F,down,1.3297201000023051,1.5908100067127746,,experiment,emotion,2.0,,,,1908.919693,1017,26,male,True
538,115.0,25,M,down,1.433520699996734,0.923964802201754,,experiment,emotion,2.0,,,,1911.4529077000009,1017,26,male,True
539,124.0,25,M,up,0.9772748000032152,1.939118062639244,,experiment,emotion,2.0,,,,1915.1361320999968,1017,26,male,True
540,121.0,25,M,up,0.8817873000007239,1.3790607497537055,,experiment,emotion,2.0,,,,1917.752689799996,1017,26,male,True
541,124.0,25,F,up,0.7835445000018808,1.6348235425889617,,experiment,emotion,2.0,,,,1920.5359179999975,1017,26,male,True
542,115.0,25,F,,,1.7848906974046062,,experiment,emotion,2.0,,,,1923.3691545,1017,26,male,True
543,121.0,25,M,up,1.0371034999989206,1.3017637912655486,,experiment,emotion,2.0,,,,1927.3523453999987,1017,26,male,True
544,118.0,25,F,up,1.7145387999989907,1.824464881973638,,experiment,emotion,2.0,,,,1930.5188897000007,1017,26,male,True
545,118.0,25,M,up,1.133248399994045,0.3915214946045358,,experiment,emotion,2.0,,,,1932.9021717999967,1017,26,male,True
546,121.0,25,M,up,0.9763961999997264,0.892148715932626,,experiment,emotion,2.0,,,,1935.202036599996,1017,26,male,True
547,124.0,25,M,up,0.9914878999989014,1.0833840740451386,,experiment,emotion,2.0,,,,1937.551987099996,1017,26,male,True
548,118.0,25,F,up,1.298706300003687,1.18859155247375,,experiment,emotion,2.0,,,,1940.001812599996,1017,26,male,True
549,115.0,25,F,down,0.8463674999948125,1.822022347105788,,experiment,emotion,2.0,,,,1943.4350842000024,1017,26,male,True
550,115.0,25,M,up,0.9417602000030456,1.309456476519126,,experiment,emotion,2.0,,,,1945.8516671,1017,26,male,True
551,118.0,25,F,up,0.8475913000002038,1.8622657516776784,,experiment,emotion,2.0,,,,1948.934879999997,1017,26,male,True
552,124.0,25,F,up,1.062338700001419,0.9975991597604492,,experiment,emotion,2.0,,,,1951.0681245999983,1017,26,male,True
553,121.0,25,M,up,1.4090136000013445,0.5771121123416821,,experiment,emotion,2.0,,,,1953.001422899997,1017,26,male,True
554,115.0,25,M,down,1.0764593000058085,0.6055447425039642,,experiment,emotion,2.0,,,,1955.2679777999983,1017,26,male,True
555,124.0,25,F,up,0.7841837000014493,0.543862445440713,,experiment,emotion,2.0,,,,1957.1512595999995,1017,26,male,True
556,121.0,25,M,up,0.9352922000034596,1.0508223853840597,,experiment,emotion,2.0,,,,1959.251174399997,1017,26,male,True
557,121.0,25,F,up,0.9737057000020286,1.7175815044736724,,experiment,emotion,2.0,,,,1962.167718499997,1017,26,male,True
558,115.0,25,F,down,1.483201100003498,1.7791183911791952,,experiment,emotion,2.0,,,,1965.1842222000012,1017,26,male,True
559,118.0,25,F,up,0.7775770000007469,1.248038735783883,,experiment,emotion,2.0,,,,1968.2008592999955,1017,26,male,True
560,124.0,25,M,down,1.9596850000016277,0.8760234434166361,,experiment,emotion,2.0,,,,1970.1507651999964,1017,26,male,True
561,118.0,25,M,down,1.0097561000002315,0.8220266529663685,,experiment,emotion,2.0,,,,1973.200675600001,1017,26,male,True
562,118.0,25,F,up,0.9498480000038398,1.2565695028484372,,experiment,emotion,2.0,,,,1975.7505556,1017,26,male,True
563,118.0,25,F,down,0.7329748000047402,1.2624457708614254,,experiment,emotion,2.0,,,,1978.2504594999957,1017,26,male,True
564,124.0,25,M,up,0.940849500002514,1.536848298751433,,experiment,emotion,2.0,,,,1980.783628299996,1017,26,male,True
565,121.0,25,M,up,1.8698135999948136,1.0324715925325032,,experiment,emotion,2.0,,,,1983.033635899996,1017,26,male,True
566,115.0,25,M,down,0.7053029000016977,1.6493558240430997,,experiment,emotion,2.0,,,,1986.8501541999976,1017,26,male,True
567,115.0,25,M,down,1.2916695999956571,0.7911231640908342,,experiment,emotion,2.0,,,,1988.6167650000025,1017,26,male,True
568,121.0,25,M,down,1.6997055999963775,0.8292610737429169,,experiment,emotion,2.0,,,,1991.0167263000003,1017,26,male,True
569,124.0,25,F,up,0.6691809999974794,0.6933057593618017,,experiment,emotion,2.0,,,,1993.6832363999963,1017,26,male,True
570,124.0,25,F,down,0.983628399997542,1.8302684424533573,,experiment,emotion,2.0,,,,1996.4498065999976,1017,26,male,True
571,115.0,25,M,up,0.8620402000015019,1.1064794189698006,,experiment,emotion,2.0,,,,1998.816393799996,1017,26,male,True
572,124.0,25,F,up,1.2038887000016985,0.7394785477932981,,experiment,emotion,2.0,,,,2000.6995720000011,1017,26,male,True
573,118.0,25,F,up,0.8241983000043547,0.646390380824279,,experiment,emotion,2.0,,,,2002.8162477999977,1017,26,male,True
574,121.0,25,F,down,0.9849660999971092,1.706893966772136,,experiment,emotion,2.0,,,,2005.6494709,1017,26,male,True
575,118.0,25,M,up,0.8927726999972947,0.3891414675167744,,experiment,emotion,2.0,,,,2007.2996686000008,1017,26,male,True
576,115.0,25,F,up,1.1217697000029148,0.9718795857937494,,experiment,emotion,2.0,,,,2009.432664899996,1017,26,male,True
577,121.0,25,F,up,0.8045158999957494,0.9391340326488208,,experiment,emotion,2.0,,,,2011.765914599997,1017,26,male,True
578,118.0,25,F,up,0.9652706999986548,0.5103258876290168,,experiment,emotion,2.0,,,,2013.349186299998,1017,26,male,True
579,121.0,25,M,up,1.08839799999987,0.7231837300835403,,experiment,emotion,2.0,,,,2015.2990875,1017,26,male,True
580,115.0,25,M,up,2.023774199995387,1.9103340313203503,,experiment,emotion,2.0,,,,2018.5656560000025,1017,26,male,True
581,124.0,25,F,up,2.403565100001288,1.5344324365456046,,experiment,emotion,2.0,,,,2022.448867999996,1017,26,male,True
582,121.0,25,M,down,0.7047287999957916,1.3213542607115962,,experiment,emotion,2.0,,,,2026.4987058000008,1017,26,male,True
583,124.0,25,F,up,0.9778288000015892,1.4203833332861464,,experiment,emotion,2.0,,,,2028.898626999999,1017,26,male,True
584,115.0,25,M,up,1.465857600000163,0.307570419866618,,experiment,emotion,2.0,,,,2030.4485634999985,1017,26,male,True
585,118.0,25,M,up,2.171345400005521,0.7039606541491665,,experiment,emotion,2.0,,,,2032.915138799999,1017,26,male,True
586,0.302323779851427,25,up,up,0.7232453999968129,0.5302967206568816,,experiment,cRDM,2.0,,,,2041.4981869000003,1017,26,male,True
587,0.302323779851427,25,up,up,0.8770542999991449,1.090050277406854,,experiment,cRDM,2.0,,,,2043.581386199996,1017,26,male,True
588,0.302323779851427,25,down,down,1.1364257000022917,1.8817794207024212,,experiment,cRDM,2.0,,,,2046.598011099999,1017,26,male,True
589,0.302323779851427,25,down,up,0.8882625999976881,1.8472463361950933,,experiment,cRDM,2.0,,,,2049.8311766000006,1017,26,male,True
590,0.302323779851427,25,up,up,0.7076562000002014,1.5263027893863284,,experiment,cRDM,2.0,,,,2052.4977782000024,1017,26,male,True
591,0.302323779851427,25,down,down,1.403505700000096,1.4734509737464934,,experiment,cRDM,2.0,,,,2054.930983399998,1017,26,male,True
592,0.302323779851427,25,up,up,0.7748601999992388,0.9937559179777578,,experiment,cRDM,2.0,,,,2057.5975880000005,1017,26,male,True
593,0.302323779851427,25,up,up,0.6852861999941524,0.623897653165226,,experiment,cRDM,2.0,,,,2059.264151499996,1017,26,male,True
594,0.302323779851427,25,down,down,0.7303337999983341,0.4597640636408981,,experiment,cRDM,2.0,,,,2060.664104599997,1017,26,male,True
595,0.302323779851427,25,down,up,0.7217189000002691,1.1828851062192038,,experiment,cRDM,2.0,,,,2062.8307080999984,1017,26,male,True
596,0.302323779851427,25,down,down,0.7209310999969603,0.7636756772996609,,experiment,cRDM,2.0,,,,2064.580546100002,1017,26,male,True
597,0.302323779851427,25,down,up,1.925554599998577,1.443578738387736,,experiment,cRDM,2.0,,,,2067.013899199996,1017,26,male,True
598,0.302323779851427,25,down,down,1.2853629999954137,1.0337252789503504,,experiment,cRDM,2.0,,,,2070.247082799997,1017,26,male,True
599,0.302323779851427,25,down,down,0.651399099995615,1.3020137060711174,,experiment,cRDM,2.0,,,,2073.0970414000003,1017,26,male,True
600,0.302323779851427,25,up,up,0.6534704000005149,0.4773866169168442,,experiment,cRDM,2.0,,,,2074.4969674999998,1017,26,male,True
601,0.302323779851427,25,up,down,1.0005625000048894,0.8406991631256393,,experiment,cRDM,2.0,,,,2076.2468778,1017,26,male,True
602,0.302323779851427,25,up,up,0.6513466999967932,1.917689907430825,,experiment,cRDM,2.0,,,,2079.4301061999977,1017,26,male,True
603,0.302323779851427,25,up,up,0.733758599999419,1.6138195617169582,,experiment,cRDM,2.0,,,,2081.9466790999977,1017,26,male,True
604,0.302323779851427,25,down,down,0.6045621000012034,1.1936745888066604,,experiment,cRDM,2.0,,,,2084.129920800002,1017,26,male,True
605,0.302323779851427,25,up,up,0.9222461000026668,1.2285560845533323,,experiment,cRDM,2.0,,,,2086.213173399996,1017,26,male,True
606,0.302323779851427,25,up,up,0.609999100001005,1.388266192234751,,experiment,cRDM,2.0,,,,2088.796411799998,1017,26,male,True
607,0.302323779851427,25,down,down,0.5874135999983991,0.4922551248199142,,experiment,cRDM,2.0,,,,2090.163018700001,1017,26,male,True
608,0.302323779851427,25,up,up,0.6274825000000419,1.996849085475818,,experiment,cRDM,2.0,,,,2093.0129608000025,1017,26,male,True
609,0.302323779851427,25,down,down,0.8462474000043585,0.8890254022956714,,experiment,cRDM,2.0,,,,2094.796227499999,1017,26,male,True
610,0.302323779851427,25,down,,,1.500957728114372,,experiment,cRDM,2.0,,,,2097.396100199996,1017,26,male,True
611,0.302323779851427,25,up,up,0.6931973000027938,1.9113585609305368,,experiment,cRDM,2.0,,,,2101.979250200002,1017,26,male,True
612,0.302323779851427,25,up,up,0.6723042000012356,1.2703588728062494,,experiment,cRDM,2.0,,,,2104.1961166,1017,26,male,True
613,0.302323779851427,25,down,down,1.083692099993641,1.572898242163909,,experiment,cRDM,2.0,,,,2106.695743100001,1017,26,male,True
614,0.302323779851427,25,up,up,0.734824999999546,1.0548844235939396,,experiment,cRDM,2.0,,,,2109.0956386,1017,26,male,True
615,0.302323779851427,25,down,down,0.7791299000018626,1.1150111909823104,,experiment,cRDM,2.0,,,,2111.212305699996,1017,26,male,True
616,0.302323779851427,25,down,up,0.8663512999992236,1.3174645619020962,,experiment,cRDM,2.0,,,,2113.5621543999987,1017,26,male,True
617,0.302323779851427,25,down,down,0.8403860999969766,1.4693983246731028,,experiment,cRDM,2.0,,,,2116.1620570999985,1017,26,male,True
618,0.302323779851427,25,up,up,0.7641361999994842,1.6005905466184058,,experiment,cRDM,2.0,,,,2118.845305599996,1017,26,male,True
619,0.302323779851427,25,up,up,0.9296111000003292,1.872889388606076,,experiment,cRDM,2.0,,,,2121.7618312000013,1017,26,male,True
620,0.302323779851427,25,up,up,1.000685600003635,1.601403652815339,,experiment,cRDM,2.0,,,,2124.5617621999954,1017,26,male,True
621,0.302323779851427,25,down,down,1.0704122000024654,1.275745370841128,,experiment,cRDM,2.0,,,,2127.095035299997,1017,26,male,True
622,0.302323779851427,25,down,down,0.7755773999961093,0.8634646051825985,,experiment,cRDM,2.0,,,,2129.294984899996,1017,26,male,True
623,0.302323779851427,25,up,up,0.7245920999994269,1.8550304465181915,,experiment,cRDM,2.0,,,,2132.1948652999963,1017,26,male,True
624,0.302323779851427,25,down,up,0.941049799999746,1.263191390419521,,experiment,cRDM,2.0,,,,2134.461413599998,1017,26,male,True
625,0.302323779851427,25,up,up,0.7424985000034212,1.3591291543425177,,experiment,cRDM,2.0,,,,2137.0279732000017,1017,26,male,True
626,0.302323779851427,25,up,up,0.8185728999960702,1.901215853967788,,experiment,cRDM,2.0,,,,2139.927872899996,1017,26,male,True
627,0.302323779851427,25,up,up,0.9216598999992128,0.9668999929909488,,experiment,cRDM,2.0,,,,2141.9777893999963,1017,26,male,True
628,0.302323779851427,25,down,down,0.715437999999267,0.8544108317188595,,experiment,cRDM,2.0,,,,2144.0110233999985,1017,26,male,True
629,0.302323779851427,25,down,down,0.7767093000002205,1.281081285728605,,experiment,cRDM,2.0,,,,2146.277734799998,1017,26,male,True
630,0.302323779851427,25,up,up,0.74957269999868,1.3311348822634954,,experiment,cRDM,2.0,,,,2148.6608696000003,1017,26,male,True
631,0.302323779851427,25,down,down,0.7720654000004288,1.870400267718188,,experiment,cRDM,2.0,,,,2151.5274494000005,1017,26,male,True
632,0.302323779851427,25,down,down,0.7373987000028137,1.4817110134861575,,experiment,cRDM,2.0,,,,2154.044045699997,1017,26,male,True
633,0.302323779851427,25,up,up,0.7244764999995823,1.6506601229084128,,experiment,cRDM,2.0,,,,2156.6939743000003,1017,26,male,True
634,0.302323779851427,25,up,up,0.8325533000024734,0.4675264441018383,,experiment,cRDM,2.0,,,,2158.143864599999,1017,26,male,True
635,0.302323779851427,25,down,down,0.7530373999979929,0.8739570728261203,,experiment,cRDM,2.0,,,,2160.1104435999987,1017,26,male,True
636,0.302323779851427,25,up,up,0.7830598000000464,1.139407621147956,,experiment,cRDM,2.0,,,,2162.2603815,1017,26,male,True
637,0.302323779851427,25,down,down,0.6795156999942265,1.862852776692477,,experiment,cRDM,2.0,,,,2165.1769192999964,1017,26,male,True
638,0.302323779851427,25,down,down,0.8776283000042895,1.8021827358956568,,experiment,cRDM,2.0,,,,2167.926835800001,1017,26,male,True
639,0.302323779851427,25,down,up,1.2864272000006167,1.5037336811120663,,experiment,cRDM,2.0,,,,2170.5600602000013,1017,26,male,True
640,0.302323779851427,25,up,up,0.7251879999967059,1.8344836219736629,,experiment,cRDM,2.0,,,,2173.943284500001,1017,26,male,True
641,0.302323779851427,25,up,up,1.3102474999977858,1.4091375059478604,,experiment,cRDM,2.0,,,,2176.3432003000016,1017,26,male,True
642,0.302323779851427,25,down,down,0.899389300000621,1.9860570845879704,,experiment,cRDM,2.0,,,,2179.8930661000013,1017,26,male,True
643,0.302323779851427,25,down,down,0.9394463999997242,0.4945458330115057,,experiment,cRDM,2.0,,,,2181.543017,1017,26,male,True
644,0.302323779851427,25,up,up,1.3215129999953206,1.157434881025562,,experiment,cRDM,2.0,,,,2183.8929312,1017,26,male,True
645,0.302323779851427,25,up,up,0.7033191999944393,1.3922096266246655,,experiment,cRDM,2.0,,,,2186.876150799999,1017,26,male,True
646,0.302323779851427,25,up,up,0.8420658000031835,1.9201374750173064,,experiment,cRDM,2.0,,,,2189.7593763000004,1017,26,male,True
647,0.302323779851427,25,up,up,0.8041836000047624,1.992012575262778,,experiment,cRDM,2.0,,,,2192.859269999997,1017,26,male,True
648,0.302323779851427,25,up,down,1.1725739000030444,0.597537409627436,,experiment,cRDM,2.0,,,,2194.525870199996,1017,26,male,True
649,0.302323779851427,25,down,up,0.7153217999948538,1.6527377224454485,,experiment,cRDM,2.0,,,,2197.6091255999963,1017,26,male,True
650,0.302323779851427,25,down,down,0.6974504000027082,1.5366748814127058,,experiment,cRDM,2.0,,,,2200.1089926000022,1017,26,male,True
651,0.302323779851427,25,up,up,0.6895164000015939,1.6502758781380422,,experiment,cRDM,2.0,,,,2202.708933599996,1017,26,male,True
652,0.302323779851427,25,down,down,0.5846107999968808,0.7979242786606163,,experiment,cRDM,2.0,,,,2204.458852699998,1017,26,male,True
653,0.302323779851427,25,down,up,0.4933743000001414,0.931732255299893,,experiment,cRDM,2.0,,,,2206.2421032999955,1017,26,male,True
654,0.302323779851427,25,down,down,1.010771900000691,1.6063883466003457,,experiment,cRDM,2.0,,,,2208.608672899998,1017,26,male,True
655,0.302323779851427,25,up,up,0.6178588000038872,1.582813958345184,,experiment,cRDM,2.0,,,,2211.4585761000017,1017,26,male,True
656,0.302323779851427,25,down,down,0.8999493000010261,0.7110211032576442,,experiment,cRDM,2.0,,,,2213.058498000002,1017,26,male,True
657,0.302323779851427,25,down,up,0.9250261999986832,1.87795485868831,,experiment,cRDM,2.0,,,,2216.108422000001,1017,26,male,True
658,0.302323779851427,25,down,,,0.4167250700929868,,experiment,cRDM,2.0,,,,2217.708383100002,1017,26,male,True
659,0.302323779851427,25,up,up,0.7175486999985878,1.4886379583316092,,experiment,cRDM,2.0,,,,2221.8748746999954,1017,26,male,True
660,0.302323779851427,25,up,up,0.7064115000030142,1.789138384159955,,experiment,cRDM,2.0,,,,2224.6580847999976,1017,26,male,True
661,0.302323779851427,25,down,down,0.6461361999972723,1.620359311847401,,experiment,cRDM,2.0,,,,2227.241315199997,1017,26,male,True
662,0.302323779851427,25,up,up,0.6308724999980768,0.5286821753728743,,experiment,cRDM,2.0,,,,2228.674575299996,1017,26,male,True
663,0.302323779851427,25,down,down,0.6720068999929936,1.6098963335324623,,experiment,cRDM,2.0,,,,2231.1744431000006,1017,26,male,True
664,0.302323779851427,25,up,up,0.6660000999982003,1.1285875451265457,,experiment,cRDM,2.0,,,,2233.224448600002,1017,26,male,True
665,0.302323779851427,25,up,up,0.6937379000009969,0.3147487505344173,,experiment,cRDM,2.0,,,,2234.4577092,1017,26,male,True
666,124.0,25,M,up,0.8237402999948245,1.1408773186055912,,experiment,emotion,3.0,,,,2241.840798399997,1017,26,male,True
667,115.0,25,M,down,0.6614651999989292,1.7428590159585549,,experiment,emotion,3.0,,,,2244.7240224000016,1017,26,male,True
668,121.0,25,F,down,0.7007174999962444,0.3993980297645305,,experiment,emotion,3.0,,,,2246.0738933,1017,26,male,True
669,124.0,25,F,down,0.6845236000008299,1.282583506799211,,experiment,emotion,3.0,,,,2248.323900499996,1017,26,male,True
670,121.0,25,M,down,0.9189582000035444,0.6039618153403028,,experiment,emotion,3.0,,,,2249.8904957000013,1017,26,male,True
671,118.0,25,F,down,0.7444178000005195,0.8427946634826018,,experiment,emotion,3.0,,,,2251.957067799998,1017,26,male,True
672,115.0,25,M,down,0.7242497999977786,1.0671819617990546,,experiment,emotion,3.0,,,,2254.0403435000007,1017,26,male,True
673,118.0,25,M,down,0.7345526999997674,1.285599727209256,,experiment,emotion,3.0,,,,2256.306933099997,1017,26,male,True
674,124.0,25,F,down,1.0416134000042805,0.4940451406922261,,experiment,emotion,3.0,,,,2257.806870999997,1017,26,male,True
675,118.0,25,F,down,0.7842550999994273,0.6781055290800873,,experiment,emotion,3.0,,,,2259.790161299996,1017,26,male,True
676,121.0,25,F,up,0.807403400001931,0.873170830558978,,experiment,emotion,3.0,,,,2261.7400470999964,1017,26,male,True
677,124.0,25,F,up,1.5928214000014125,0.9939163252453752,,experiment,emotion,3.0,,,,2263.8066634000024,1017,26,male,True
678,121.0,25,F,down,2.3086026000019046,1.3177888241820972,,experiment,emotion,3.0,,,,2266.9898673000025,1017,26,male,True
679,115.0,25,F,down,0.9316747999982908,0.7797079923707981,,experiment,emotion,3.0,,,,2270.3897495999954,1017,26,male,True
680,118.0,25,M,down,0.8314688999962527,1.1367681825160243,,experiment,emotion,3.0,,,,2272.722980900002,1017,26,male,True
681,115.0,25,M,up,0.9118813999957638,1.5513866708702273,,experiment,emotion,3.0,,,,2275.389586399997,1017,26,male,True
682,124.0,25,M,up,0.8736528000008548,0.5049869294212794,,experiment,emotion,3.0,,,,2277.1228343,1017,26,male,True
683,115.0,25,M,down,1.27076500000112,1.5923823440982945,,experiment,emotion,3.0,,,,2279.8727275999954,1017,26,male,True
684,121.0,25,F,up,0.9851638999971328,1.499377171972962,,experiment,emotion,3.0,,,,2282.9392845,1017,26,male,True
685,121.0,25,M,down,1.2372748000052525,1.887645383753924,,experiment,emotion,3.0,,,,2286.0891729999967,1017,26,male,True
686,118.0,25,M,down,1.9911470000006373,0.7457923272888269,,experiment,emotion,3.0,,,,2288.372370000001,1017,26,male,True
687,118.0,25,F,down,1.4251234999974258,0.3934668770232757,,experiment,emotion,3.0,,,,2291.022325199996,1017,26,male,True
688,115.0,25,M,up,0.9629160999975284,1.3060404751520536,,experiment,emotion,3.0,,,,2294.0555370999973,1017,26,male,True
689,124.0,25,F,up,0.9667540000009468,1.5597780753978547,,experiment,emotion,3.0,,,,2296.8887012000014,1017,26,male,True
690,121.0,25,F,down,2.2457477999996627,1.4675493395494374,,experiment,emotion,3.0,,,,2299.5887004,1017,26,male,True
691,115.0,25,M,up,0.7232377999971504,1.0113625338617411,,experiment,emotion,3.0,,,,2303.1052141,1017,26,male,True
692,124.0,25,M,up,1.1266965000031632,1.7308517276004247,,experiment,emotion,3.0,,,,2305.8217829000023,1017,26,male,True
693,124.0,25,F,down,1.5434657000005243,1.7746573488133257,,experiment,emotion,3.0,,,,2309.004985800002,1017,26,male,True
694,118.0,25,M,up,0.8415298000036273,1.5981409323856963,,experiment,emotion,3.0,,,,2312.454885199997,1017,26,male,True
695,115.0,25,F,up,0.7553355999989435,1.32912771554155,,experiment,emotion,3.0,,,,2314.888121599997,1017,26,male,True
696,118.0,25,F,up,0.8594099999972968,0.6209135864115379,,experiment,emotion,3.0,,,,2316.538045699996,1017,26,male,True
697,121.0,25,F,up,0.8254521000053501,0.8018717875382471,,experiment,emotion,3.0,,,,2318.4880043999983,1017,26,male,True
698,115.0,25,M,down,1.5165741000018895,1.4535287776449075,,experiment,emotion,3.0,,,,2321.037879300002,1017,26,male,True
699,124.0,25,M,up,0.7360209000034956,0.8444990794525347,,experiment,emotion,3.0,,,,2323.704447399996,1017,26,male,True
700,121.0,25,M,,,0.4629903585977045,,experiment,emotion,3.0,,,,2325.1710528000003,1017,26,male,True
701,124.0,25,F,up,1.1494837999998708,0.5055318659920113,,experiment,emotion,3.0,,,,2328.370955399998,1017,26,male,True
702,115.0,25,F,down,0.8054061000002548,0.8614722863392545,,experiment,emotion,3.0,,,,2330.654193400001,1017,26,male,True
703,121.0,25,M,up,0.8310047999984818,1.0107971796224322,,experiment,emotion,3.0,,,,2332.7374530999987,1017,26,male,True
704,118.0,25,F,up,1.065759099998104,1.6626250861349132,,experiment,emotion,3.0,,,,2335.5206868999994,1017,26,male,True
705,118.0,25,M,up,0.915513200001442,0.5035791165538764,,experiment,emotion,3.0,,,,2337.3539355,1017,26,male,True
706,121.0,25,M,up,1.033212200003618,0.4548714800104186,,experiment,emotion,3.0,,,,2338.987247599998,1017,26,male,True
707,124.0,25,M,up,1.161592299999029,1.9743354739518533,,experiment,emotion,3.0,,,,2342.3037964,1017,26,male,True
708,118.0,25,F,up,0.8348189999960596,0.6111764826656332,,experiment,emotion,3.0,,,,2344.3536761999967,1017,26,male,True
709,115.0,25,F,up,0.9128921999945304,1.968988502622272,,experiment,emotion,3.0,,,,2347.453566399996,1017,26,male,True
710,115.0,25,M,up,0.8396557999949437,1.6142128381248722,,experiment,emotion,3.0,,,,2350.236816200002,1017,26,male,True
711,118.0,25,F,up,0.8897538999954122,1.7261521049973825,,experiment,emotion,3.0,,,,2353.0867125999976,1017,26,male,True
712,124.0,25,F,up,0.765307000001485,1.3542424050153918,,experiment,emotion,3.0,,,,2355.6532651999987,1017,26,male,True
713,121.0,25,M,down,1.5449418999996851,1.5071304568198167,,experiment,emotion,3.0,,,,2358.2365194999984,1017,26,male,True
714,115.0,25,M,up,1.04240910000226,1.2908230496511337,,experiment,emotion,3.0,,,,2361.353051299997,1017,26,male,True
715,124.0,25,F,up,0.8561067999980878,0.3682886915646832,,experiment,emotion,3.0,,,,2363.0363499999985,1017,26,male,True
716,121.0,25,M,down,1.3259623999983887,1.754523186320085,,experiment,emotion,3.0,,,,2365.919570299997,1017,26,male,True
717,121.0,25,F,up,0.659973000001628,0.4529268875769509,,experiment,emotion,3.0,,,,2367.969510699997,1017,26,male,True
718,115.0,25,F,up,0.7340585999991163,1.817932568553886,,experiment,emotion,3.0,,,,2370.7193823000016,1017,26,male,True
719,118.0,25,F,up,1.0272254000010437,1.9810720389890963,,experiment,emotion,3.0,,,,2373.7192707999966,1017,26,male,True
720,124.0,25,M,up,0.6982468999995035,0.3040304025502563,,experiment,emotion,3.0,,,,2375.3192157999983,1017,26,male,True
721,118.0,25,M,up,0.7259706999975606,0.4688524112642256,,experiment,emotion,3.0,,,,2376.7524890000022,1017,26,male,True
722,118.0,25,F,down,0.9230604999975184,1.1986088802042074,,experiment,emotion,3.0,,,,2378.9524035999966,1017,26,male,True
723,118.0,25,F,down,0.8267992000037339,1.479119646890955,,experiment,emotion,3.0,,,,2381.6356659999983,1017,26,male,True
724,124.0,25,M,up,0.9125615000011748,1.643723287507134,,experiment,emotion,3.0,,,,2384.368884599997,1017,26,male,True
725,121.0,25,M,up,0.8966297000006307,1.043486106497335,,experiment,emotion,3.0,,,,2386.618827000002,1017,26,male,True
726,115.0,25,M,up,0.8484595999980229,0.3524446188318286,,experiment,emotion,3.0,,,,2388.1519852999954,1017,26,male,True
727,115.0,25,M,down,0.6704261000049883,0.8853532431672198,,experiment,emotion,3.0,,,,2390.152032599999,1017,26,male,True
728,121.0,25,M,up,1.605531200002588,1.5603837214910776,,experiment,emotion,3.0,,,,2392.6519248000004,1017,26,male,True
729,124.0,25,F,down,1.7439320999983463,0.4866566906094019,,experiment,emotion,3.0,,,,2395.0185119999987,1017,26,male,True
730,124.0,25,F,up,0.8507038000025204,0.5185288633390086,,experiment,emotion,3.0,,,,2397.551748599999,1017,26,male,True
731,115.0,25,M,up,1.404061699999147,0.3968629694254058,,experiment,emotion,3.0,,,,2399.0683589,1017,26,male,True
732,124.0,25,F,up,1.1286279999985709,1.952497370020976,,experiment,emotion,3.0,,,,2402.684880099998,1017,26,male,True
733,118.0,25,F,down,0.7293934000044828,1.0757769655065277,,experiment,emotion,3.0,,,,2405.1681050000007,1017,26,male,True
734,121.0,25,F,up,1.1627518999957829,1.3506392866633554,,experiment,emotion,3.0,,,,2407.5347003000024,1017,26,male,True
735,118.0,25,M,up,1.2648869000040577,1.2561522887070438,,experiment,emotion,3.0,,,,2410.2346271000024,1017,26,male,True
736,115.0,25,F,down,0.8752724000005401,1.822077654542934,,experiment,emotion,3.0,,,,2413.601162199997,1017,26,male,True
737,121.0,25,F,up,1.1674209000047997,1.692504047268161,,experiment,emotion,3.0,,,,2416.451056199996,1017,26,male,True
738,118.0,25,F,up,0.7784919000041555,1.4021648494918602,,experiment,emotion,3.0,,,,2419.3009336,1017,26,male,True
739,121.0,25,M,up,0.8783533000023453,1.5928003697628572,,experiment,emotion,3.0,,,,2421.9341573999955,1017,26,male,True
740,115.0,25,M,down,0.7916914000015822,1.323815454161798,,experiment,emotion,3.0,,,,2424.4007498999963,1017,26,male,True
741,124.0,25,F,up,0.9591414999958944,1.8109384424399184,,experiment,emotion,3.0,,,,2427.3173260000003,1017,26,male,True
742,121.0,25,M,down,1.7185290000052191,0.9005652069269827,,experiment,emotion,3.0,,,,2429.433937500002,1017,26,male,True
