,stimLvl,stimTime,rand,response,rt,precedingITI,trialNumber,trialType,stimuli,block,estIntens,estThres,estSlope,trialStart,subject,age,gender,headRest
0,0.9,100,down,,,1.447430206122859,,introTrial,cRDM,,,,,157.0868759000441,210,21,male,True
1,150.0,100,F,,,1.4477906126369111,,introTrial,emotion,,,,,162.48697980004363,210,21,male,True
2,0.9,25,down,down,0.5525184998987243,0.5478013681915054,,tutorial,cRDM,,,,,191.7857104999712,210,21,male,True
3,0.9,25,down,down,0.5666184000438079,1.4001916317708598,,tutorial,cRDM,,,,,194.0356075000018,210,21,male,True
4,0.9,25,up,up,0.5269470999483019,0.3897890051120998,,tutorial,cRDM,,,,,195.30221890006212,210,21,male,True
5,0.9,25,up,up,0.4867846000706777,0.989139092070534,,tutorial,cRDM,,,,,197.0854472999927,210,21,male,True
6,0.9,25,up,up,0.4214977999217808,0.7421521727055309,,tutorial,cRDM,,,,,198.58570549997967,210,21,male,True
7,0.9,25,up,up,0.428164399927482,1.869751710985405,,tutorial,cRDM,,,,,201.1519927000627,210,21,male,True
8,0.9,25,down,down,0.4640469000441953,1.130443781920434,,tutorial,cRDM,,,,,202.98518590000455,210,21,male,True
9,0.9,25,up,up,0.4740534999873489,1.4897163724441032,,tutorial,cRDM,,,,,205.23519380006476,210,21,male,True
10,0.9,25,down,down,0.5627333000302315,0.6810920739922257,,tutorial,cRDM,,,,,206.66844879998823,210,21,male,True
11,0.9,25,down,down,0.455548100057058,0.6000907688750163,,tutorial,cRDM,,,,,208.10173420002684,210,21,male,True
12,200.0,25,M,up,0.6279995999066159,1.0524737884284534,,tutorial,emotion,,,,,213.0182362999767,210,21,male,True
13,200.0,25,M,up,0.4002187000587582,0.3013729999949142,,tutorial,emotion,,,,,214.234864500002,210,21,male,True
14,200.0,25,F,up,0.4167984999949112,1.7570829108060937,,tutorial,emotion,,,,,216.70143949997143,210,21,male,True
15,0.0,25,F,down,0.4648033999837935,0.7149714645585521,,tutorial,emotion,,,,,218.15136620006524,210,21,male,True
16,0.0,25,M,down,0.4322224999777972,0.5584896649854358,,tutorial,emotion,,,,,219.4679739000276,210,21,male,True
17,200.0,25,F,down,0.3337747999466955,0.3451064915875492,,tutorial,emotion,,,,,220.53464119997807,210,21,male,True
18,0.0,25,M,down,0.638014700030908,0.6758510179916921,,tutorial,emotion,,,,,221.90124979999385,210,21,male,True
19,200.0,25,M,up,0.5320829000556841,1.113260432220253,,tutorial,emotion,,,,,223.95115470001477,210,21,male,True
20,0.0,25,F,down,0.5144742999691516,1.234613436058131,,tutorial,emotion,,,,,226.01772880007047,210,21,male,True
21,0.0,25,F,down,0.5241703999927267,0.7832069130521748,,tutorial,emotion,,,,,227.60105110006407,210,21,male,True
22,0.29,25,up,up,0.3838999998988583,1.08460757554607,,psi_staircase_training,cRDM,,0.25,0.2569312402994632,0.105,235.7840612999862,210,21,male,True
23,0.25,25,up,up,0.3674343000166118,0.9146304325008414,,psi_staircase_training,cRDM,,0.2191026665318312,0.2260132002683492,0.1046863203387393,237.4006760000484,210,21,male,True
24,0.21,25,down,up,0.333897800068371,0.6685027009743691,,psi_staircase_training,cRDM,,0.1900540959403307,0.1968497961554001,0.1029467298424999,238.75059730000797,210,21,male,True
25,0.32,25,down,down,0.4710940000368282,1.522677413420665,,psi_staircase_training,cRDM,,0.2819387795981387,0.2893209636160949,0.1118312579561586,240.9671490000328,210,21,male,True
26,0.29,25,up,up,0.5177386000286788,0.7787887597968486,,psi_staircase_training,cRDM,,0.259426876942127,0.2667634756990502,0.1111406957765679,242.50047850003463,210,21,male,True
27,0.27,25,down,down,0.6050971000222489,0.3751242762713892,,psi_staircase_training,cRDM,,0.238671950950526,0.2458822432686334,0.109227304305105,243.6671035999898,210,21,male,True
28,0.26,25,up,up,0.4002561999950558,1.000627643941561,,psi_staircase_training,cRDM,,0.2201157802488951,0.2271739015591714,0.1069220955499697,245.5503392000683,210,21,male,True
29,0.24,25,down,down,0.4168037000345066,1.1652998199994602,,psi_staircase_training,cRDM,,0.2041505375414391,0.2110301411817813,0.1042177663775234,247.41696499998216,210,21,male,True
30,0.2,25,down,,,1.3883634821536337,,psi_staircase_training,cRDM,,0.1888644554418269,0.1957080400193487,0.103672120658612,249.50023110001348,210,21,male,True
31,0.2,25,down,down,0.4687745000701397,1.3883634821536337,,psi_staircase_training,cRDM,,0.1888644554418269,0.1957080400193487,0.103672120658612,253.5834315000102,210,21,male,True
32,0.2,25,up,up,0.4208059000084176,0.4013283025946391,,psi_staircase_training,cRDM,,0.1705557926382123,0.1778497321889761,0.1104944598284255,254.73338440002408,210,21,male,True
33,0.19,25,down,down,0.4002653000643477,1.404704103492823,,psi_staircase_training,cRDM,,0.1533088738836659,0.1608834185373759,0.1147452915030432,256.83326370001305,210,21,male,True
34,0.18,25,down,down,0.5403648000210524,0.4783099641356374,,psi_staircase_training,cRDM,,0.1374714623748278,0.1451964942842611,0.117024993427699,257.9998862000648,210,21,male,True
35,0.16,25,down,down,0.4002454000292346,1.409446122056478,,psi_staircase_training,cRDM,,0.1235084939531084,0.1312501447469713,0.1172767496487679,260.23315059999004,210,21,male,True
36,0.13,25,up,up,0.7414866000181064,1.7644631264686064,,psi_staircase_training,cRDM,,0.1110023859076282,0.118670920211633,0.1161691222828988,262.69973820005544,210,21,male,True
37,0.12,25,up,down,0.3838595999404788,1.27804110701881,,psi_staircase_training,cRDM,,0.0993215339274039,0.1068870608191187,0.1146086831950661,264.9996570000658,210,21,male,True
38,0.19,25,down,up,0.2838296999689191,1.0142517570722858,,psi_staircase_training,cRDM,,0.1361934567573107,0.1444155537385843,0.1245549347207865,266.71625499997754,210,21,male,True
39,0.2,25,down,down,0.4517348000081256,1.47685169108335,,psi_staircase_training,cRDM,,0.1780302916793741,0.1865644030565981,0.1292815796153994,268.8995014000684,210,21,male,True
40,0.2,25,up,up,0.5364630999974906,1.890661069659982,,psi_staircase_training,cRDM,,0.1652190428362556,0.174058939297496,0.1339138578851648,271.5327335000038,210,21,male,True
41,0.19,25,up,down,0.3671785000478849,1.240611491459094,,psi_staircase_training,cRDM,,0.1537433083964162,0.1627720107527316,0.1367740413626314,273.5659899000311,210,21,male,True
42,0.23,25,up,up,0.3004961999831721,1.8939352851303657,,psi_staircase_training,cRDM,,0.189380126200012,0.1979210847087675,0.1293853054681683,276.1492289999733,210,21,male,True
43,0.23,25,up,down,0.3671391999814659,1.446862486908034,,psi_staircase_training,cRDM,,0.1799640151781451,0.1884775424836322,0.1289697555494316,278.28251170006115,210,21,male,True
44,0.27,25,down,up,0.6521464999532327,1.5233739092552725,,psi_staircase_training,cRDM,,0.2137892931743677,0.2226812793795583,0.1347029552008636,280.4990741000511,210,21,male,True
45,0.33,25,down,down,0.5572518999688327,1.3178623590751355,,psi_staircase_training,cRDM,,0.2534539207435577,0.2633075187075874,0.1492702231523037,282.7489996000659,210,21,male,True
46,0.32,25,down,down,0.416824399959296,1.0042692631823384,,psi_staircase_training,cRDM,,0.2426707756633477,0.2524383521666202,0.147967100913099,284.58229270007,210,21,male,True
47,0.31,25,up,up,0.4777325999457389,1.5385033914644035,,psi_staircase_training,cRDM,,0.2332964760660029,0.2429430658190657,0.1461342963610754,286.8155178000452,210,21,male,True
48,0.26,25,up,down,1.1000606999732554,0.5767048301626856,,psi_staircase_training,cRDM,,0.2250833688869972,0.2345901779417859,0.1440167859755365,288.1321290000342,210,21,male,True
49,0.32,25,down,up,0.4781564000295475,0.8643486492601691,,psi_staircase_training,cRDM,,0.2577422268385039,0.267008722921389,0.1403763318923284,290.38206930004526,210,21,male,True
50,0.37,25,down,down,0.4411879000253975,1.5434619895482362,,psi_staircase_training,cRDM,,0.2950970639718842,0.3053542990491714,0.1553848426231249,292.6820005000336,210,21,male,True
51,0.36,25,up,up,0.4496084999991581,0.5378240492351316,,psi_staircase_training,cRDM,,0.2852501241997144,0.2954640537239412,0.154728815292534,293.9485776000656,210,21,male,True
52,0.35,25,up,up,0.5136104000266641,0.4304649549756274,,psi_staircase_training,cRDM,,0.2763474838327802,0.2864822732550638,0.1535299374084878,295.09860390005633,210,21,male,True
53,100.0,25,M,up,0.6316857999190688,1.3869593040420405,,psi_staircase_training,emotion,,100.0,100.0,25.00050000000001,304.081501299981,210,21,male,True
54,55.0,25,M,down,0.4540834999643266,1.5296674686138203,,psi_staircase_training,emotion,,54.7428094675419,54.7428094675419,25.00050000000011,306.5981147000566,210,21,male,True
55,79.0,25,F,down,0.6166275999275967,1.860984073495456,,psi_staircase_training,emotion,,79.636070985635,79.636070985635,25.713269254886413,309.2646706000669,210,21,male,True
56,103.0,25,F,down,0.4493275000713765,1.2364097412157848,,psi_staircase_training,emotion,,97.61123893914808,97.61123893914808,26.1463337262867,311.46486770000774,210,21,male,True
57,127.0,25,M,down,0.6593674999894574,0.3808132542209408,,psi_staircase_training,emotion,,117.15641007867752,117.15641007867752,31.432291447829705,312.66481790004764,210,21,male,True
58,148.0,25,F,up,0.3835531000513583,1.5773279015511,,psi_staircase_training,emotion,,137.43317204546625,137.43317204546625,34.340881921268554,315.2811326000374,210,21,male,True
59,132.0,25,M,up,0.4228239998919889,1.805439755966907,,psi_staircase_training,emotion,,125.26880931386356,125.26880931386356,34.38193433170599,317.8643872999819,210,21,male,True
60,122.0,25,M,up,0.4545904999831691,1.3651312380242329,,psi_staircase_training,emotion,,116.61367826218076,116.61367826218076,33.75872751210514,320.0476165000582,210,21,male,True
61,96.0,25,F,up,0.3667929000221193,1.108913028779798,,psi_staircase_training,emotion,,109.76167858007268,109.76167858007268,33.329509437450305,321.96424340002704,210,21,male,True
62,85.0,25,F,up,0.4964216999942437,1.1370282649376915,,psi_staircase_training,emotion,,100.93436968613936,100.93436968613936,35.19521261871789,323.88076400000136,210,21,male,True
63,75.0,25,F,up,0.3335175999673083,0.8140918617952864,,psi_staircase_training,emotion,,92.47695896725972,92.47695896725972,37.11265368799633,325.5474038000684,210,21,male,True
64,68.0,25,F,down,0.5191645000595599,1.1814125868246768,,psi_staircase_training,emotion,,84.26894526509312,84.26894526509312,38.87653395855404,327.5140049000038,210,21,male,True
65,71.0,25,F,down,0.5380720999091864,1.897426424962796,,psi_staircase_training,emotion,,88.3064673868976,88.3064673868976,38.178336314654665,330.26416849996895,210,21,male,True
66,101.0,25,F,down,0.5130158000392839,0.4161727543781196,,psi_staircase_training,emotion,,91.65623179561612,91.65623179561612,37.536628917484784,331.5471883000573,210,21,male,True
67,115.0,25,M,down,0.4238081000512466,1.505339524506804,,psi_staircase_training,emotion,,96.86245330103831,96.86245330103831,38.12011745023987,333.9304370000027,210,21,male,True
68,121.0,25,M,down,0.4001722000539303,1.5058610346681989,,psi_staircase_training,emotion,,102.3956637011521,102.3956637011521,39.26563224345233,336.2303545000032,210,21,male,True
69,126.0,25,M,down,0.4168365000514313,1.225892437600024,,psi_staircase_training,emotion,,107.6611009007864,107.6611009007864,40.31530299647567,338.213615900022,210,21,male,True
70,131.0,25,M,down,0.3335855999030173,0.7251987106630658,,psi_staircase_training,emotion,,112.68265516476374,112.68265516476374,41.24830519493841,339.7302436999744,210,21,male,True
71,134.0,25,F,down,0.3168095999862999,1.4390151847459045,,psi_staircase_training,emotion,,117.52611132178266,117.52611132178266,42.0866190469885,341.94683550007176,210,21,male,True
72,138.0,25,M,up,0.3334850999526679,0.9558389481997434,,psi_staircase_training,emotion,,122.0854261446935,122.0854261446935,42.77143606453522,343.6800985999871,210,21,male,True
73,136.0,25,M,up,0.3501424000132829,1.6833878690718749,,psi_staircase_training,emotion,,119.61430697374756,119.61430697374756,42.43215508211694,346.14667340007145,210,21,male,True
74,134.0,25,F,up,0.3002309000585228,0.3744951507622838,,psi_staircase_training,emotion,,117.3656039187426,117.3656039187426,42.1080835351928,347.27995240001474,210,21,male,True
75,132.0,25,M,up,0.4168873999733478,1.4106557076010462,,psi_staircase_training,emotion,,115.29204862328864,115.29204862328864,41.80093602607602,349.4631486000726,210,21,male,True
76,129.0,25,F,up,0.3835121999727562,1.5835381127870745,,psi_staircase_training,emotion,,113.35919350587692,113.35919350587692,41.51273637722532,351.82975719997194,210,21,male,True
77,91.0,25,F,up,0.2668688999256119,0.5886523740315118,,psi_staircase_training,emotion,,111.4999847717437,111.4999847717437,41.25509201333415,353.1964214000618,210,21,male,True
78,89.0,25,M,up,0.2665770000312477,0.3836139126872781,,psi_staircase_training,emotion,,108.04328177258716,108.04328177258716,41.96445334283541,354.3632758000167,210,21,male,True
79,86.0,25,M,up,0.300261199939996,0.812975372861642,,psi_staircase_training,emotion,,104.77308640032204,104.77308640032204,42.55694901967772,355.962920299964,210,21,male,True
80,84.0,25,F,down,0.4166024000151083,0.7217597755237884,,psi_staircase_training,emotion,,101.61135984947832,101.61135984947832,43.09714319928777,357.4631574000232,210,21,male,True
81,85.0,25,M,up,0.3334835999412462,0.8328214672895524,,psi_staircase_training,emotion,,103.21126936314356,103.21126936314356,42.84829140773016,359.06286359997466,210,21,male,True
82,83.0,25,F,down,0.3335811999859288,1.02391007297423,,psi_staircase_training,emotion,,100.30180792790549,100.30180792790549,43.31959913672671,360.846097300062,210,21,male,True
83,0.29,25,up,up,0.5094842999242246,0.708440894823594,,psi_staircase,cRDM,,0.25,0.2569312402994632,0.105,398.394719199976,210,21,male,True
84,0.25,25,up,down,0.3838828000007197,1.727752417924478,,psi_staircase,cRDM,,0.2191026665318312,0.2260132002683492,0.1046863203387393,400.89463260001503,210,21,male,True
85,0.36,25,down,down,0.4436270999722183,1.724553716380259,,psi_staircase,cRDM,,0.3202997408361979,0.3276103223604739,0.1107465658214764,403.294544500066,210,21,male,True
86,0.33,25,down,down,0.4169063000008464,1.4653086284322434,,psi_staircase,cRDM,,0.2990372097977385,0.3064139828071687,0.1117492876491608,405.4610595999984,210,21,male,True
87,0.31,25,up,down,0.3338205000618472,0.6052807124045966,,psi_staircase,cRDM,,0.2780189805609542,0.2853981109641391,0.1117849993448387,406.744422400021,210,21,male,True
88,0.38,25,down,down,0.4167594000464305,1.7300151375257973,,psi_staircase,cRDM,,0.3480112713744075,0.3555759797870763,0.1145962842165103,409.1610113000497,210,21,male,True
89,0.37,25,up,up,0.4002539999783039,1.4971959774275116,,psi_staircase,cRDM,,0.3327511290223292,0.3403144375400541,0.1145750774825414,411.3442444000393,210,21,male,True
90,0.36,25,down,down,0.3507663999916985,1.585546830599991,,psi_staircase,cRDM,,0.3187137376408175,0.3261727210936386,0.1129946775336678,413.6108380999649,210,21,male,True
91,0.35,25,down,down,0.4691356000257656,1.9089616959695777,,psi_staircase,cRDM,,0.3059697564844054,0.3132667732807009,0.1105410764174995,416.19405160006136,210,21,male,True
92,0.34,25,up,down,0.300577100017108,0.5345642249692252,,psi_staircase,cRDM,,0.2943179689559817,0.3014448684310647,0.1079640024804308,417.4606802000199,210,21,male,True
93,0.38,25,down,down,0.4295353998895734,0.971926784885679,,psi_staircase,cRDM,,0.341527940330086,0.3492052806602582,0.1163025230463439,419.1106103999773,210,21,male,True
94,0.38,25,down,down,0.4492484999354929,0.871737547182998,,psi_staircase,cRDM,,0.3316890337600638,0.339126360432647,0.1126666032169888,420.69392950006295,210,21,male,True
95,0.38,25,down,down,0.4906938000349328,0.4538539163237612,,psi_staircase,cRDM,,0.3234955629019517,0.3306265609061908,0.1080260902948485,421.8605194999837,210,21,male,True
96,0.38,25,up,up,0.4167498999740928,1.1258415032476226,,psi_staircase,cRDM,,0.3168864997504408,0.3236737354060921,0.1028185018918731,423.743797800038,210,21,male,True
97,0.32,25,up,up,0.6200971000362188,1.4522609209472173,,psi_staircase,cRDM,,0.3117136647407687,0.3181419489480405,0.0973808167949108,425.8770797000034,210,21,male,True
98,0.32,25,down,down,0.4250235999934375,1.7036168570095884,,psi_staircase,cRDM,,0.2987093348080693,0.305858125463845,0.1082956276836296,428.4601963000605,210,21,male,True
99,0.32,25,down,down,0.3338924000272527,0.7551242092486162,,psi_staircase,cRDM,,0.2853487488461728,0.2930925449601346,0.1173092486822238,429.9102276000194,210,21,male,True
100,0.31,25,up,up,0.5446526000741869,0.5555393283947927,,psi_staircase,cRDM,,0.2724145428466008,0.2806057774784816,0.124087407042298,431.1435144999996,210,21,male,True
101,0.3,25,up,up,0.518001800053753,0.472557846567783,,psi_staircase,cRDM,,0.2594874873560125,0.2680781700588422,0.1301385675327068,432.4101482999977,210,21,male,True
102,0.29,25,up,up,0.5734189000213519,1.591408402109984,,psi_staircase,cRDM,,0.2468545670473493,0.255780986875673,0.1352245834048725,434.77674420003314,210,21,male,True
103,0.29,25,up,up,0.4969113999977708,1.3272456161644413,,psi_staircase,cRDM,,0.234708381994877,0.2438998405746922,0.1392396034740472,436.9432758999756,210,21,male,True
104,0.29,25,down,down,0.4179056999273598,0.5385088942812374,,psi_staircase,cRDM,,0.2237235645134755,0.2330731221871592,0.1416346156419956,438.2432526999619,210,21,male,True
105,0.24,25,down,down,0.4940597000531852,0.5126709968568065,,psi_staircase,cRDM,,0.2139164578749857,0.223340319122486,0.142760225909951,439.4431868999964,210,21,male,True
106,0.23,25,down,up,0.6747776999836788,1.2159265207657106,,psi_staircase,cRDM,,0.20180704169766,0.2115052079488066,0.146915618615797,441.42647740000393,210,21,male,True
107,0.3,25,up,up,0.4417659000027925,0.5029830213964148,,psi_staircase,cRDM,,0.2380107647591648,0.2470727528107244,0.1372782798321744,442.87644560006447,210,21,male,True
108,0.29,25,up,up,0.4422878000186756,1.866637500640748,,psi_staircase,cRDM,,0.2306064571943731,0.2396452256539299,0.1369265307865543,445.4599232999608,210,21,male,True
109,0.24,25,down,down,0.4305374000687152,0.3075829891325732,,psi_staircase,cRDM,,0.2235744261933309,0.2325793204033514,0.136413376423462,446.4596110000275,210,21,male,True
110,0.23,25,down,down,0.7463058999273926,0.744797301065975,,psi_staircase,cRDM,,0.2135095613930956,0.2229008602046146,0.1422669439531409,447.89289829996414,210,21,male,True
111,0.23,25,up,up,0.3839980000630021,0.8161737666193649,,psi_staircase,cRDM,,0.2034441983134336,0.2131737595830133,0.147391215593113,449.7094989999896,210,21,male,True
112,0.23,25,up,up,0.5290434999624267,0.9332356812370972,,psi_staircase,cRDM,,0.1937959543860547,0.203785750325469,0.1513334595714016,451.32611150003504,210,21,male,True
113,0.22,25,down,down,0.4184402999235317,1.0669641829534893,,psi_staircase,cRDM,,0.1846545711459027,0.1948392920187315,0.1542863391606607,453.19270829996094,210,21,male,True
114,0.21,25,up,up,0.3671787000494078,1.1832428996502382,,psi_staircase,cRDM,,0.1756827810345277,0.1860311569263444,0.1567655169486605,455.05933690001257,210,21,male,True
115,0.19,25,down,down,0.4462635000236332,1.739049288625398,,psi_staircase,cRDM,,0.1668805578475451,0.1773645668114304,0.1588201957582109,457.4759026999818,210,21,male,True
116,0.18,25,up,up,0.4223650000058114,1.3297363391058412,,psi_staircase,cRDM,,0.1579406794471714,0.1685512325638646,0.1607371883123224,459.525790899992,210,21,male,True
117,0.17,25,down,down,0.5193925000494346,0.3027294090356953,,psi_staircase,cRDM,,0.1491594150009868,0.1598736860790044,0.1623083913681313,460.52576540003065,210,21,male,True
118,0.16,25,up,up,0.3339039999991655,0.9026677558199026,,psi_staircase,cRDM,,0.1405525163328486,0.1513485291667245,0.1635466811971229,462.2256922000088,210,21,male,True
119,0.15,25,down,up,0.4662834999617189,0.3071270486286482,,psi_staircase,cRDM,,0.1321419789547119,0.142997090023216,0.1644419487636564,463.2090068999678,210,21,male,True
120,0.19,25,up,up,0.5756123999599367,1.5817389148888812,,psi_staircase,cRDM,,0.1571573668354159,0.1679064776702907,0.1628361720122819,465.52556980005465,210,21,male,True
121,0.19,25,up,up,0.534686499973759,1.754173525553342,,psi_staircase,cRDM,,0.1498301354935089,0.1606622734034369,0.1640939328896895,468.1254809000529,210,21,male,True
122,0.19,25,down,down,0.4228025999618694,1.9412385073237493,,psi_staircase,cRDM,,0.1429098898065332,0.153800895781668,0.1649857136647976,470.87538690003566,210,21,male,True
123,0.19,25,down,up,0.6668111999752,0.323531388509863,,psi_staircase,cRDM,,0.136401319690591,0.1473286461754167,0.1655359259432316,471.8753788999748,210,21,male,True
124,0.18,25,down,down,0.6258382999803871,0.473675156412744,,psi_staircase,cRDM,,0.159650962788593,0.1705211786529456,0.1646707683537393,473.2753262000624,210,21,male,True
125,0.17,25,up,up,0.4167709000175819,1.9430990514951585,,psi_staircase,cRDM,,0.15277616888152,0.1637582078962301,0.1663647553286901,476.1085282000713,210,21,male,True
126,0.17,25,up,down,0.3504503999138251,1.8049208369511447,,psi_staircase,cRDM,,0.1459591886461017,0.1570545473358951,0.1680814128632252,478.5917885999661,210,21,male,True
127,0.2,25,down,up,0.7342160000698641,1.4508206658792908,,psi_staircase,cRDM,,0.1662615506477325,0.1770558641442782,0.1635209382691678,480.7250055000186,210,21,male,True
128,0.22,25,down,down,0.4003695000428706,1.8477624214322104,,psi_staircase,cRDM,,0.1861480482644135,0.1966819846801892,0.1595765369355468,483.5581908000168,210,21,male,True
129,0.2,25,down,up,0.5850522000109777,0.8115192045907258,,psi_staircase,cRDM,,0.1804986131340067,0.1911078033582889,0.1607165421224685,485.0581809000578,210,21,male,True
130,0.24,25,up,up,0.6693298999452963,0.9609131938070784,,psi_staircase,cRDM,,0.1983454453045567,0.2086542963176927,0.1561667623128143,486.87482679996174,210,21,male,True
131,0.24,25,up,down,0.9827897000359372,1.2774070873690244,,psi_staircase,cRDM,,0.1933503276113889,0.2037027068515435,0.1568261628875288,489.09138070000336,210,21,male,True
132,0.24,25,up,up,0.6372394000645727,1.5826025355321298,,psi_staircase,cRDM,,0.2109949202945536,0.2212293666591218,0.1550396208832755,491.90795100003015,210,21,male,True
133,100.0,25,M,up,0.7397591000190005,1.8330809422951455,,psi_staircase,emotion,,100.0,100.0,25.00050000000001,498.12439730006736,210,21,male,True
134,55.0,25,M,down,0.4761611999711022,0.3840653852214296,,psi_staircase,emotion,,54.7428094675419,54.7428094675419,25.00050000000011,499.5910091999685,210,21,male,True
135,79.0,25,F,down,0.5981929999543354,0.586804166081996,,psi_staircase,emotion,,79.636070985635,79.636070985635,25.713269254886413,500.9909610999748,210,21,male,True
136,103.0,25,F,up,0.5566211999394,1.1175184403881364,,psi_staircase,emotion,,97.61123893914808,97.61123893914808,26.1463337262867,503.057555800071,210,21,male,True
137,87.0,25,M,down,0.4640333000570535,0.7607887818772692,,psi_staircase,emotion,,85.98876744579668,85.98876744579668,23.003056417783498,504.72414820001,210,21,male,True
138,95.0,25,F,down,0.6141395999584347,1.4905294341574942,,psi_staircase,emotion,,95.05640406123077,95.05640406123077,22.150603223582728,507.0240693000378,210,21,male,True
139,108.0,25,M,down,0.7359566999366507,1.7551296094696236,,psi_staircase,emotion,,102.67895770092096,102.67895770092096,23.933073614491192,509.75719510007184,210,21,male,True
140,126.0,25,F,up,0.5785523999948055,0.4552271702607311,,psi_staircase,emotion,,113.52218870526065,113.52218870526065,31.611106717665084,511.2905546000693,210,21,male,True
141,122.0,25,F,up,0.6160157000413164,0.3795389364717893,,psi_staircase,emotion,,107.37737850761332,107.37737850761332,29.23899594163205,512.6071641000453,210,21,male,True
142,120.0,25,M,up,0.687086799996905,1.357087509753722,,psi_staircase,emotion,,103.399560746868,103.399560746868,27.102653483724943,514.9570723000215,210,21,male,True
143,85.0,25,F,down,0.6288039999781176,0.4924413503461321,,psi_staircase,emotion,,100.68299433852276,100.68299433852276,25.22442575292765,516.4903849000111,210,21,male,True
144,119.0,25,F,up,0.3669160000281408,0.8653372240656556,,psi_staircase,emotion,,102.90796399394476,102.90796399394476,23.38137491483795,518.3403001000406,210,21,male,True
145,86.0,25,F,down,0.4432986000319943,0.841758319693988,,psi_staircase,emotion,,101.03048750272734,101.03048750272734,21.49534648996879,519.9569371000398,210,21,male,True
146,116.0,25,M,up,0.6839529999997467,0.8916840369603058,,psi_staircase,emotion,,102.56848107266026,102.56848107266026,19.69985422242832,521.6902012999635,210,21,male,True
147,88.0,25,M,down,0.3668149000732228,1.179754088416225,,psi_staircase,emotion,,101.12966445670249,101.12966445670249,17.94103701303449,523.9067741000326,210,21,male,True
148,113.0,25,F,up,0.4407496999483555,1.2534616237381326,,psi_staircase,emotion,,102.2583733482534,102.2583733482534,16.32489012690738,525.9233649000525,210,21,male,True
149,91.0,25,F,down,0.4711922999704256,0.6686966621071553,,psi_staircase,emotion,,101.09470516250818,101.09470516250818,14.803082749590054,527.3899617000716,210,21,male,True
150,101.0,25,M,down,0.3668210000032559,1.55013627957983,,psi_staircase,emotion,,102.01380355520357,102.01380355520357,13.440054466474642,529.7732076999964,210,21,male,True
151,115.0,25,M,down,0.3335282999323681,0.9538119647688204,,psi_staircase,emotion,,103.87694352856364,103.87694352856364,13.796165182456072,531.5064803999849,210,21,male,True
152,125.0,25,M,up,0.3501677999738604,1.407463609476857,,psi_staircase,emotion,,107.1602738263767,107.1602738263767,19.10737179194585,533.6897230000468,210,21,male,True
153,123.0,25,M,up,0.4001105999341234,0.7780599953958702,,psi_staircase,emotion,,106.3189925601264,106.3189925601264,17.67140176653093,535.2563579999842,210,21,male,True
154,90.0,25,F,up,0.3669233999680727,1.984128843191468,,psi_staircase,emotion,,105.66041463668874,105.66041463668874,16.446607880081707,538.0395636999747,210,21,male,True
155,82.0,25,F,down,0.4168022000230849,1.5398717535209656,,psi_staircase,emotion,,102.84109933675624,102.84109933675624,21.80195919334276,540.372843899997,210,21,male,True
156,124.0,25,F,down,0.458439499954693,1.7198163661275572,,psi_staircase,emotion,,103.4829326554422,103.4829326554422,20.63565481818476,542.872730400064,210,21,male,True
157,132.0,25,M,up,0.54489190003369,1.5440865094905944,,psi_staircase,emotion,,106.54035455518152,106.54035455518152,26.465612696801408,545.2393005000195,210,21,male,True
158,131.0,25,M,up,0.7812299999641255,1.9672346851693765,,psi_staircase,emotion,,105.81935334080748,105.81935334080748,25.344882790799087,548.1058964000549,210,21,male,True
159,81.0,25,F,down,0.6920414000051096,0.4079287052004966,,psi_staircase,emotion,,105.21711710708676,105.21711710708676,24.310647220112426,549.6891331999796,210,21,male,True
160,130.0,25,F,down,0.7621305999346077,0.791779043791994,,psi_staircase,emotion,,105.79539477412337,105.79539477412337,23.30551550778647,551.5390602999832,210,21,male,True
161,137.0,25,M,up,0.799210499972105,1.962544447738377,,psi_staircase,emotion,,108.63996317573074,108.63996317573074,28.584732408472235,554.6389681999572,210,21,male,True
162,137.0,25,M,up,0.4001881000585854,1.4237742825273645,,psi_staircase,emotion,,108.01375439071032,108.01375439071032,27.65024779074397,557.2055238999892,210,21,male,True
163,80.0,25,F,down,0.5440128999762237,1.3881404544688467,,psi_staircase,emotion,,107.490287776703,107.490287776703,26.78280353790653,559.3721375999739,210,21,male,True
164,135.0,25,M,up,0.4001856000395491,1.1717467236540362,,psi_staircase,emotion,,108.02101400422347,108.02101400422347,25.913201399273994,561.4720695000142,210,21,male,True
165,81.0,25,F,down,0.6152515999274328,1.981657533135453,,psi_staircase,emotion,,107.54387161388053,107.54387161388053,25.08591278672973,564.221943099983,210,21,male,True
166,134.0,25,M,up,0.5682945000007749,1.9746416354384528,,psi_staircase,emotion,,108.01114776077884,108.01114776077884,24.27897242034756,567.1718390999595,210,21,male,True
167,83.0,25,F,down,0.6317550999810919,0.4431065394562375,,psi_staircase,emotion,,107.59147716187928,107.59147716187928,23.522354891977177,568.5384557000361,210,21,male,True
168,84.0,25,M,up,0.4674631999805569,1.9066234169778256,,psi_staircase,emotion,,108.02663612532754,108.02663612532754,22.777977506203992,571.421683600056,210,21,male,True
169,77.0,25,F,down,0.7508669999660924,0.3255237299875989,,psi_staircase,emotion,,105.80598049279978,105.80598049279978,26.678442482870786,572.5882903999882,210,21,male,True
170,134.0,25,M,up,0.7766220000339672,1.1447003373833524,,psi_staircase,emotion,,106.21560962376462,106.21560962376462,25.96829616991292,574.8215615999652,210,21,male,True
171,78.0,25,M,down,0.6370183998951688,1.340594867910669,,psi_staircase,emotion,,105.8077469541095,105.8077469541095,25.27064825886437,577.288112499984,210,21,male,True
172,133.0,25,F,up,0.6311728999717161,1.79904100652038,,psi_staircase,emotion,,106.17865823041664,106.17865823041664,24.61453156309985,580.0879991999827,210,21,male,True
173,80.0,25,F,down,0.4922267999500036,1.1099359009286187,,psi_staircase,emotion,,105.80841470643078,105.80841470643078,23.976164669364756,582.1879382999614,210,21,male,True
174,132.0,25,F,up,0.6689592000329867,1.4491326712091397,,psi_staircase,emotion,,106.16472698635305,106.16472698635305,23.369016988695435,584.4711885000579,210,21,male,True
175,81.0,25,M,down,0.7753569000633433,0.3404682082132271,,psi_staircase,emotion,,105.82522111877203,105.82522111877203,22.79186561434435,585.8377867999952,210,21,male,True
176,130.0,25,M,up,0.7305197999812663,1.5738583828561807,,psi_staircase,emotion,,106.15432695521442,106.15432695521442,22.24527922025341,588.554660600028,210,21,male,True
177,82.0,25,F,up,0.6199236999964342,1.1708125344049818,,psi_staircase,emotion,,105.82173894314386,105.82173894314386,21.7186486934548,590.8042977000587,210,21,male,True
178,76.0,25,F,up,1.057639200007543,1.8394967935106892,,psi_staircase,emotion,,103.97042548500752,103.97042548500752,24.66570017830399,593.637505199993,210,21,male,True
179,71.0,25,F,down,0.8257659999653697,1.585298136366455,,psi_staircase,emotion,,102.01575986075107,102.01575986075107,28.116668001909897,596.6374215000542,210,21,male,True
180,71.0,25,M,down,0.6568393999477848,1.6846325545119898,,psi_staircase,emotion,,102.35839112865932,102.35839112865932,27.53377943021668,599.487304200069,210,21,male,True
181,133.0,25,M,up,0.7846645000390708,1.9234673744083144,,psi_staircase,emotion,,102.66321734114196,102.66321734114196,26.98911900830004,602.4205285999924,210,21,male,True
182,72.0,25,M,down,0.8020555999828503,1.1511196807838722,,psi_staircase,emotion,,102.352953563938,102.352953563938,26.45407153705932,604.7370906000724,210,21,male,True
183,0.2060087328867073,25,down,down,0.6351270999293774,1.6325465109455612,,experiment,cRDM,0.0,,,,615.670002900064,210,21,male,True
184,0.2060087328867073,25,up,up,0.5065185999264941,1.5153673758481654,,experiment,cRDM,0.0,,,,618.0866197999567,210,21,male,True
185,0.2060087328867073,25,down,down,0.4167177999624982,1.3581701598671172,,experiment,cRDM,0.0,,,,620.2198570000473,210,21,male,True
186,0.2060087328867073,25,up,up,0.4664264000020921,1.327795233341041,,experiment,cRDM,0.0,,,,622.2367229000665,210,21,male,True
187,0.2060087328867073,25,down,down,0.4743203000398353,0.6131647331685828,,experiment,cRDM,0.0,,,,623.5698090000078,210,21,male,True
188,0.2060087328867073,25,down,down,0.5951594000216573,1.2996360912736045,,experiment,cRDM,0.0,,,,625.6030082000652,210,21,male,True
189,0.2060087328867073,25,up,up,0.3838142999447882,1.8296414877424845,,experiment,cRDM,0.0,,,,628.286257800064,210,21,male,True
190,0.2060087328867073,25,down,down,0.4883051000069827,0.7723619564492625,,experiment,cRDM,0.0,,,,629.7528522000648,210,21,male,True
191,0.2060087328867073,25,up,up,0.4005705999443307,0.9408168077947974,,experiment,cRDM,0.0,,,,631.4361000000499,210,21,male,True
192,0.2060087328867073,25,up,up,0.4913451999891549,0.7938507074463352,,experiment,cRDM,0.0,,,,632.9027686000336,210,21,male,True
193,0.2060087328867073,25,down,down,0.4241772999521345,1.4323961467648674,,experiment,cRDM,0.0,,,,635.0859888000414,210,21,male,True
194,0.2060087328867073,25,up,up,0.2504723001038655,1.0740361196041062,,experiment,cRDM,0.0,,,,636.8692350999918,210,21,male,True
195,0.2060087328867073,25,up,down,0.3171352000208571,0.9079590760177902,,experiment,cRDM,0.0,,,,638.452552300063,210,21,male,True
196,0.2060087328867073,25,up,up,0.6260283999145031,1.1389829544158383,,experiment,cRDM,0.0,,,,640.2691382999765,210,21,male,True
197,0.2060087328867073,25,down,down,0.4495303999865427,1.4773995227033023,,experiment,cRDM,0.0,,,,642.6356736000162,210,21,male,True
198,0.2060087328867073,25,down,down,0.5371708000311628,1.6764099616298878,,experiment,cRDM,0.0,,,,645.0189567999914,210,21,male,True
199,0.2060087328867073,25,up,up,0.5545458999695256,1.1781254685155904,,experiment,cRDM,0.0,,,,646.985564099974,210,21,male,True
200,0.2060087328867073,25,up,up,0.6636371000204235,1.1949844471773212,,experiment,cRDM,0.0,,,,648.9854967000429,210,21,male,True
201,0.2060087328867073,25,down,down,0.5554221000056714,1.8091497108696164,,experiment,cRDM,0.0,,,,651.718706500018,210,21,male,True
202,0.2060087328867073,25,down,down,0.4371147999772802,0.9610303767256858,,experiment,cRDM,0.0,,,,653.5019775000401,210,21,male,True
203,0.2060087328867073,25,up,down,0.4211019000504166,0.8705509678269434,,experiment,cRDM,0.0,,,,655.0519805999938,210,21,male,True
204,0.2060087328867073,25,down,up,0.4002445000223815,0.9381754290162608,,experiment,cRDM,0.0,,,,656.6852009000722,210,21,male,True
205,0.2060087328867073,25,up,up,0.4350267000263557,1.1842421312507434,,experiment,cRDM,0.0,,,,658.5351360000204,210,21,male,True
206,0.2060087328867073,25,down,down,0.4561612999532372,1.7110168617867438,,experiment,cRDM,0.0,,,,660.9350359999808,210,21,male,True
207,0.2060087328867073,25,down,down,0.8016335000284016,1.7075498739537007,,experiment,cRDM,0.0,,,,663.3515193000203,210,21,male,True
208,0.2060087328867073,25,up,up,0.4679524999810383,0.3022935659818267,,experiment,cRDM,0.0,,,,664.7182327000191,210,21,male,True
209,0.2060087328867073,25,up,up,0.4403924000216648,0.668294950616378,,experiment,cRDM,0.0,,,,666.1348145999946,210,21,male,True
210,0.2060087328867073,25,down,down,0.4677079999819398,0.980398402171598,,experiment,cRDM,0.0,,,,667.8014491000213,210,21,male,True
211,0.2060087328867073,25,up,up,0.4168819000478834,1.4138709407740115,,experiment,cRDM,0.0,,,,669.9346769000404,210,21,male,True
212,0.2060087328867073,25,down,up,0.3671826999634504,1.1471786253874292,,experiment,cRDM,0.0,,,,671.7512716000201,210,21,male,True
213,0.2060087328867073,25,up,down,0.3171557999448851,1.8483158677304157,,experiment,cRDM,0.0,,,,674.284532199963,210,21,male,True
214,0.2060087328867073,25,down,up,0.3504859000677243,0.4551481821934773,,experiment,cRDM,0.0,,,,675.4178564000176,210,21,male,True
215,0.2060087328867073,25,up,up,0.4002076999749988,0.3667077301496028,,experiment,cRDM,0.0,,,,676.4678185000084,210,21,male,True
216,0.2060087328867073,25,down,down,0.4780641000252217,1.7984693950975337,,experiment,cRDM,0.0,,,,678.9510648000287,210,21,male,True
217,0.2060087328867073,25,up,up,0.4584545000689104,0.7340006332538561,,experiment,cRDM,0.0,,,,680.417673900025,210,21,male,True
218,0.2060087328867073,25,down,down,0.4889101000735536,0.8849468346947122,,experiment,cRDM,0.0,,,,682.0342468000017,210,21,male,True
219,0.2060087328867073,25,up,up,0.3838247000239789,1.380403339046368,,experiment,cRDM,0.0,,,,684.1675260000629,210,21,male,True
220,0.2060087328867073,25,down,down,0.4486412000842392,0.6342711014239144,,experiment,cRDM,0.0,,,,685.4675105999922,210,21,male,True
221,0.2060087328867073,25,up,up,0.6107050999999046,0.6942510788373284,,experiment,cRDM,0.0,,,,686.8674457999878,210,21,male,True
222,0.2060087328867073,25,down,down,0.3338034000480547,0.6509100367220658,,experiment,cRDM,0.0,,,,688.3840365000069,210,21,male,True
223,0.2060087328867073,25,down,down,0.6315420999890193,1.7161222729869132,,experiment,cRDM,0.0,,,,690.8005858999677,210,21,male,True
224,0.2060087328867073,25,up,up,0.4519346000161022,0.7790232589885853,,experiment,cRDM,0.0,,,,692.4671959000407,210,21,male,True
225,0.2060087328867073,25,down,down,0.5183283000951633,1.6920343249442698,,experiment,cRDM,0.0,,,,694.8837759000016,210,21,male,True
226,0.2060087328867073,25,up,up,0.5010380999883637,0.4001854313071316,,experiment,cRDM,0.0,,,,696.0671113000717,210,21,male,True
227,0.2060087328867073,25,up,up,0.6981310999253765,1.6418694342793632,,experiment,cRDM,0.0,,,,698.4670000000624,210,21,male,True
228,0.2060087328867073,25,down,down,0.4595516000408679,1.5704468452109546,,experiment,cRDM,0.0,,,,700.9835572000593,210,21,male,True
229,0.2060087328867073,25,down,up,0.4976884999778121,1.4308480918942597,,experiment,cRDM,0.0,,,,703.1334597000387,210,21,male,True
230,0.2060087328867073,25,up,up,0.4817611000034958,1.34343778980134,,experiment,cRDM,0.0,,,,705.2333847000264,210,21,male,True
231,0.2060087328867073,25,down,down,0.4355449000140652,1.330069119468844,,experiment,cRDM,0.0,,,,707.3166520000668,210,21,male,True
232,0.2060087328867073,25,up,up,0.4766404000110924,1.796939679838837,,experiment,cRDM,0.0,,,,709.8165825000033,210,21,male,True
233,0.2060087328867073,25,up,down,0.4406560999341309,0.9570864963648844,,experiment,cRDM,0.0,,,,711.5164892000612,210,21,male,True
234,0.2060087328867073,25,up,up,0.4411643999628722,0.7266860612507299,,experiment,cRDM,0.0,,,,712.9500448000617,210,21,male,True
235,0.2060087328867073,25,up,up,0.7407580999424681,0.555304127981832,,experiment,cRDM,0.0,,,,714.2164026000537,210,21,male,True
236,0.2060087328867073,25,up,up,0.6917674000142142,0.8373046981483101,,experiment,cRDM,0.0,,,,716.0663633999648,210,21,male,True
237,0.2060087328867073,25,down,down,0.7278425999684259,0.8047622805144545,,experiment,cRDM,0.0,,,,717.8162808000343,210,21,male,True
238,0.2060087328867073,25,down,down,0.8616379000013694,0.9472633200302404,,experiment,cRDM,0.0,,,,719.7495485000545,210,21,male,True
239,0.2060087328867073,25,down,down,0.9800301999785006,1.141531066727544,,experiment,cRDM,0.0,,,,722.0161070000613,210,21,male,True
240,0.2060087328867073,25,up,up,0.5424256999976933,0.5598080676754118,,experiment,cRDM,0.0,,,,723.8327070999658,210,21,male,True
241,0.2060087328867073,25,down,down,0.6481412999564782,0.4188710871168475,,experiment,cRDM,0.0,,,,725.066005700035,210,21,male,True
242,0.2060087328867073,25,down,up,0.7501789999660105,1.7770183884049668,,experiment,cRDM,0.0,,,,727.7659444999881,210,21,male,True
243,0.2060087328867073,25,down,down,0.7683029000181705,1.8754414506464168,,experiment,cRDM,0.0,,,,730.6658251000335,210,21,male,True
244,0.2060087328867073,25,up,up,0.5613887999206781,0.9598869821976206,,experiment,cRDM,0.0,,,,732.6657699999632,210,21,male,True
245,0.2060087328867073,25,down,up,0.7211551000364125,1.7147758563346496,,experiment,cRDM,0.0,,,,735.1989820000017,210,21,male,True
246,0.2060087328867073,25,up,up,0.5469354999950156,1.0430479469832403,,experiment,cRDM,0.0,,,,737.2322184999939,210,21,male,True
247,0.2060087328867073,25,up,up,0.5666479000356048,0.3864255058673619,,experiment,cRDM,0.0,,,,738.4155068000546,210,21,male,True
248,0.2060087328867073,25,down,down,0.5660295999841765,1.597863671762542,,experiment,cRDM,0.0,,,,740.8320781000657,210,21,male,True
249,0.2060087328867073,25,up,up,0.5664828999433666,1.3294532676644155,,experiment,cRDM,0.0,,,,742.9986599000404,210,21,male,True
250,0.2060087328867073,25,down,down,0.4618367999792099,0.8298989956751792,,experiment,cRDM,0.0,,,,744.6652985999826,210,21,male,True
251,0.2060087328867073,25,up,up,0.4339145000558346,0.6720957607067566,,experiment,cRDM,0.0,,,,746.0652394000208,210,21,male,True
252,0.2060087328867073,25,down,down,0.350517800077796,1.5658169835092304,,experiment,cRDM,0.0,,,,748.3151468000142,210,21,male,True
253,0.2060087328867073,25,up,up,0.3838576999260112,1.2275405058930828,,experiment,cRDM,0.0,,,,750.2150428000605,210,21,male,True
254,0.2060087328867073,25,down,down,0.502805900061503,1.8075904997147865,,experiment,cRDM,0.0,,,,752.6983290000353,210,21,male,True
255,0.2060087328867073,25,down,down,0.6440066000213847,1.2312640669012065,,experiment,cRDM,0.0,,,,754.6982507000212,210,21,male,True
256,0.2060087328867073,25,down,down,0.5023319999454543,0.358479478865869,,experiment,cRDM,0.0,,,,755.9648591000587,210,21,male,True
257,0.2060087328867073,25,down,down,0.5456670999992639,1.052080656114062,,experiment,cRDM,0.0,,,,757.7814572000643,210,21,male,True
258,0.2060087328867073,25,down,down,0.2838428999530151,1.7012804902558665,,experiment,cRDM,0.0,,,,760.2813690999756,210,21,male,True
259,0.2060087328867073,25,up,up,0.4167702000122517,1.8130811078554616,,experiment,cRDM,0.0,,,,762.7646341000218,210,21,male,True
260,0.2060087328867073,25,up,up,0.4625538999680429,0.4612225308110148,,experiment,cRDM,0.0,,,,763.9145641999785,210,21,male,True
261,0.2060087328867073,25,up,up,0.4686729999957606,1.465308263062464,,experiment,cRDM,0.0,,,,766.114471900044,210,21,male,True
262,0.2060087328867073,25,up,up,0.3505324999568984,0.5639562032138007,,experiment,cRDM,0.0,,,,767.4144368000561,210,21,male,True
263,112.0,25,M,up,0.9081198999192566,1.408713919941676,,experiment,emotion,0.0,,,,797.6299937999574,210,21,male,True
264,92.0,25,M,down,0.7555625999812037,1.451610291514177,,experiment,emotion,0.0,,,,800.2965618000599,210,21,male,True
265,105.0,25,F,down,0.4249744999688118,0.8353902531109703,,experiment,emotion,0.0,,,,802.163150300039,210,21,male,True
266,112.0,25,F,down,0.6847022000001743,1.9789600537736387,,experiment,emotion,0.0,,,,804.8464003000408,210,21,male,True
267,105.0,25,M,down,0.7395261999918148,1.9716788501053015,,experiment,emotion,0.0,,,,807.7796101999702,210,21,male,True
268,99.0,25,F,down,0.8269447999773547,0.9552236839571692,,experiment,emotion,0.0,,,,809.7962070000358,210,21,male,True
269,92.0,25,M,down,0.7660531000001356,1.5906966450507314,,experiment,emotion,0.0,,,,812.4961055000313,210,21,male,True
270,99.0,25,M,up,0.5724175999639556,0.9258459270577312,,experiment,emotion,0.0,,,,814.462699500029,210,21,male,True
271,112.0,25,F,up,0.6895329999970272,1.0091646353835932,,experiment,emotion,0.0,,,,816.3126181999687,210,21,male,True
272,99.0,25,F,up,0.7775486999889836,0.5432816952366788,,experiment,emotion,0.0,,,,817.8125618000049,210,21,male,True
273,105.0,25,F,up,0.6419187999563292,1.2105340440450594,,experiment,emotion,0.0,,,,820.0791631999891,210,21,male,True
274,112.0,25,F,down,0.7049448000034317,0.3475062780856977,,experiment,emotion,0.0,,,,821.3291434000712,210,21,male,True
275,105.0,25,F,up,0.535416099941358,0.8897303946168467,,experiment,emotion,0.0,,,,823.1957033000654,210,21,male,True
276,92.0,25,F,up,0.4734905998921022,1.427253812444907,,experiment,emotion,0.0,,,,825.4456472999882,210,21,male,True
277,99.0,25,M,up,0.575604600016959,1.3096447781679268,,experiment,emotion,0.0,,,,827.4955517000053,210,21,male,True
278,92.0,25,M,up,0.4002062999643385,1.681121766836008,,experiment,emotion,0.0,,,,830.0121205999749,210,21,male,True
279,112.0,25,M,up,0.7107077999971807,0.597898088454468,,experiment,emotion,0.0,,,,831.2954075000016,210,21,male,True
280,92.0,25,M,down,0.7377948999637738,1.9250652645880904,,experiment,emotion,0.0,,,,834.1953096999787,210,21,male,True
281,105.0,25,F,up,0.8658310000319034,0.8387222752532921,,experiment,emotion,0.0,,,,836.0452576000243,210,21,male,True
282,105.0,25,M,up,0.8679387999000028,0.6543984194358194,,experiment,emotion,0.0,,,,837.8451693999814,210,21,male,True
283,99.0,25,M,up,0.8917590999044478,0.3044204582601684,,experiment,emotion,0.0,,,,839.2784481999697,210,21,male,True
284,99.0,25,F,up,0.956373400054872,0.9183854165128004,,experiment,emotion,0.0,,,,841.3617280999897,210,21,male,True
285,92.0,25,M,down,1.3378611999796703,1.3368968793996985,,experiment,emotion,0.0,,,,843.9282609999646,210,21,male,True
286,112.0,25,F,up,0.891219099983573,1.6987262067636315,,experiment,emotion,0.0,,,,847.2448763999855,210,21,male,True
287,105.0,25,F,up,0.6977109999861568,1.0571420898733963,,experiment,emotion,0.0,,,,849.4614215999609,210,21,male,True
288,92.0,25,M,down,0.6467428999021649,1.123195874129155,,experiment,emotion,0.0,,,,851.5613514999859,210,21,male,True
289,112.0,25,M,up,0.7309031001059338,1.830788811677604,,experiment,emotion,0.0,,,,854.3112302999943,210,21,male,True
290,112.0,25,F,down,0.4722178999800235,0.4788578707660675,,experiment,emotion,0.0,,,,855.7778505999595,210,21,male,True
291,99.0,25,M,up,0.627317399950698,0.653176790182946,,experiment,emotion,0.0,,,,857.1778054999886,210,21,male,True
292,92.0,25,F,down,0.9080702000064776,1.4151017315225254,,experiment,emotion,0.0,,,,859.5110343999695,210,21,male,True
293,99.0,25,F,down,0.8041530000045896,0.3236181890710263,,experiment,emotion,0.0,,,,861.010962100001,210,21,male,True
294,105.0,25,F,up,0.7428814999293536,1.5087498287691528,,experiment,emotion,0.0,,,,863.5942198999692,210,21,male,True
295,92.0,25,M,up,0.4253055999288335,1.442508514911378,,experiment,emotion,0.0,,,,866.0607969000703,210,21,male,True
296,112.0,25,M,up,0.5180183000629768,0.9808924826923162,,experiment,emotion,0.0,,,,867.7440878000343,210,21,male,True
297,105.0,25,M,up,0.7893908999394625,0.7323438024060589,,experiment,emotion,0.0,,,,869.2606823999668,210,21,male,True
298,112.0,25,F,up,0.8261604000581428,0.5701683614837889,,experiment,emotion,0.0,,,,870.8939487000462,210,21,male,True
299,92.0,25,F,down,0.8285670999903232,1.663861196329739,,experiment,emotion,0.0,,,,873.6605274999747,210,21,male,True
300,105.0,25,M,up,0.8990029999986291,1.9186486849686892,,experiment,emotion,0.0,,,,876.6770991999656,210,21,male,True
301,99.0,25,F,up,0.5227767999749631,0.4117938669428797,,experiment,emotion,0.0,,,,878.2603253000416,210,21,male,True
302,99.0,25,M,down,0.7595467999344692,1.9436803041234243,,experiment,emotion,0.0,,,,880.9935782999964,210,21,male,True
303,105.0,25,M,up,0.5919147999957204,1.29541168749955,,experiment,emotion,0.0,,,,883.310177700012,210,21,male,True
304,112.0,25,M,down,0.6620114000979811,1.4839248316088045,,experiment,emotion,0.0,,,,885.6600722000003,210,21,male,True
305,99.0,25,F,up,0.5201864999253303,1.706540708967617,,experiment,emotion,0.0,,,,888.3099586999742,210,21,male,True
306,92.0,25,F,up,0.4775943999411538,1.810916199929887,,experiment,emotion,0.0,,,,890.9265351999784,210,21,male,True
307,92.0,25,M,up,0.5569477999815717,0.8723043048997285,,experiment,emotion,0.0,,,,892.5431536000688,210,21,male,True
308,99.0,25,F,down,0.6089887999696657,0.4293114268127641,,experiment,emotion,0.0,,,,893.7931169000221,210,21,male,True
309,112.0,25,F,up,0.5840808999491856,1.518356514707859,,experiment,emotion,0.0,,,,896.1930134000722,210,21,male,True
310,105.0,25,M,up,0.6578296000370756,0.8617545007129443,,experiment,emotion,0.0,,,,897.9262708000606,210,21,male,True
311,92.0,25,M,down,0.7432437000097707,1.3845178009909396,,experiment,emotion,0.0,,,,900.2428954000352,210,21,male,True
312,112.0,25,F,down,0.7039584000594914,0.4193247364673428,,experiment,emotion,0.0,,,,901.6761427000164,210,21,male,True
313,105.0,25,M,down,0.7627467999700457,0.9636759383973136,,experiment,emotion,0.0,,,,903.6094168999698,210,21,male,True
314,105.0,25,F,down,0.7481350000016391,1.6766942862351568,,experiment,emotion,0.0,,,,906.325964299962,210,21,male,True
315,92.0,25,F,down,0.7282440999988467,1.6461308614185577,,experiment,emotion,0.0,,,,908.9758672000607,210,21,male,True
316,99.0,25,F,down,0.4167621999513358,0.4084435589658745,,experiment,emotion,0.0,,,,910.3924972000532,210,21,male,True
317,112.0,25,M,down,0.718030699994415,1.3312411125842956,,experiment,emotion,0.0,,,,912.4090599999764,210,21,male,True
318,99.0,25,M,down,0.5840803999453783,0.7530468728276534,,experiment,emotion,0.0,,,,914.159041600069,210,21,male,True
319,99.0,25,F,down,0.8788312000688165,1.6386666162537438,,experiment,emotion,0.0,,,,916.642265600036,210,21,male,True
320,99.0,25,F,down,0.5595344000030309,0.53003000495438,,experiment,emotion,0.0,,,,918.3255604000296,210,21,male,True
321,112.0,25,M,up,0.8156857999274507,1.6257335062359923,,experiment,emotion,0.0,,,,920.7754492000676,210,21,male,True
322,105.0,25,M,up,0.6274205999216065,1.83109684744502,,experiment,emotion,0.0,,,,923.708685599966,210,21,male,True
323,92.0,25,M,up,0.6451459999661893,0.9751812280262292,,experiment,emotion,0.0,,,,925.5919381000568,210,21,male,True
324,92.0,25,M,up,0.7702338999370113,0.7288965647404817,,experiment,emotion,0.0,,,,927.2418610999594,210,21,male,True
325,105.0,25,M,down,0.8186544999480247,1.8864324051825223,,experiment,emotion,0.0,,,,930.1584343999856,210,21,male,True
326,112.0,25,F,up,0.7564119999296963,1.1633200296270312,,experiment,emotion,0.0,,,,932.441685399972,210,21,male,True
327,112.0,25,F,up,0.5461523000849411,0.9499636587433606,,experiment,emotion,0.0,,,,934.4249464999884,210,21,male,True
328,92.0,25,M,up,0.5935979000059888,1.8053744282741333,,experiment,emotion,0.0,,,,937.0415269000224,210,21,male,True
329,112.0,25,F,up,0.5466460000025108,1.2373768108673209,,experiment,emotion,0.0,,,,939.1414298999588,210,21,male,True
330,99.0,25,F,up,0.6093727999832481,0.5038727590638558,,experiment,emotion,0.0,,,,940.4747185000452,210,21,male,True
331,105.0,25,F,up,0.4187907999148592,1.4713845420870817,,experiment,emotion,0.0,,,,942.8412991999649,210,21,male,True
332,99.0,25,M,up,0.6958288999740034,1.0075506698532557,,experiment,emotion,0.0,,,,944.5412308999804,210,21,male,True
333,92.0,25,F,up,1.0239360999548808,1.5929917899136057,,experiment,emotion,0.0,,,,947.0911156999646,210,21,male,True
334,105.0,25,F,up,0.7624233999522403,1.3097458876204533,,experiment,emotion,0.0,,,,949.7076871000464,210,21,male,True
335,99.0,25,F,up,0.6064575000200421,0.3700501144059414,,experiment,emotion,0.0,,,,951.1076482000062,210,21,male,True
336,105.0,25,M,up,0.6741997000062838,1.8948321389257143,,experiment,emotion,0.0,,,,953.8908856000052,210,21,male,True
337,92.0,25,M,up,0.6682814999949187,1.2699770854666483,,experiment,emotion,0.0,,,,956.0908082000678,210,21,male,True
338,112.0,25,F,up,0.7354186000302434,1.703061753882022,,experiment,emotion,0.0,,,,958.7406909000129,210,21,male,True
339,105.0,25,M,up,0.5731421000091359,1.7288152063285094,,experiment,emotion,0.0,,,,961.473943399964,210,21,male,True
340,112.0,25,F,up,0.7413621000014246,1.157662752315289,,experiment,emotion,0.0,,,,963.4738894000184,210,21,male,True
341,92.0,25,M,up,0.6739820999791846,0.8104973870584322,,experiment,emotion,0.0,,,,965.3071079000364,210,21,male,True
342,99.0,25,M,down,1.1714011000003666,1.28897731549423,,experiment,emotion,0.0,,,,967.5737171999644,210,21,male,True
343,0.2060087328867073,25,up,up,0.4506656999001279,1.6097351146171566,,experiment,cRDM,1.0,,,,973.8234134999802,210,21,male,True
344,0.2060087328867073,25,up,up,0.4676385000348091,1.1764740031413867,,experiment,cRDM,1.0,,,,975.723446500022,210,21,male,True
345,0.2060087328867073,25,down,down,0.5090889000566676,1.6392830092078368,,experiment,cRDM,1.0,,,,978.0899922000244,210,21,male,True
346,0.2060087328867073,25,down,down,0.5398098001023754,0.6639032689002531,,experiment,cRDM,1.0,,,,979.523313099984,210,21,male,True
347,0.2060087328867073,25,up,up,0.4686400999780744,1.8786070928340384,,experiment,cRDM,1.0,,,,982.2064830999587,210,21,male,True
348,0.2060087328867073,25,down,down,0.5626497999764979,1.1769347075843,,experiment,cRDM,1.0,,,,984.1064336000708,210,21,male,True
349,0.2060087328867073,25,up,up,0.4513776999665424,1.4067783466704649,,experiment,cRDM,1.0,,,,986.339711699984,210,21,male,True
350,0.2060087328867073,25,up,up,0.5164728999370709,0.4825866303481703,,experiment,cRDM,1.0,,,,987.539682200062,210,21,male,True
351,0.2060087328867073,25,down,down,0.367158200009726,1.79254190736011,,experiment,cRDM,1.0,,,,990.1062119000126,210,21,male,True
352,0.2060087328867073,25,down,down,0.4526176999788731,1.7621895329098582,,experiment,cRDM,1.0,,,,992.53949320002,210,21,male,True
353,0.2060087328867073,25,down,down,0.5063723000930622,1.3278438346834454,,experiment,cRDM,1.0,,,,994.57271149999,210,21,male,True
354,0.2060087328867073,25,down,down,0.5307935000164434,0.4281413016861509,,experiment,cRDM,1.0,,,,995.7893623000708,210,21,male,True
355,0.2060087328867073,25,down,up,0.5288497000001371,1.8133777843205192,,experiment,cRDM,1.0,,,,998.3892342000036,210,21,male,True
356,0.2060087328867073,25,down,down,0.4906759000150487,1.3819739182241877,,experiment,cRDM,1.0,,,,1000.5724885000382,210,21,male,True
357,0.2060087328867073,25,up,up,0.4839941000100225,0.455088996223804,,experiment,cRDM,1.0,,,,1001.7891103000148,210,21,male,True
358,0.2060087328867073,25,up,up,0.6352119999937713,1.6685321128822252,,experiment,cRDM,1.0,,,,1004.1890284999972,210,21,male,True
359,0.2060087328867073,25,up,up,0.5131563000613824,1.9610679232020949,,experiment,cRDM,1.0,,,,1007.038883500034,210,21,male,True
360,0.2060087328867073,25,up,up,0.5018847000319511,0.8629442819832178,,experiment,cRDM,1.0,,,,1008.672195799998,210,21,male,True
361,0.2060087328867073,25,down,down,0.5246466000098735,1.8188972361387812,,experiment,cRDM,1.0,,,,1011.2554534999654,210,21,male,True
362,0.2060087328867073,25,up,up,0.5350770999211818,1.5733383646670922,,experiment,cRDM,1.0,,,,1013.6219995999708,210,21,male,True
363,0.2060087328867073,25,up,up,0.5108273000223562,1.440021605112312,,experiment,cRDM,1.0,,,,1015.8552688000492,210,21,male,True
364,0.2060087328867073,25,down,down,0.5262000999646261,0.6405162336245912,,experiment,cRDM,1.0,,,,1017.2718863000628,210,21,male,True
365,0.2060087328867073,25,up,up,0.5187186000403017,1.1928027168254096,,experiment,cRDM,1.0,,,,1019.2383520000149,210,21,male,True
366,0.2060087328867073,25,down,down,0.5030637999298051,1.2761426156877094,,experiment,cRDM,1.0,,,,1021.3050664999756,210,21,male,True
367,0.2060087328867073,25,down,up,0.5350679999683052,1.749865906233044,,experiment,cRDM,1.0,,,,1023.8049828000368,210,21,male,True
368,0.2060087328867073,25,up,up,0.440173799986951,1.9505507327718268,,experiment,cRDM,1.0,,,,1026.5548914000392,210,21,male,True
369,0.2060087328867073,25,up,up,0.4939264999702573,1.293256859571714,,experiment,cRDM,1.0,,,,1028.5381522000534,210,21,male,True
370,0.2060087328867073,25,down,down,0.4410425999667495,1.690880271774737,,experiment,cRDM,1.0,,,,1030.9880365000572,210,21,male,True
371,0.2060087328867073,25,up,up,0.5147029000800103,0.8387041108179651,,experiment,cRDM,1.0,,,,1032.521342699998,210,21,male,True
372,0.2060087328867073,25,down,down,0.427828700048849,1.2610334686842672,,experiment,cRDM,1.0,,,,1034.571227699984,210,21,male,True
373,0.2060087328867073,25,down,down,0.7876555999973789,1.5408067328527344,,experiment,cRDM,1.0,,,,1036.804461600026,210,21,male,True
374,0.2060087328867073,25,down,down,0.6666339000221342,0.3004013586330017,,experiment,cRDM,1.0,,,,1038.1544450999936,210,21,male,True
375,0.2060087328867073,25,up,up,0.6790427999803796,0.3968303839951576,,experiment,cRDM,1.0,,,,1039.4710526000708,210,21,male,True
376,0.2060087328867073,25,up,up,0.6518313999986276,1.6892931066799222,,experiment,cRDM,1.0,,,,1042.104287700029,210,21,male,True
377,0.2060087328867073,25,up,up,0.469945800025016,1.6061140183153628,,experiment,cRDM,1.0,,,,1044.621132500004,210,21,male,True
378,0.2060087328867073,25,down,down,0.5153289999580011,1.4137977422416703,,experiment,cRDM,1.0,,,,1046.7707979000406,210,21,male,True
379,0.2060087328867073,25,down,down,0.5729716999921948,0.7123185215894272,,experiment,cRDM,1.0,,,,1048.2540587000549,210,21,male,True
380,0.2060087328867073,25,up,up,0.4354380000149831,1.8768792835546524,,experiment,cRDM,1.0,,,,1050.9706391000657,210,21,male,True
381,0.2060087328867073,25,down,down,0.4501763000153005,0.4949444604029113,,experiment,cRDM,1.0,,,,1052.1539190000622,210,21,male,True
382,0.2060087328867073,25,up,up,0.3837955000344664,1.449568690802323,,experiment,cRDM,1.0,,,,1054.3205116000026,210,21,male,True
383,0.2060087328867073,25,up,down,0.4390286999987438,1.9429741549599613,,experiment,cRDM,1.0,,,,1056.9370963000692,210,21,male,True
384,0.2060087328867073,25,up,up,0.5556942000985146,0.3095638839532987,,experiment,cRDM,1.0,,,,1057.9703884000191,210,21,male,True
385,0.2060087328867073,25,down,down,0.4168683000607416,1.438717842835212,,experiment,cRDM,1.0,,,,1060.2202650000108,210,21,male,True
386,0.2060087328867073,25,down,down,0.5108495000749826,0.8693960329478982,,experiment,cRDM,1.0,,,,1061.770245200023,210,21,male,True
387,0.2060087328867073,25,up,up,0.4899655000772327,1.381546526242937,,experiment,cRDM,1.0,,,,1063.9201339000138,210,21,male,True
388,0.2060087328867073,25,down,down,0.3504596999846399,0.7602120701122967,,experiment,cRDM,1.0,,,,1065.436794899986,210,21,male,True
389,0.2060087328867073,25,down,down,0.5271270999219269,1.3975592108775752,,experiment,cRDM,1.0,,,,1067.5200093999738,210,21,male,True
390,0.2060087328867073,25,up,up,0.5664145000046119,0.8243969314117345,,experiment,cRDM,1.0,,,,1069.1366741000677,210,21,male,True
391,0.2060087328867073,25,up,down,0.4192415999714285,1.5634050397065309,,experiment,cRDM,1.0,,,,1071.5198842000682,210,21,male,True
392,0.2060087328867073,25,down,up,0.604653500020504,0.3815581497327105,,experiment,cRDM,1.0,,,,1072.5864757000236,210,21,male,True
393,0.2060087328867073,25,up,up,0.5546597000211477,1.6856781598573618,,experiment,cRDM,1.0,,,,1075.136436000001,210,21,male,True
394,0.2060087328867073,25,down,down,0.450079399975948,0.9490639365366214,,experiment,cRDM,1.0,,,,1076.9029977000318,210,21,male,True
395,0.2060087328867073,25,down,down,0.38382789993193,1.914514849831764,,experiment,cRDM,1.0,,,,1079.5362620999804,210,21,male,True
396,0.2060087328867073,25,down,down,0.4278444000519812,0.5258724069082736,,experiment,cRDM,1.0,,,,1080.7362274000188,210,21,male,True
397,0.2060087328867073,25,up,down,0.400287099997513,1.1969348819221224,,experiment,cRDM,1.0,,,,1082.6361360000446,210,21,male,True
398,0.2060087328867073,25,up,up,0.5799893999937922,0.6591094076869198,,experiment,cRDM,1.0,,,,1083.9860824999632,210,21,male,True
399,0.2060087328867073,25,down,down,0.5154039000626653,0.744454191333142,,experiment,cRDM,1.0,,,,1085.552698399988,210,21,male,True
400,0.2060087328867073,25,down,down,0.515791799989529,1.1339998766500985,,experiment,cRDM,1.0,,,,1087.4692762000486,210,21,male,True
401,0.2060087328867073,25,up,up,0.7429067000048235,0.679484024458731,,experiment,cRDM,1.0,,,,1088.9191589000402,210,21,male,True
402,0.2060087328867073,25,up,down,0.4472274999134242,0.6550472818883353,,experiment,cRDM,1.0,,,,1090.5858409999637,210,21,male,True
403,0.2060087328867073,25,up,up,0.5982859000796452,0.3079186856159378,,experiment,cRDM,1.0,,,,1091.5857826999854,210,21,male,True
404,0.2060087328867073,25,up,up,0.616005799965933,0.5826469719429341,,experiment,cRDM,1.0,,,,1093.0191143000266,210,21,male,True
405,0.2060087328867073,25,up,up,0.4257037000497803,0.7959462125722965,,experiment,cRDM,1.0,,,,1094.7023341000313,210,21,male,True
406,0.2060087328867073,25,down,down,0.606423299992457,0.5902428675592173,,experiment,cRDM,1.0,,,,1095.98564790003,210,21,male,True
407,0.2060087328867073,25,down,down,0.6522378000663593,0.3711068977729752,,experiment,cRDM,1.0,,,,1097.2188426000066,210,21,male,True
408,0.2060087328867073,25,up,up,0.5615507999900728,1.804405193131088,,experiment,cRDM,1.0,,,,1099.9355208000634,210,21,male,True
409,0.2060087328867073,25,down,down,0.4168129999889061,1.489473316322674,,experiment,cRDM,1.0,,,,1102.2520464999834,210,21,male,True
410,0.2060087328867073,25,down,down,0.5454011999536306,0.6352438778630413,,experiment,cRDM,1.0,,,,1103.5686851000646,210,21,male,True
411,0.2060087328867073,25,down,down,0.5425075000384822,1.0313192532352338,,experiment,cRDM,1.0,,,,1105.4186176999938,210,21,male,True
412,0.2060087328867073,25,up,up,0.4745759000070393,1.943823876382539,,experiment,cRDM,1.0,,,,1108.1685250999872,210,21,male,True
413,0.2060087328867073,25,down,down,0.4626664000097662,0.5522536174127647,,experiment,cRDM,1.0,,,,1109.468467000057,210,21,male,True
414,0.2060087328867073,25,down,down,0.4376540000084787,0.5184448159338825,,experiment,cRDM,1.0,,,,1110.718415400013,210,21,male,True
415,0.2060087328867073,25,down,down,0.5124305000063032,1.1356728051490022,,experiment,cRDM,1.0,,,,1112.5517224000068,210,21,male,True
416,0.2060087328867073,25,up,up,0.5733958000782877,0.3308380766431595,,experiment,cRDM,1.0,,,,1113.651725600008,210,21,male,True
417,0.2060087328867073,25,up,up,0.4440697999671101,0.6015340013865262,,experiment,cRDM,1.0,,,,1115.0849536999594,210,21,male,True
418,0.2060087328867073,25,down,down,0.464860099949874,0.8277067968894385,,experiment,cRDM,1.0,,,,1116.6182028000476,210,21,male,True
419,0.2060087328867073,25,up,up,0.4779509999789297,0.9701730212693388,,experiment,cRDM,1.0,,,,1118.3181172000477,210,21,male,True
420,0.2060087328867073,25,down,down,0.4289977999869734,1.2551832619297951,,experiment,cRDM,1.0,,,,1120.3180625999812,210,21,male,True
421,0.2060087328867073,25,up,up,0.4331021999241784,1.27044535969277,,experiment,cRDM,1.0,,,,1122.2679908999708,210,21,male,True
422,0.2060087328867073,25,up,up,0.5251575000584126,1.5618550142977548,,experiment,cRDM,1.0,,,,1124.5179043000098,210,21,male,True
423,112.0,25,M,down,1.0152798000490293,1.2827090508585772,,experiment,emotion,1.0,,,,1161.7998608000344,210,21,male,True
424,92.0,25,M,down,1.1049360000761226,1.1815820136554187,,experiment,emotion,1.0,,,,1164.2831147999968,210,21,male,True
425,105.0,25,F,down,0.7867673999862745,0.8254139100960778,,experiment,emotion,1.0,,,,1166.516335500055,210,21,male,True
426,112.0,25,F,down,0.8488386999815702,1.3062681275591903,,experiment,emotion,1.0,,,,1168.8662674999796,210,21,male,True
427,105.0,25,M,down,0.9425476999022068,1.7714049219229278,,experiment,emotion,1.0,,,,1171.7495230999775,210,21,male,True
428,99.0,25,F,down,0.8203491999302059,1.849218353750578,,experiment,emotion,1.0,,,,1174.8327363000717,210,21,male,True
429,92.0,25,M,down,0.9287103000096976,0.7680213559465618,,experiment,emotion,1.0,,,,1176.699309800053,210,21,male,True
430,99.0,25,M,down,1.027482100063935,1.7855320770887055,,experiment,emotion,1.0,,,,1179.6825634000124,210,21,male,True
431,112.0,25,F,up,1.0399165999842808,0.52055364301012,,experiment,emotion,1.0,,,,1181.4991368000628,210,21,male,True
432,99.0,25,F,down,1.0520212000701576,1.4017573536534924,,experiment,emotion,1.0,,,,1184.1990309000248,210,21,male,True
433,105.0,25,F,up,1.4054180000675842,0.7397229777588141,,experiment,emotion,1.0,,,,1186.2656443000303,210,21,male,True
434,112.0,25,F,down,0.9052556999959052,1.6756279657655666,,experiment,emotion,1.0,,,,1189.615774600068,210,21,male,True
435,105.0,25,F,up,0.6973013000097126,1.656414722545156,,experiment,emotion,1.0,,,,1192.4487579000415,210,21,male,True
436,92.0,25,F,down,0.8096992999780923,0.6522933592697906,,experiment,emotion,1.0,,,,1194.065352100064,210,21,male,True
437,99.0,25,M,up,0.693513400037773,0.8890549240402459,,experiment,emotion,1.0,,,,1196.048617099994,210,21,male,True
438,92.0,25,M,down,0.8968399000586942,0.7502345192342511,,experiment,emotion,1.0,,,,1197.765212600003,210,21,male,True
439,112.0,25,M,up,0.8356228000484407,1.9030000203033184,,experiment,emotion,1.0,,,,1200.848432000028,210,21,male,True
440,92.0,25,M,down,0.8826866999734193,1.9875364736130787,,experiment,emotion,1.0,,,,1203.9483311000513,210,21,male,True
441,105.0,25,F,up,0.3668347999919206,0.7961455522808463,,experiment,emotion,1.0,,,,1205.914911800064,210,21,male,True
442,105.0,25,M,down,0.4167699000099674,1.7842830484512064,,experiment,emotion,1.0,,,,1208.3814838000108,210,21,male,True
443,99.0,25,M,down,1.2669807999627665,1.7257738551763664,,experiment,emotion,1.0,,,,1210.7980643999765,210,21,male,True
444,99.0,25,F,down,0.790121000027284,1.3055367626579102,,experiment,emotion,1.0,,,,1213.6479485000018,210,21,male,True
445,92.0,25,M,down,0.513166599906981,1.8100390749677948,,experiment,emotion,1.0,,,,1216.547880199971,210,21,male,True
446,112.0,25,F,down,0.6272454999852926,0.9469104683665508,,experiment,emotion,1.0,,,,1218.2977685000517,210,21,male,True
447,105.0,25,F,down,0.856338300043717,0.7980280438107523,,experiment,emotion,1.0,,,,1219.9977140000556,210,21,male,True
448,92.0,25,M,down,0.6574539999710396,1.3685630416067145,,experiment,emotion,1.0,,,,1222.4976301999995,210,21,male,True
449,112.0,25,M,down,0.4845669999485835,1.415691631119699,,experiment,emotion,1.0,,,,1224.8475532999728,210,21,male,True
450,112.0,25,F,down,1.4585270000388846,0.4423366376683573,,experiment,emotion,1.0,,,,1226.0475041000172,210,21,male,True
451,99.0,25,M,down,0.88808359997347,1.9213939379051523,,experiment,emotion,1.0,,,,1229.7139573000604,210,21,male,True
452,92.0,25,F,down,0.7111447000643238,1.18580379899368,,experiment,emotion,1.0,,,,1232.0639525000006,210,21,male,True
453,99.0,25,F,up,0.8171644000103697,0.4642225173449387,,experiment,emotion,1.0,,,,1233.513882900006,210,21,male,True
454,105.0,25,F,down,0.7048982999986038,1.237474578565415,,experiment,emotion,1.0,,,,1235.8471520000603,210,21,male,True
455,92.0,25,M,up,0.7717066999757662,1.1649261286261865,,experiment,emotion,1.0,,,,1237.980394100072,210,21,male,True
456,112.0,25,M,up,0.574472300009802,1.822748957344131,,experiment,emotion,1.0,,,,1240.8636329000583,210,21,male,True
457,105.0,25,M,up,1.1331596000818536,1.241241178817799,,experiment,emotion,1.0,,,,1242.9468874000013,210,21,male,True
458,112.0,25,F,down,0.8222274000290781,1.3390993345049027,,experiment,emotion,1.0,,,,1245.6967832000228,210,21,male,True
459,92.0,25,F,down,1.0990244999993593,1.254167617703941,,experiment,emotion,1.0,,,,1248.030023499974,210,21,male,True
460,105.0,25,M,up,0.8477553999982774,0.4613386579105164,,experiment,emotion,1.0,,,,1249.863287699991,210,21,male,True
461,99.0,25,F,up,0.7538556000217795,1.4441628414717598,,experiment,emotion,1.0,,,,1252.4631872000173,210,21,male,True
462,99.0,25,M,up,0.6792299000080675,1.4357291280698612,,experiment,emotion,1.0,,,,1254.929795700009,210,21,male,True
463,105.0,25,M,up,0.894022399908863,0.3712362888726135,,experiment,emotion,1.0,,,,1256.26302199997,210,21,male,True
464,112.0,25,M,up,0.7410555999958888,0.6285880666882083,,experiment,emotion,1.0,,,,1258.062988699996,210,21,male,True
465,99.0,25,F,up,0.6200743999797851,0.7916927458075554,,experiment,emotion,1.0,,,,1259.862934099976,210,21,male,True
466,92.0,25,F,up,0.6815205999882892,0.8639787173333522,,experiment,emotion,1.0,,,,1261.6295233999845,210,21,male,True
467,92.0,25,M,up,0.8379279999062419,1.0552654488858404,,experiment,emotion,1.0,,,,1263.646111799986,210,21,male,True
468,99.0,25,F,up,0.5832945000147447,0.8445906065126079,,experiment,emotion,1.0,,,,1265.6127386000007,210,21,male,True
469,112.0,25,F,down,0.5764409999828786,1.7901733470933867,,experiment,emotion,1.0,,,,1268.2625991000095,210,21,male,True
470,105.0,25,M,down,0.6008794000372291,1.5573464656221616,,experiment,emotion,1.0,,,,1270.6791662999894,210,21,male,True
471,92.0,25,M,down,0.6388932999689132,0.9745476651478976,,experiment,emotion,1.0,,,,1272.5291331000626,210,21,male,True
472,112.0,25,F,up,0.6967244000406936,1.8773974128776951,,experiment,emotion,1.0,,,,1275.312354200054,210,21,male,True
473,105.0,25,M,up,0.7054304999765009,0.7531783798187794,,experiment,emotion,1.0,,,,1277.0456238000188,210,21,male,True
474,105.0,25,F,up,0.9825888999039308,1.6669636188660333,,experiment,emotion,1.0,,,,1279.695507399971,210,21,male,True
475,92.0,25,F,up,0.5875770000275224,0.4003697204162926,,experiment,emotion,1.0,,,,1281.3454657000257,210,21,male,True
476,99.0,25,F,up,0.8387316999724135,1.3840909218996909,,experiment,emotion,1.0,,,,1283.5953681999815,210,21,male,True
477,112.0,25,M,up,0.6167893999954686,0.4422773155030659,,experiment,emotion,1.0,,,,1285.1453154999765,210,21,male,True
478,99.0,25,M,up,0.5251318999798968,0.5656173411759577,,experiment,emotion,1.0,,,,1286.6119093999732,210,21,male,True
479,99.0,25,F,up,0.416778500075452,0.8198512716204915,,experiment,emotion,1.0,,,,1288.2285513000097,210,21,male,True
480,99.0,25,F,up,0.6612076000310481,1.4423966865623823,,experiment,emotion,1.0,,,,1290.361791800009,210,21,male,True
481,112.0,25,M,up,0.4254989000037312,0.8120417433829243,,experiment,emotion,1.0,,,,1292.1115835000528,210,21,male,True
482,105.0,25,M,up,0.9647024000296368,1.808626801573692,,experiment,emotion,1.0,,,,1294.6283368000295,210,21,male,True
483,92.0,25,M,up,0.7921716999262571,1.1158041822724651,,experiment,emotion,1.0,,,,1296.994891999988,210,21,male,True
484,92.0,25,M,down,0.589609400019981,0.9565968111070716,,experiment,emotion,1.0,,,,1299.0114538000198,210,21,male,True
485,105.0,25,M,down,1.1829494999255985,0.8465928955672302,,experiment,emotion,1.0,,,,1300.7280878999736,210,21,male,True
486,112.0,25,F,down,0.7183518999954686,0.3660016724466636,,experiment,emotion,1.0,,,,1302.5446838999633,210,21,male,True
487,112.0,25,F,down,0.9174680000869556,1.8211574055030784,,experiment,emotion,1.0,,,,1305.3445750999963,210,21,male,True
488,92.0,25,M,down,0.9945342999417336,0.859072910598276,,experiment,emotion,1.0,,,,1307.39448909997,210,21,male,True
489,112.0,25,F,up,1.33929839998018,0.670148410134644,,experiment,emotion,1.0,,,,1309.3277472000336,210,21,male,True
490,99.0,25,F,up,0.7110642000334337,0.7058103792048387,,experiment,emotion,1.0,,,,1311.6610125000589,210,21,male,True
491,105.0,25,F,up,0.7177316999295726,0.3310820221722669,,experiment,emotion,1.0,,,,1312.9942744000582,210,21,male,True
492,99.0,25,M,up,0.985811399994418,0.9106145279420804,,experiment,emotion,1.0,,,,1314.894206100027,210,21,male,True
493,92.0,25,F,up,1.746218999964185,0.8022377530104967,,experiment,emotion,1.0,,,,1316.9608052000403,210,21,male,True
494,105.0,25,F,down,1.01868049998302,0.7985071489176998,,experiment,emotion,1.0,,,,1319.7773649999872,210,21,male,True
495,99.0,25,F,down,0.7284118999959901,1.99964921422094,,experiment,emotion,1.0,,,,1323.0606185999932,210,21,male,True
496,105.0,25,M,down,0.9785640999907628,0.5447922872803824,,experiment,emotion,1.0,,,,1324.610523400013,210,21,male,True
497,92.0,25,M,down,0.7659186000237241,0.4634370181423989,,experiment,emotion,1.0,,,,1326.3271154999966,210,21,male,True
498,112.0,25,F,down,0.8463129999581724,0.8638876599402738,,experiment,emotion,1.0,,,,1328.243724900065,210,21,male,True
499,105.0,25,M,up,0.9063592000165954,0.4297918089767431,,experiment,emotion,1.0,,,,1329.793670300045,210,21,male,True
500,112.0,25,F,up,0.6726632000645623,0.5128579474697559,,experiment,emotion,1.0,,,,1331.493379099993,210,21,male,True
501,92.0,25,M,down,0.775888100033626,1.4808789243396083,,experiment,emotion,1.0,,,,1333.9101253000554,210,21,male,True
502,99.0,25,M,down,0.6970615000464022,1.7497325405866753,,experiment,emotion,1.0,,,,1336.7099910000106,210,21,male,True
503,0.2060087328867073,25,up,up,0.5779477999312803,1.176466088452403,,experiment,cRDM,2.0,,,,1343.6931386999786,210,21,male,True
504,0.2060087328867073,25,up,up,0.6416124000679702,0.7907419470719744,,experiment,cRDM,2.0,,,,1345.326457399991,210,21,male,True
505,0.2060087328867073,25,down,down,0.6656026000855491,0.3961002693079735,,experiment,cRDM,2.0,,,,1346.626407200005,210,21,male,True
506,0.2060087328867073,25,down,down,0.4729802999645471,0.6015471749542616,,experiment,cRDM,2.0,,,,1348.1430144000333,210,21,male,True
507,0.2060087328867073,25,up,up,0.8120913000311702,0.6135996824873032,,experiment,cRDM,2.0,,,,1349.4929608000675,210,21,male,True
508,0.2060087328867073,25,down,down,0.450186200090684,1.377967035326584,,experiment,cRDM,2.0,,,,1351.9428511000006,210,21,male,True
509,0.2060087328867073,25,up,up,0.5467126000439748,1.9541893254817344,,experiment,cRDM,2.0,,,,1354.6093186000362,210,21,male,True
510,0.2060087328867073,25,up,up,0.4697174000320956,1.8016173455151965,,experiment,cRDM,2.0,,,,1357.2093148999847,210,21,male,True
511,0.2060087328867073,25,down,down,0.5580862999195233,1.1919707797575545,,experiment,cRDM,2.0,,,,1359.1259601999773,210,21,male,True
512,0.2060087328867073,25,down,down,0.5418946999125183,0.9039729429084424,,experiment,cRDM,2.0,,,,1360.859188399976,210,21,male,True
513,0.2060087328867073,25,down,down,0.6669181999750435,0.398649757809901,,experiment,cRDM,2.0,,,,1362.059138200013,210,21,male,True
514,0.2060087328867073,25,down,down,0.7166483999462798,1.7424248399635678,,experiment,cRDM,2.0,,,,1364.7423780000536,210,21,male,True
515,0.2060087328867073,25,down,down,0.6637747000204399,1.451384296142919,,experiment,cRDM,2.0,,,,1367.192270200001,210,21,male,True
516,0.2060087328867073,25,down,up,1.0294687999412415,1.4079177682160644,,experiment,cRDM,2.0,,,,1369.5255690000486,210,21,male,True
517,0.2060087328867073,25,up,up,0.7669836999848485,1.538189837718536,,experiment,cRDM,2.0,,,,1372.3420985999985,210,21,male,True
518,0.2060087328867073,25,up,up,0.5909891000483185,1.1706314990448572,,experiment,cRDM,2.0,,,,1374.542034800048,210,21,male,True
519,0.2060087328867073,25,up,up,0.5362124999519438,1.980189493418908,,experiment,cRDM,2.0,,,,1377.391883400036,210,21,male,True
520,0.2060087328867073,25,up,up,0.489244999946095,1.3851485538736017,,experiment,cRDM,2.0,,,,1379.59181360004,210,21,male,True
521,0.2060087328867073,25,down,down,0.5912784000393003,1.0469853396408966,,experiment,cRDM,2.0,,,,1381.3917419000063,210,21,male,True
522,0.2060087328867073,25,up,up,0.5646413000067696,0.4102870424950354,,experiment,cRDM,2.0,,,,1382.6583891999908,210,21,male,True
523,0.2060087328867073,25,up,up,0.62274120002985,0.9222776001863248,,experiment,cRDM,2.0,,,,1384.4082866000244,210,21,male,True
524,0.2060087328867073,25,down,down,0.5798185999738052,1.7198954239459037,,experiment,cRDM,2.0,,,,1387.0082059999695,210,21,male,True
525,0.2060087328867073,25,up,up,0.553858800092712,1.2476375032263023,,experiment,cRDM,2.0,,,,1389.1081675000023,210,21,male,True
526,0.2060087328867073,25,down,down,0.416751499986276,1.8427136467548144,,experiment,cRDM,2.0,,,,1391.7580696999794,210,21,male,True
527,0.2060087328867073,25,down,down,0.6411170000210404,1.427406282494862,,experiment,cRDM,2.0,,,,1393.857966599986,210,21,male,True
528,0.2060087328867073,25,up,up,0.4721468000207096,1.5010453817167906,,experiment,cRDM,2.0,,,,1396.257880100049,210,21,male,True
529,0.2060087328867073,25,up,up,0.6545021999627352,1.1279010989523202,,experiment,cRDM,2.0,,,,1398.1245029000563,210,21,male,True
530,0.2060087328867073,25,down,down,0.4863593000918627,0.9891060249476542,,experiment,cRDM,2.0,,,,1400.0246775000123,210,21,male,True
531,0.2060087328867073,25,up,up,0.68663559993729,0.7098591564628924,,experiment,cRDM,2.0,,,,1401.474355100072,210,21,male,True
532,0.2060087328867073,25,down,down,0.5943516999250278,1.3365336491293196,,experiment,cRDM,2.0,,,,1403.757607300067,210,21,male,True
533,0.2060087328867073,25,down,up,0.5392451999941841,1.3965414596617909,,experiment,cRDM,2.0,,,,1405.9908384999726,210,21,male,True
534,0.2060087328867073,25,down,down,0.4428639999823645,1.6625530583524148,,experiment,cRDM,2.0,,,,1408.4741166000022,210,21,male,True
535,0.2060087328867073,25,up,up,0.5547935999929905,1.7313519596245162,,experiment,cRDM,2.0,,,,1410.9072762000142,210,21,male,True
536,0.2060087328867073,25,up,up,0.4384379999246448,0.4686653450550626,,experiment,cRDM,2.0,,,,1412.1906303999713,210,21,male,True
537,0.2060087328867073,25,up,up,0.3505049000959843,1.3135125380818706,,experiment,cRDM,2.0,,,,1414.1905402999837,210,21,male,True
538,0.2060087328867073,25,down,up,0.3343122999649495,0.8760639958678023,,experiment,cRDM,2.0,,,,1415.7571647999575,210,21,male,True
539,0.2060087328867073,25,down,down,0.6135809000115842,0.3022397214399991,,experiment,cRDM,2.0,,,,1416.740461600013,210,21,male,True
540,0.2060087328867073,25,up,up,0.5206201000837609,0.4072176286038023,,experiment,cRDM,2.0,,,,1418.0404236000031,210,21,male,True
541,0.2060087328867073,25,down,down,0.5867099999450147,1.3573836768098533,,experiment,cRDM,2.0,,,,1420.190308399964,210,21,male,True
542,0.2060087328867073,25,up,up,0.4845259001012891,1.831546141812043,,experiment,cRDM,2.0,,,,1422.8735622999957,210,21,male,True
543,0.2060087328867073,25,up,up,0.4938641000771895,1.1199915853813425,,experiment,cRDM,2.0,,,,1424.7401532999938,210,21,male,True
544,0.2060087328867073,25,up,up,0.5286066000116989,1.0768993391696264,,experiment,cRDM,2.0,,,,1426.5734208000358,210,21,male,True
545,0.2060087328867073,25,down,down,0.5156788000604138,1.6170643291725897,,experiment,cRDM,2.0,,,,1428.973350699991,210,21,male,True
546,0.2060087328867073,25,down,down,0.4377719999756664,1.734351208151256,,experiment,cRDM,2.0,,,,1431.4732497000368,210,21,male,True
547,0.2060087328867073,25,up,up,0.7422018999932334,0.4697490421878572,,experiment,cRDM,2.0,,,,1432.6398638000246,210,21,male,True
548,0.2060087328867073,25,down,down,0.4516690999735147,1.2669283383561485,,experiment,cRDM,2.0,,,,1434.9063631000463,210,21,male,True
549,0.2060087328867073,25,down,down,0.4168491000309586,1.7081373309550538,,experiment,cRDM,2.0,,,,1437.339688200038,210,21,male,True
550,0.2060087328867073,25,up,up,0.5992542000021785,0.3218590708407997,,experiment,cRDM,2.0,,,,1438.3396893000463,210,21,male,True
551,0.2060087328867073,25,up,up,0.6720705999759957,0.417824767984973,,experiment,cRDM,2.0,,,,1439.6229779999703,210,21,male,True
552,0.2060087328867073,25,down,down,0.4321286999620497,1.466509140295006,,experiment,cRDM,2.0,,,,1442.022891700035,210,21,male,True
553,0.2060087328867073,25,up,up,0.5926070999121293,1.4809865287011958,,experiment,cRDM,2.0,,,,1444.1894225999713,210,21,male,True
554,0.2060087328867073,25,down,down,0.5673948000185192,1.3134650109264532,,experiment,cRDM,2.0,,,,1446.3727076000068,210,21,male,True
555,0.2060087328867073,25,down,down,0.6083788999821991,1.5200080505626214,,experiment,cRDM,2.0,,,,1448.7226385000397,210,21,male,True
556,0.2060087328867073,25,down,down,0.6374530999455601,0.378622971329775,,experiment,cRDM,2.0,,,,1449.9725667999592,210,21,male,True
557,0.2060087328867073,25,up,up,0.5302041000686586,1.0764834910535734,,experiment,cRDM,2.0,,,,1451.955820400035,210,21,male,True
558,0.2060087328867073,25,up,up,0.5582311000907794,1.241685000284625,,experiment,cRDM,2.0,,,,1454.0057797000045,210,21,male,True
559,0.2060087328867073,25,down,down,0.5380562999052927,1.16097766240285,,experiment,cRDM,2.0,,,,1455.988989799982,210,21,male,True
560,0.2060087328867073,25,down,down,0.4463980000000447,0.7557744309106996,,experiment,cRDM,2.0,,,,1457.555626500049,210,21,male,True
561,0.2060087328867073,25,up,up,0.483766800025478,0.6515069646078342,,experiment,cRDM,2.0,,,,1458.922271699994,210,21,male,True
562,0.2060087328867073,25,up,up,0.5401487000053748,0.47319325336914,,experiment,cRDM,2.0,,,,1460.1388657999923,210,21,male,True
563,0.2060087328867073,25,up,up,0.6186096000019461,0.4101663286626341,,experiment,cRDM,2.0,,,,1461.3554279999807,210,21,male,True
564,0.2060087328867073,25,up,up,0.4702692000428214,0.7332146211977106,,experiment,cRDM,2.0,,,,1462.988731999998,210,21,male,True
565,0.2060087328867073,25,up,up,0.4400015000719577,0.8834025437823856,,experiment,cRDM,2.0,,,,1464.6220500000054,210,21,male,True
566,0.2060087328867073,25,down,down,0.6067679999396205,1.022631553241146,,experiment,cRDM,2.0,,,,1466.3553159000585,210,21,male,True
567,0.2060087328867073,25,down,down,0.4884674999630078,1.065828708215793,,experiment,cRDM,2.0,,,,1468.2885355000617,210,21,male,True
568,0.2060087328867073,25,up,up,0.6062301000347361,1.374136019890385,,experiment,cRDM,2.0,,,,1470.421830800013,210,21,male,True
569,0.2060087328867073,25,down,down,0.5576585000380874,1.5087267268048412,,experiment,cRDM,2.0,,,,1472.7883814000525,210,21,male,True
570,0.2060087328867073,25,down,down,0.5963921999791637,1.6712620515915697,,experiment,cRDM,2.0,,,,1475.27163079998,210,21,male,True
571,0.2060087328867073,25,down,down,0.750296099926345,0.7692699021266752,,experiment,cRDM,2.0,,,,1476.90471719997,210,21,male,True
572,0.2060087328867073,25,up,up,0.6945717000635341,1.2426753299015951,,experiment,cRDM,2.0,,,,1479.1714917999925,210,21,male,True
573,0.2060087328867073,25,down,down,0.5496176000451669,1.5513716325703522,,experiment,cRDM,2.0,,,,1481.6713878000155,210,21,male,True
574,0.2060087328867073,25,down,down,0.5183830999303609,1.4196807066948816,,experiment,cRDM,2.0,,,,1483.9046522000572,210,21,male,True
575,0.2060087328867073,25,down,down,0.544270999962464,1.4890804704014644,,experiment,cRDM,2.0,,,,1486.18784290005,210,21,male,True
576,0.2060087328867073,25,up,up,0.6584763000719249,1.4163444230303612,,experiment,cRDM,2.0,,,,1488.4045239000116,210,21,male,True
577,0.2060087328867073,25,up,up,0.4928972000489011,0.546826076836218,,experiment,cRDM,2.0,,,,1489.8710892000236,210,21,male,True
578,0.2060087328867073,25,down,down,0.6023841999704018,0.4805100166380891,,experiment,cRDM,2.0,,,,1491.087625700049,210,21,male,True
579,0.2060087328867073,25,up,up,0.5310766999609768,1.3204200477371624,,experiment,cRDM,2.0,,,,1493.270987899974,210,21,male,True
580,0.2060087328867073,25,down,down,0.4647185000358149,0.6849797591453417,,experiment,cRDM,2.0,,,,1494.7542494999943,210,21,male,True
581,0.2060087328867073,25,up,up,0.6487215999513865,1.719963030815551,,experiment,cRDM,2.0,,,,1497.1874046999728,210,21,male,True
582,0.2060087328867073,25,up,up,0.6045701999682933,0.4567583246966842,,experiment,cRDM,2.0,,,,1498.53743450006,210,21,male,True
583,112.0,25,M,up,0.862235700013116,0.6690192956422225,,experiment,emotion,2.0,,,,1562.7517328000397,210,21,male,True
584,92.0,25,M,down,0.6980095999315381,0.6907606672730076,,experiment,emotion,2.0,,,,1564.5849828000646,210,21,male,True
585,105.0,25,F,up,0.4001597999595105,0.4031196065428778,,experiment,emotion,2.0,,,,1565.96828130004,210,21,male,True
586,112.0,25,F,down,0.4961920999921858,1.4220443628606825,,experiment,emotion,2.0,,,,1568.084853200009,210,21,male,True
587,105.0,25,M,down,0.8532149000093341,1.7211662398187118,,experiment,emotion,2.0,,,,1570.5847796000307,210,21,male,True
588,99.0,25,F,up,1.1393309000413865,1.655995008682808,,experiment,emotion,2.0,,,,1573.3846645000158,210,21,male,True
589,92.0,25,M,up,0.7698268999811262,1.2267333771917155,,experiment,emotion,2.0,,,,1576.00118989998,210,21,male,True
590,99.0,25,M,down,0.5862169000320137,1.833304740021387,,experiment,emotion,2.0,,,,1578.8678065000568,210,21,male,True
591,112.0,25,F,up,0.6399012999609113,0.5001292309699924,,experiment,emotion,2.0,,,,1580.251090500038,210,21,male,True
592,99.0,25,F,down,0.4440713000949472,1.646944183943218,,experiment,emotion,2.0,,,,1582.8010020999936,210,21,male,True
593,105.0,25,F,down,0.5277238000417128,1.4548832427894374,,experiment,emotion,2.0,,,,1584.9842370999977,210,21,male,True
594,112.0,25,F,,,0.7569047101324542,,experiment,emotion,2.0,,,,1586.534197699977,210,21,male,True
595,105.0,25,F,down,0.5549442000919953,0.5714534951399715,,experiment,emotion,2.0,,,,1589.7840467999922,210,21,male,True
596,92.0,25,F,down,1.1680178999667987,1.2043568884928346,,experiment,emotion,2.0,,,,1591.8340081999777,210,21,male,True
597,99.0,25,M,down,0.6214810999808833,1.7569987528108195,,experiment,emotion,2.0,,,,1595.050536200055,210,21,male,True
598,92.0,25,M,down,0.5078415999887511,0.5749502724368363,,experiment,emotion,2.0,,,,1596.5171647999668,210,21,male,True
599,112.0,25,M,down,0.4736758000217378,1.8042222951495637,,experiment,emotion,2.0,,,,1599.1003165000584,210,21,male,True
600,92.0,25,M,down,1.3479897999204695,0.7133193511052527,,experiment,emotion,2.0,,,,1600.567003800068,210,21,male,True
601,105.0,25,F,up,0.6354778000386432,0.4871787120102712,,experiment,emotion,2.0,,,,1602.6835780000547,210,21,male,True
602,105.0,25,M,down,0.5737676999997348,0.6170816677803243,,experiment,emotion,2.0,,,,1604.2002971000038,210,21,male,True
603,99.0,25,M,down,0.4212065000319853,1.7541298100341214,,experiment,emotion,2.0,,,,1606.8167801999953,210,21,male,True
604,99.0,25,F,down,0.5689557999139652,0.926303350470226,,experiment,emotion,2.0,,,,1608.4500342999818,210,21,male,True
605,92.0,25,M,down,0.5236602999502793,0.4299512217797895,,experiment,emotion,2.0,,,,1609.7333296999568,210,21,male,True
606,112.0,25,F,up,0.7257164999609813,0.4561172102096384,,experiment,emotion,2.0,,,,1610.9832706999732,210,21,male,True
607,105.0,25,F,up,0.4554129999596625,0.6748388885527447,,experiment,emotion,2.0,,,,1612.6665786000667,210,21,male,True
608,92.0,25,M,up,0.8869124999037012,1.9122173682243924,,experiment,emotion,2.0,,,,1615.2831277999794,210,21,male,True
609,112.0,25,M,down,0.7029817999573424,1.898392035419026,,experiment,emotion,2.0,,,,1618.333012899966,210,21,male,True
610,112.0,25,F,down,0.3834951999597251,0.9224063881363564,,experiment,emotion,2.0,,,,1620.2329436000437,210,21,male,True
611,99.0,25,M,down,0.7084874999709427,1.91073198987136,,experiment,emotion,2.0,,,,1622.849510799977,210,21,male,True
612,92.0,25,F,down,0.400221100077033,0.661980157931291,,experiment,emotion,2.0,,,,1624.4994487999938,210,21,male,True
613,99.0,25,F,up,0.7102470999816433,1.8474145845573988,,experiment,emotion,2.0,,,,1627.032732599997,210,21,male,True
614,105.0,25,F,down,0.4816935000708326,1.1168524069130548,,experiment,emotion,2.0,,,,1629.1492974000284,210,21,male,True
615,92.0,25,M,down,0.5057980000274256,1.890473711220536,,experiment,emotion,2.0,,,,1631.7991867000237,210,21,male,True
616,112.0,25,M,down,0.3835144999902695,1.261474317243862,,experiment,emotion,2.0,,,,1633.8491075000493,210,21,male,True
617,105.0,25,M,down,0.4233389000874012,1.9764875192067008,,experiment,emotion,2.0,,,,1636.515655299998,210,21,male,True
618,112.0,25,F,down,0.445399000076577,1.3441719713359568,,experiment,emotion,2.0,,,,1638.5655897000106,210,21,male,True
619,92.0,25,F,up,0.4533842999953776,0.8018297164386443,,experiment,emotion,2.0,,,,1640.0655590000097,210,21,male,True
620,105.0,25,M,up,0.5179048998979852,0.7448049186603318,,experiment,emotion,2.0,,,,1641.532150199986,210,21,male,True
621,99.0,25,F,down,0.484582099947147,0.5342250891188377,,experiment,emotion,2.0,,,,1642.8654260999756,210,21,male,True
622,99.0,25,M,down,0.4302973999874666,0.6295315171227277,,experiment,emotion,2.0,,,,1644.2487246000674,210,21,male,True
623,105.0,25,M,down,0.5056863999925554,1.6732096248789403,,experiment,emotion,2.0,,,,1646.6153186999727,210,21,male,True
624,112.0,25,M,up,0.4767967999214306,1.181330499303766,,experiment,emotion,2.0,,,,1648.565216399962,210,21,male,True
625,99.0,25,F,up,0.4784629000350833,0.7947964729829569,,experiment,emotion,2.0,,,,1650.0985186999897,210,21,male,True
626,92.0,25,F,down,0.4339101000223309,1.7016877147637457,,experiment,emotion,2.0,,,,1652.5650780999567,210,21,male,True
627,92.0,25,M,down,0.4894201999995857,1.7935407544919542,,experiment,emotion,2.0,,,,1655.081562199979,210,21,male,True
628,99.0,25,F,down,0.5973397000925615,0.4488184481587197,,experiment,emotion,2.0,,,,1656.2816331000067,210,21,male,True
629,112.0,25,F,up,0.5170583999715745,1.4676853657856874,,experiment,emotion,2.0,,,,1658.6148589999648,210,21,male,True
630,105.0,25,M,down,0.43119279993698,1.2512627728395882,,experiment,emotion,2.0,,,,1660.6647602999583,210,21,male,True
631,92.0,25,M,down,0.4376081000082195,1.656596498079885,,experiment,emotion,2.0,,,,1663.0313736000098,210,21,male,True
632,112.0,25,F,down,0.4850341000128537,0.8231727242660847,,experiment,emotion,2.0,,,,1664.5479511000449,210,21,male,True
633,105.0,25,M,up,0.6024380000308156,1.7606640177302542,,experiment,emotion,2.0,,,,1667.0645511000184,210,21,male,True
634,105.0,25,F,up,0.3334510999266058,1.806928976817183,,experiment,emotion,2.0,,,,1669.7477772000711,210,21,male,True
635,92.0,25,F,up,0.316875800024718,0.6350104192807919,,experiment,emotion,2.0,,,,1671.0643901999574,210,21,male,True
636,99.0,25,F,up,0.4197038999991491,1.449153105482918,,experiment,emotion,2.0,,,,1673.214316800004,210,21,male,True
637,112.0,25,M,up,0.4002164000412449,0.3500804069929424,,experiment,emotion,2.0,,,,1674.2476153000025,210,21,male,True
638,99.0,25,M,up,0.651098300004378,1.795220296364904,,experiment,emotion,2.0,,,,1676.73085250007,210,21,male,True
639,99.0,25,F,down,0.7471485999412835,1.724807723560078,,experiment,emotion,2.0,,,,1679.3808388999896,210,21,male,True
640,99.0,25,F,down,0.4372976999729872,0.3949874558244415,,experiment,emotion,2.0,,,,1680.7806903000455,210,21,male,True
641,112.0,25,M,up,0.3835546999471262,1.5052171430519865,,experiment,emotion,2.0,,,,1682.99729129998,210,21,male,True
642,105.0,25,M,up,0.447772299987264,1.7025745312271912,,experiment,emotion,2.0,,,,1685.3972131999908,210,21,male,True
643,92.0,25,M,up,0.3669280000030994,0.6617807942045433,,experiment,emotion,2.0,,,,1686.7804525999818,210,21,male,True
644,92.0,25,M,down,0.487603300018236,1.6318359887706118,,experiment,emotion,2.0,,,,1689.0803870999953,210,21,male,True
645,105.0,25,M,up,0.4223033000016585,1.3236503411978189,,experiment,emotion,2.0,,,,1691.1636546000373,210,21,male,True
646,112.0,25,F,up,0.5441566999070346,0.428402351333935,,experiment,emotion,2.0,,,,1692.2968863999704,210,21,male,True
647,112.0,25,F,down,0.4974600999848917,1.9617463546761047,,experiment,emotion,2.0,,,,1695.06352169998,210,21,male,True
648,92.0,25,M,down,0.5345375000033528,0.4323458442401007,,experiment,emotion,2.0,,,,1696.2634719000198,210,21,male,True
649,112.0,25,F,down,0.4479608999099582,1.1658001453739373,,experiment,emotion,2.0,,,,1698.2300445999715,210,21,male,True
650,99.0,25,F,up,0.4400614999467507,1.2242732653082806,,experiment,emotion,2.0,,,,1700.179974299972,210,21,male,True
651,105.0,25,F,up,0.4916647999780252,0.7353327256517438,,experiment,emotion,2.0,,,,1701.6132797000464,210,21,male,True
652,99.0,25,M,up,0.4168274999829009,1.0511324920433749,,experiment,emotion,2.0,,,,1703.4298721000089,210,21,male,True
653,92.0,25,F,up,0.499201099970378,1.5625193238031831,,experiment,emotion,2.0,,,,1705.6797755999723,210,21,male,True
654,105.0,25,F,up,0.5083493000129238,1.3135387193518648,,experiment,emotion,2.0,,,,1707.7796130999925,210,21,male,True
655,99.0,25,F,up,0.3835374000482261,1.618994182623757,,experiment,emotion,2.0,,,,1710.1795853000367,210,21,male,True
656,105.0,25,M,up,0.3835078999400139,1.611421171076906,,experiment,emotion,2.0,,,,1712.479523099959,210,21,male,True
657,92.0,25,M,up,0.383491100044921,1.7822601125000528,,experiment,emotion,2.0,,,,1714.946110800025,210,21,male,True
658,112.0,25,F,down,0.4642741000279784,1.3597191565182702,,experiment,emotion,2.0,,,,1717.012698500068,210,21,male,True
659,105.0,25,M,down,0.5376227999804541,0.7826017563175462,,experiment,emotion,2.0,,,,1718.5293280000333,210,21,male,True
660,112.0,25,F,up,0.4487097000237554,0.5056953923958024,,experiment,emotion,2.0,,,,1719.829265999957,210,21,male,True
661,92.0,25,M,up,0.6934633000055328,1.77331016160906,,experiment,emotion,2.0,,,,1722.3125099999595,210,21,male,True
662,99.0,25,M,up,0.5895827000495046,0.6605226771894339,,experiment,emotion,2.0,,,,1723.962452000007,210,21,male,True
663,0.2060087328867073,25,up,up,0.4948344000149518,1.2562403265437423,,experiment,cRDM,3.0,,,,1738.545196000021,210,21,male,True
664,0.2060087328867073,25,up,up,0.3339043000014499,0.385810923941896,,experiment,cRDM,3.0,,,,1739.6785302000353,210,21,male,True
665,0.2060087328867073,25,down,down,0.4721180000342428,0.8088840025843635,,experiment,cRDM,3.0,,,,1741.1618520000484,210,21,male,True
666,0.2060087328867073,25,down,down,0.5392707999562845,1.202752500017125,,experiment,cRDM,3.0,,,,1743.111766200047,210,21,male,True
667,0.2060087328867073,25,up,up,0.7176063000224531,0.4177110194623008,,experiment,cRDM,3.0,,,,1744.3283627000635,210,21,male,True
668,0.2060087328867073,25,down,down,0.5659848999930546,0.3836218349220526,,experiment,cRDM,3.0,,,,1745.694987899973,210,21,male,True
669,0.2060087328867073,25,up,down,0.3671530000865459,0.9989851566487552,,experiment,cRDM,3.0,,,,1747.5282517999876,210,21,male,True
670,0.2060087328867073,25,up,up,0.4659309999551624,1.7723890228654382,,experiment,cRDM,3.0,,,,1749.978130700067,210,21,male,True
671,0.2060087328867073,25,down,down,0.4582005999982357,0.5326083088325787,,experiment,cRDM,3.0,,,,1751.2447682999773,210,21,male,True
672,0.2060087328867073,25,down,down,0.4719061999348923,1.7660201250922107,,experiment,cRDM,3.0,,,,1753.7280222000554,210,21,male,True
673,0.2060087328867073,25,down,down,0.4354575999313965,0.6295990841036835,,experiment,cRDM,3.0,,,,1755.0945095999632,210,21,male,True
674,0.2060087328867073,25,down,down,0.5250694000860676,0.4742304902212172,,experiment,cRDM,3.0,,,,1756.2612514999928,210,21,male,True
675,0.2060087328867073,25,down,down,0.4805022000800818,1.289488425053277,,experiment,cRDM,3.0,,,,1758.3444992000004,210,21,male,True
676,0.2060087328867073,25,down,down,0.5049191999714822,1.0762632217209998,,experiment,cRDM,3.0,,,,1760.1610997000244,210,21,male,True
677,0.2060087328867073,25,up,up,0.5395418000407517,1.363324729074163,,experiment,cRDM,3.0,,,,1762.2944335000357,210,21,male,True
678,0.2060087328867073,25,up,up,0.5486532000359148,1.3007740241689654,,experiment,cRDM,3.0,,,,1764.3943107000086,210,21,male,True
679,0.2060087328867073,25,up,up,0.4877207000972703,0.5903388669954726,,experiment,cRDM,3.0,,,,1765.7942592999898,210,21,male,True
680,0.2060087328867073,25,up,up,0.6325094000203535,1.03568600981782,,experiment,cRDM,3.0,,,,1767.5774806999834,210,21,male,True
681,0.2060087328867073,25,down,down,0.4738962000701576,0.970039180848324,,experiment,cRDM,3.0,,,,1769.4440924000228,210,21,male,True
682,0.2060087328867073,25,up,up,0.5076624000212178,0.8009671388971273,,experiment,cRDM,3.0,,,,1770.9773631000426,210,21,male,True
683,0.2060087328867073,25,up,up,0.5466863999608904,0.7390809362395716,,experiment,cRDM,3.0,,,,1772.477289600065,210,21,male,True
684,0.2060087328867073,25,down,down,0.4660362000577152,1.0172123084237992,,experiment,cRDM,3.0,,,,1774.293939199997,210,21,male,True
685,0.2060087328867073,25,up,up,0.3504829999292269,0.7793965548114765,,experiment,cRDM,3.0,,,,1775.8105383999646,210,21,male,True
686,0.2060087328867073,25,down,down,0.4998629000037908,1.6374034012586776,,experiment,cRDM,3.0,,,,1778.127105499967,210,21,male,True
687,0.2060087328867073,25,down,down,0.4472738999174908,0.363128671581757,,experiment,cRDM,3.0,,,,1779.243727199966,210,21,male,True
688,0.2060087328867073,25,up,up,0.5066213998943567,1.006198228549016,,experiment,cRDM,3.0,,,,1780.9603265000042,210,21,male,True
689,0.2060087328867073,25,up,up,0.4171072000171989,1.1868131744491457,,experiment,cRDM,3.0,,,,1782.926924600033,210,21,male,True
690,0.2060087328867073,25,down,down,0.4168270999798551,1.7037600539909032,,experiment,cRDM,3.0,,,,1785.3102003000677,210,21,male,True
691,0.2060087328867073,25,up,up,0.5335336999269202,1.057785274988965,,experiment,cRDM,3.0,,,,1787.0434429000595,210,21,male,True
692,0.2060087328867073,25,down,down,0.3838123999303207,0.4572362114035273,,experiment,cRDM,3.0,,,,1788.2934282000642,210,21,male,True
693,0.2060087328867073,25,down,down,0.5746626999462023,1.7668437946703026,,experiment,cRDM,3.0,,,,1790.743314399966,210,21,male,True
694,0.2060087328867073,25,down,down,0.8514296000357717,1.1480444625080353,,experiment,cRDM,3.0,,,,1792.7265677000396,210,21,male,True
695,0.2060087328867073,25,up,up,0.4468706999905407,1.56338250588996,,experiment,cRDM,3.0,,,,1795.393162399996,210,21,male,True
696,0.2060087328867073,25,up,up,0.3838201999897137,0.6262179692149974,,experiment,cRDM,3.0,,,,1796.7430756000103,210,21,male,True
697,0.2060087328867073,25,up,up,0.5136852000141516,0.4539528952274289,,experiment,cRDM,3.0,,,,1797.876277800067,210,21,male,True
698,0.2060087328867073,25,down,down,0.5838155999081209,1.9276931012374507,,experiment,cRDM,3.0,,,,1800.5761953999754,210,21,male,True
699,0.2060087328867073,25,down,down,0.5193553999997675,0.4260913833323234,,experiment,cRDM,3.0,,,,1801.859557899996,210,21,male,True
700,0.2060087328867073,25,up,up,0.5097372999880463,0.3303866385947981,,experiment,cRDM,3.0,,,,1802.97621610004,210,21,male,True
701,0.2060087328867073,25,down,down,0.469835800002329,1.0848729935432286,,experiment,cRDM,3.0,,,,1804.826111900038,210,21,male,True
702,0.2060087328867073,25,up,up,0.4735707000363618,1.2601472557972984,,experiment,cRDM,3.0,,,,1806.8093883000547,210,21,male,True
703,0.2060087328867073,25,up,up,0.5460526999086142,1.892640181055883,,experiment,cRDM,3.0,,,,1809.4259683999696,210,21,male,True
704,0.2060087328867073,25,up,up,0.5518342000432312,1.8064323136304967,,experiment,cRDM,3.0,,,,1812.059181399993,210,21,male,True
705,0.2060087328867073,25,down,down,0.53246300003957,1.4065587745116992,,experiment,cRDM,3.0,,,,1814.2924601000268,210,21,male,True
706,0.2060087328867073,25,down,down,0.5332484999671578,0.4438217900538458,,experiment,cRDM,3.0,,,,1815.5257280999797,210,21,male,True
707,0.2060087328867073,25,up,up,0.6103417000267655,1.5070075133769243,,experiment,cRDM,3.0,,,,1817.825646799989,210,21,male,True
708,0.2060087328867073,25,down,down,0.5930756999878213,1.7142512554930651,,experiment,cRDM,3.0,,,,1820.4088808000088,210,21,male,True
709,0.2060087328867073,25,down,down,0.6661945999367163,1.4908382034097405,,experiment,cRDM,3.0,,,,1822.758781600045,210,21,male,True
710,0.2060087328867073,25,up,up,0.5825641999254003,1.8813969231837475,,experiment,cRDM,3.0,,,,1825.57540099998,210,21,male,True
711,0.2060087328867073,25,up,up,0.5916786000598222,1.7070535122607773,,experiment,cRDM,3.0,,,,1828.125278600026,210,21,male,True
712,0.2060087328867073,25,down,down,0.488736700033769,1.056778099939495,,experiment,cRDM,3.0,,,,1830.0252321000444,210,21,male,True
713,0.2060087328867073,25,up,up,0.3004950999747962,1.8197883804625352,,experiment,cRDM,3.0,,,,1832.5917847000528,210,21,male,True
714,0.2060087328867073,25,down,down,0.6522612000117078,0.4648815739930514,,experiment,cRDM,3.0,,,,1833.741719200043,210,21,male,True
715,0.2060087328867073,25,down,down,0.6257021999917924,1.4526941956001165,,experiment,cRDM,3.0,,,,1836.1082990999569,210,21,male,True
716,0.2060087328867073,25,down,down,0.5770967000862584,0.6238706673204426,,experiment,cRDM,3.0,,,,1837.6249067999888,210,21,male,True
717,0.2060087328867073,25,up,up,0.4267834000056609,0.9477499642985758,,experiment,cRDM,3.0,,,,1839.408172299969,210,21,male,True
718,0.2060087328867073,25,up,up,0.5665574000449851,1.6503150950541887,,experiment,cRDM,3.0,,,,1841.74141040002,210,21,male,True
719,0.2060087328867073,25,down,down,0.4933041000040248,0.5518356157964658,,experiment,cRDM,3.0,,,,1843.124698700034,210,21,male,True
720,0.2060087328867073,25,down,down,0.6820143000222743,1.7252279741901102,,experiment,cRDM,3.0,,,,1845.6079438000447,210,21,male,True
721,0.2060087328867073,25,up,up,0.4002628999296576,1.3242131351600217,,experiment,cRDM,3.0,,,,1847.8912299000656,210,21,male,True
722,0.2060087328867073,25,up,down,0.5127863999223337,1.8297354832171493,,experiment,cRDM,3.0,,,,1850.3911395999603,210,21,male,True
723,0.2060087328867073,25,up,up,0.5031921999761835,0.3939914215800566,,experiment,cRDM,3.0,,,,1851.5577548999568,210,21,male,True
724,0.2060087328867073,25,up,up,0.8162973000435159,0.9855277704373896,,experiment,cRDM,3.0,,,,1853.3076578000328,210,21,male,True
725,0.2060087328867073,25,up,up,0.655700899893418,0.928404747378778,,experiment,cRDM,3.0,,,,1855.32425429998,210,21,male,True
726,0.2060087328867073,25,down,down,0.5684215000364929,0.3560616103252608,,experiment,cRDM,3.0,,,,1856.6075483000604,210,21,male,True
727,0.2060087328867073,25,down,up,0.4845038000494241,1.3565055194355051,,experiment,cRDM,3.0,,,,1858.8074705000035,210,21,male,True
728,0.2060087328867073,25,up,up,0.5242126000812277,0.3895801763360529,,experiment,cRDM,3.0,,,,1859.9407419000052,210,21,male,True
729,0.2060087328867073,25,down,,,1.3959846016006223,,experiment,cRDM,3.0,,,,1862.12401150004,210,21,male,True
730,0.2060087328867073,25,down,down,0.7834019000874832,1.595708750442313,,experiment,cRDM,3.0,,,,1866.3905477999945,210,21,male,True
731,0.2060087328867073,25,down,up,0.4002404999919235,0.45483395070908,,experiment,cRDM,3.0,,,,1867.8904850999825,210,21,male,True
732,0.2060087328867073,25,up,up,0.6779240000760183,1.9485031444101717,,experiment,cRDM,3.0,,,,1870.5070348000156,210,21,male,True
733,0.2060087328867073,25,down,down,0.8459880000445992,0.8042209711888151,,experiment,cRDM,3.0,,,,1872.2569575000089,210,21,male,True
734,0.2060087328867073,25,down,up,1.0274342999327928,1.7177453921727344,,experiment,cRDM,3.0,,,,1875.073517999961,210,21,male,True
735,0.2060087328867073,25,down,up,1.0285162999061868,0.3170952125811471,,experiment,cRDM,3.0,,,,1876.6734319999812,210,21,male,True
736,0.2060087328867073,25,up,up,0.7106418999610469,1.4608665944622912,,experiment,cRDM,3.0,,,,1879.4233761000212,210,21,male,True
737,0.2060087328867073,25,up,up,0.894645499996841,0.972001751133344,,experiment,cRDM,3.0,,,,1881.3733038000064,210,21,male,True
