,stimLvl,stimTime,rand,response,rt,precedingITI,trialNumber,trialType,stimuli,block,estIntens,estThres,estSlope,trialStart,subject,age,gender,headRest
0,150.0,100,F,,,1.7930341448038494,,introTrial,emotion,,,,,160.0989450000052,101,24,female,True
1,0.9,100,down,,,0.9878596936935116,,introTrial,cRDM,,,,,165.03203509998275,101,24,female,True
2,200.0,25,F,up,0.9097834999847692,1.442489886467699,,tutorial,emotion,,,,,201.6640783000039,101,24,female,True
3,200.0,25,F,up,0.5262372000142932,1.9320945188777945,,tutorial,emotion,,,,,204.78064549999544,101,24,female,True
4,200.0,25,M,up,0.3501672999991569,1.9292530789752864,,tutorial,emotion,,,,,207.5305307999952,101,24,female,True
5,0.0,25,F,down,0.5240653999790084,0.8193643579596137,,tutorial,emotion,,,,,209.06378130000667,101,24,female,True
6,0.0,25,M,down,0.4497515000111889,1.432627025128887,,tutorial,emotion,,,,,211.29709279999952,101,24,female,True
7,200.0,25,M,up,0.4802219000121113,1.632949794741416,,tutorial,emotion,,,,,213.6636268000002,101,24,female,True
8,0.0,25,M,down,0.546925700007705,0.4028632538085318,,tutorial,emotion,,,,,214.79694929998368,101,24,female,True
9,200.0,25,M,up,0.4263640000135638,1.5518624430161814,,tutorial,emotion,,,,,217.1635021999828,101,24,female,True
10,0.0,25,F,down,1.488382300012745,0.5018792818751352,,tutorial,emotion,,,,,218.3804642999894,101,24,female,True
11,0.0,25,F,up,0.4001831000205129,1.956434047338237,,tutorial,emotion,,,,,222.113329099986,101,24,female,True
12,0.9,25,up,up,0.8123513000027742,0.9052309823469892,,tutorial,cRDM,,,,,234.02949829999125,101,24,female,True
13,0.9,25,up,down,0.7607419000123627,0.4259533744608024,,tutorial,cRDM,,,,,235.54610469998445,101,24,female,True
14,0.9,25,down,up,0.4527931000047829,1.6289944658252415,,tutorial,cRDM,,,,,238.19605289999163,101,24,female,True
15,0.9,25,down,up,0.6159983999968972,1.8116320412882645,,tutorial,cRDM,,,,,240.74589729998843,101,24,female,True
16,0.9,25,up,up,0.4953937999962363,0.4338840162589549,,tutorial,cRDM,,,,,242.06251299998257,101,24,female,True
17,0.9,25,down,down,0.4726773999864235,0.6482576223473351,,tutorial,cRDM,,,,,243.47916849999456,101,24,female,True
18,0.9,25,up,up,0.5394045999855734,1.3419076604305145,,tutorial,cRDM,,,,,245.56240049999903,101,24,female,True
19,0.9,25,up,up,0.4188575999869499,1.4176311294326764,,tutorial,cRDM,,,,,247.77900680000312,101,24,female,True
20,0.9,25,down,down,0.5266059999994468,1.1881395839641269,,tutorial,cRDM,,,,,249.66224249999505,101,24,female,True
21,0.9,25,down,down,0.5563788000144996,1.3410652010143715,,tutorial,cRDM,,,,,251.7955008999852,101,24,female,True
22,100.0,25,M,up,0.7936357999860775,1.3291943277557046,,psi_staircase_training,emotion,,100.0,100.0,25.00050000000001,258.1792220000061,101,24,female,True
23,55.0,25,M,down,0.8022585000144318,1.8403615290366668,,psi_staircase_training,emotion,,54.7428094675419,54.7428094675419,25.00050000000011,261.1785887999868,101,24,female,True
24,79.0,25,F,down,0.6087143000040669,0.5158444342971835,,psi_staircase_training,emotion,,79.636070985635,79.636070985635,25.713269254886413,262.8451495000045,101,24,female,True
25,103.0,25,F,down,0.3835078999982215,1.7876461615154726,,psi_staircase_training,emotion,,97.61123893914808,97.61123893914808,26.1463337262867,265.57838699998683,101,24,female,True
26,127.0,25,M,up,0.5812093999993522,0.8786796827038366,,psi_staircase_training,emotion,,117.15641007867752,117.15641007867752,31.432291447829705,267.21167499999865,101,24,female,True
27,116.0,25,F,up,0.4199210999940987,1.8548126101783948,,psi_staircase_training,emotion,,105.03864224082596,105.03864224082596,29.694064005485792,269.9949018000043,101,24,female,True
28,88.0,25,M,up,0.4169122999883257,0.8107555910239725,,psi_staircase_training,emotion,,98.16151255584974,98.16151255584974,27.875884705401127,271.59486369998194,101,24,female,True
29,74.0,25,F,down,0.5097174000111409,1.6813822251477897,,psi_staircase_training,emotion,,88.18732141252634,88.18732141252634,31.080646395593384,274.028100800002,101,24,female,True
30,76.0,25,F,down,0.5141693000041414,0.6715347145452929,,psi_staircase_training,emotion,,92.88252185135836,92.88252185135836,29.457244424775983,275.5616941000044,101,24,female,True
31,112.0,25,M,up,0.748156999994535,1.2774278121443807,,psi_staircase_training,emotion,,96.17439572928065,96.17439572928065,28.02319218293509,277.6946517000033,101,24,female,True
32,89.0,25,F,up,0.8013229999924079,0.8440547379145382,,psi_staircase_training,emotion,,93.03346523794522,93.03346523794522,26.248053615271047,279.6445479000104,101,24,female,True
33,71.0,25,F,up,0.3834899000066798,0.8160543871063606,,psi_staircase_training,emotion,,88.07556487901617,88.07556487901617,26.638375133391676,281.62783219999983,101,24,female,True
34,60.0,25,F,up,0.4831315999908838,1.3767982541800503,,psi_staircase_training,emotion,,81.69711549426911,81.69711549426911,32.21741401757639,283.7777486999985,101,24,female,True
35,52.0,25,M,up,0.538550800003577,1.0236430703777717,,psi_staircase_training,emotion,,74.69756705613307,74.69756705613307,36.17776781238353,285.6443527000083,101,24,female,True
36,46.0,25,M,up,0.333487600000808,1.873186426447367,,psi_staircase_training,emotion,,67.81721367660955,67.81721367660955,38.85309314435516,288.394254999992,101,24,female,True
37,42.0,25,F,up,0.3001243000035174,0.8893936888361216,,psi_staircase_training,emotion,,61.29598164444128,61.29598164444128,40.67492592410927,290.0441961000033,101,24,female,True
38,38.0,25,F,up,0.2501708999916445,1.3284970275408343,,psi_staircase_training,emotion,,55.26501273987529,55.26501273987529,41.92401785125282,292.14410499998485,101,24,female,True
39,35.0,25,M,up,0.2501651000056881,1.5211251830515915,,psi_staircase_training,emotion,,49.63001243337504,49.63001243337504,42.84928485304968,294.44401979999384,101,24,female,True
40,32.0,25,M,up,0.2334970000083558,1.6296151740842453,,psi_staircase_training,emotion,,44.41981455592391,44.41981455592391,43.53846274768711,296.82726069999626,101,24,female,True
41,29.0,25,M,down,0.3336913000093773,0.8335817023728112,,psi_staircase_training,emotion,,39.5872485125752,39.5872485125752,44.07138220718121,298.41053769999417,101,24,female,True
42,30.0,25,M,down,0.3001681000168901,0.6179913730630391,,psi_staircase_training,emotion,,42.6746691562848,42.6746691562848,43.78148017568905,299.7938307999866,101,24,female,True
43,32.0,25,F,down,0.2334885000018403,0.6485435077929332,,psi_staircase_training,emotion,,45.439523678235325,45.439523678235325,43.48880659520708,301.19378639999195,101,24,female,True
44,34.0,25,F,down,0.3336078000138514,1.3675034242012851,,psi_staircase_training,emotion,,47.96683505697667,47.96683505697667,43.20340675695021,303.3103437999962,101,24,female,True
45,36.0,25,F,down,0.383806400001049,1.8196259318716912,,psi_staircase_training,emotion,,50.28940863597864,50.28940863597864,42.92888178485719,305.89360360000865,101,24,female,True
46,38.0,25,M,down,0.2831868999928701,1.6240587503242412,,psi_staircase_training,emotion,,52.44011116691371,52.44011116691371,42.66784746829867,308.27716379999765,101,24,female,True
47,41.0,25,M,down,0.3002332000178285,1.8408895944329424,,psi_staircase_training,emotion,,54.44819743251875,54.44819743251875,42.42247550603093,310.8934214999899,101,24,female,True
48,47.0,25,F,down,0.3168637999915518,1.5616886824359766,,psi_staircase_training,emotion,,56.37781237739992,56.37781237739992,42.20308720011125,313.2266302999924,101,24,female,True
49,75.0,25,F,down,0.2835164999996777,0.6619606419413169,,psi_staircase_training,emotion,,58.364244118928,58.364244118928,42.04841925816948,314.65992249999545,101,24,female,True
50,78.0,25,M,down,0.2501882000069599,1.421523481903662,,psi_staircase_training,emotion,,61.38126513995336,61.38126513995336,42.49853191187528,316.8598442999937,101,24,female,True
51,80.0,25,M,down,0.7150366000132635,0.9382997286876212,,psi_staircase_training,emotion,,64.29222912718625,64.29222912718625,42.92618037237364,318.5597895999963,101,24,female,True
52,0.29,25,up,up,0.4739522999734618,0.3800175544017238,,psi_staircase_training,cRDM,,0.25,0.2569312402994632,0.105,323.34288370001013,101,24,female,True
53,0.25,25,up,down,0.462994700006675,0.4002667998456369,,psi_staircase_training,cRDM,,0.2191026665318312,0.2260132002683492,0.1046863203387393,324.49284249998163,101,24,female,True
54,0.36,25,down,up,0.2505338000191841,0.9213617155925218,,psi_staircase_training,cRDM,,0.3202997408361979,0.3276103223604739,0.1107465658214764,326.15943169998354,101,24,female,True
55,0.43,25,down,down,0.4477730000216979,0.3825129157254145,,psi_staircase_training,cRDM,,0.3923744910111199,0.399460699682156,0.1073475854698633,327.22608659998514,101,24,female,True
56,0.42,25,up,up,0.5080746999883559,0.6409743302157288,,psi_staircase_training,cRDM,,0.3798855818941703,0.3870986840618792,0.1092698701656739,328.59273020000546,101,24,female,True
57,0.41,25,down,down,0.4002667000168003,0.9755664085545326,,psi_staircase_training,cRDM,,0.367671626369661,0.3749288789433721,0.1099386960077944,330.34260450000875,101,24,female,True
58,0.4,25,up,up,0.5457448000088334,1.9339629103122704,,psi_staircase_training,cRDM,,0.3556959873710901,0.3629517119809007,0.1099155491823169,332.976139699982,101,24,female,True
59,0.38,25,down,down,0.4350309999717865,0.8867286615608674,,psi_staircase_training,cRDM,,0.3437947038291127,0.3510426890304228,0.1097983064007317,334.6758050000062,101,24,female,True
60,0.35,25,down,up,0.3838346999837085,1.961114788499838,,psi_staircase_training,cRDM,,0.330039618891669,0.3374693330025544,0.1125512820127412,337.34235069999704,101,24,female,True
61,0.41,25,up,up,0.4388806000060867,0.9769999360424504,,psi_staircase_training,cRDM,,0.3735966710822738,0.3798039351887086,0.0940326266319366,339.00897460000124,101,24,female,True
62,0.4,25,down,up,0.4169507000187877,0.6483582268468218,,psi_staircase_training,cRDM,,0.3668836251399018,0.3727790321556506,0.0893083647239235,340.3756202000077,101,24,female,True
63,0.43,25,down,down,0.5206420999893453,0.8299254381854917,,psi_staircase_training,cRDM,,0.3971026671942929,0.4043666822925039,0.1100411401652339,341.8922063999926,101,24,female,True
64,0.43,25,down,down,0.416999900015071,0.4076924147791224,,psi_staircase_training,cRDM,,0.3906688511404719,0.3976941361867251,0.1064246654258559,343.09214940000675,101,24,female,True
65,0.43,25,up,up,0.5953834000101779,0.7842191190321535,,psi_staircase_training,cRDM,,0.3851893809389012,0.3919020163271691,0.101688397071259,344.57546439999714,101,24,female,True
66,0.43,25,up,up,0.6074703000194859,0.7330712345940193,,psi_staircase_training,cRDM,,0.3806545380916005,0.3870088065253731,0.0962595663575223,346.17537049998646,101,24,female,True
67,0.39,25,down,down,0.2671454999945126,0.950386834029771,,psi_staircase_training,cRDM,,0.3770129398650932,0.3829860954089099,0.0904861619282371,348.00865169998724,101,24,female,True
68,0.39,25,down,up,0.3340726000024006,1.5000303337157546,,psi_staircase_training,cRDM,,0.3687568174394528,0.3750966788346151,0.0960413169550039,350.2085511999903,101,24,female,True
69,0.43,25,up,down,0.3505314000067301,0.6167343180829716,,psi_staircase_training,cRDM,,0.3923521535583821,0.3979657191479564,0.0850388042311773,351.5251760999963,101,24,female,True
70,0.45,25,up,up,0.4170207999995909,0.5950491167823004,,psi_staircase_training,cRDM,,0.409448547751707,0.4178352239126233,0.1270481124373086,352.808466699993,101,24,female,True
71,0.45,25,up,up,0.3505085000069812,0.6483570504676541,,psi_staircase_training,cRDM,,0.4047733820992439,0.4129484962985181,0.1238432017701453,354.14172029998736,101,24,female,True
72,0.45,25,up,up,0.3838228000095114,0.9150774666792416,,psi_staircase_training,cRDM,,0.4005715776657322,0.4084803446594857,0.1198083601874861,355.7583423999895,101,24,female,True
73,0.45,25,down,up,0.3838473999931011,1.3422541883910326,,psi_staircase_training,cRDM,,0.3968633965641954,0.4044640343278415,0.1151405709083048,357.7916147999931,101,24,female,True
74,0.45,25,down,down,0.3005084000178613,0.7607192836909378,,psi_staircase_training,cRDM,,0.4141953887328685,0.4236294483009095,0.142914718267814,359.258505899983,101,24,female,True
75,0.45,25,down,down,0.416990400000941,0.9396193948283462,,psi_staircase_training,cRDM,,0.4095372067659303,0.418918530834621,0.1421158385301992,360.8915142999904,101,24,female,True
76,0.45,25,up,up,0.4444729999813717,1.1466865594116922,,psi_staircase_training,cRDM,,0.4050533024539658,0.4143433703622979,0.1407334168533169,362.7414201000065,101,24,female,True
77,0.45,25,up,down,0.3672034999763127,0.4410344795214584,,psi_staircase_training,cRDM,,0.4007672683220741,0.4099328625356171,0.1388477892616913,363.8913859000022,101,24,female,True
78,0.47,25,down,up,0.400264399999287,0.7095710867628006,,psi_staircase_training,cRDM,,0.4180501430747805,0.4278702479526586,0.1487628429585752,365.29133680000086,101,24,female,True
79,0.46,25,down,down,0.41700449999189,0.5997241045597612,,psi_staircase_training,cRDM,,0.4331525631748988,0.4432229184983149,0.1525538378810159,366.5912957999972,101,24,female,True
80,0.46,25,up,down,0.3005108999786898,0.7288384059901792,,psi_staircase_training,cRDM,,0.4294291696079587,0.4395486369993066,0.1532978269666694,368.0245609999984,101,24,female,True
81,0.46,25,up,down,0.4833385999954771,1.6452870597959757,,psi_staircase_training,cRDM,,0.4419110938108012,0.4519486328816043,0.1520567109058303,370.3745432999858,101,24,female,True
82,100.0,25,M,up,0.6099382000102196,1.0512061622877582,,psi_staircase,emotion,,100.0,100.0,25.00050000000001,379.3408913000021,101,24,female,True
83,55.0,25,M,down,0.5533607999968808,0.4545565254609201,,psi_staircase,emotion,,54.7428094675419,54.7428094675419,25.00050000000011,380.7574963000079,101,24,female,True
84,79.0,25,F,down,0.3835344999970402,0.8029964609697156,,psi_staircase,emotion,,79.636070985635,79.636070985635,25.713269254886413,382.4574222000083,101,24,female,True
85,103.0,25,F,down,0.4169736999901943,1.8980608138987312,,psi_staircase,emotion,,97.61123893914808,97.61123893914808,26.1463337262867,385.12399239998194,101,24,female,True
86,127.0,25,M,up,0.4542187000042759,0.6682171486599355,,psi_staircase,emotion,,117.15641007867752,117.15641007867752,31.432291447829705,386.5406247999927,101,24,female,True
87,116.0,25,F,up,0.3001555000082589,0.4935009839626721,,psi_staircase,emotion,,105.03864224082596,105.03864224082596,29.694064005485792,387.84057629999006,101,24,female,True
88,88.0,25,M,up,0.2835120999952778,1.3090746810827851,,psi_staircase,emotion,,98.16151255584974,98.16151255584974,27.875884705401127,389.9071773999895,101,24,female,True
89,74.0,25,F,up,0.3002048999769613,1.237512577728517,,psi_staircase,emotion,,88.18732141252634,88.18732141252634,31.080646395593384,391.9237238999922,101,24,female,True
90,62.0,25,F,down,0.2834907000069506,0.7496853481951142,,psi_staircase,emotion,,78.20249408374599,78.20249408374599,34.532977893468455,393.44037689999095,101,24,female,True
91,64.0,25,M,down,0.3001686000206973,1.634598696938919,,psi_staircase,emotion,,82.83417189499671,82.83417189499671,33.25247293857655,395.84028599999147,101,24,female,True
92,104.0,25,F,down,0.2502165000187233,1.1739017382418844,,psi_staircase,emotion,,86.2667798057616,86.2667798057616,32.096587490511,397.7735046999878,101,24,female,True
93,115.0,25,F,down,0.2668394999927841,1.0373533418501375,,psi_staircase,emotion,,93.53908475381355,93.53908475381355,34.82408185385336,399.5568098000076,101,24,female,True
94,122.0,25,F,down,0.2667403999948874,1.323326765536561,,psi_staircase,emotion,,100.77712984848569,100.77712984848569,37.358666665508416,401.65681230000337,101,24,female,True
95,127.0,25,M,up,0.2834280999959446,1.7805370774401104,,psi_staircase,emotion,,107.68069254191155,107.68069254191155,39.28438406006656,404.1900736000098,101,24,female,True
96,126.0,25,M,up,0.3002081999729853,1.9466161565129128,,psi_staircase,emotion,,104.68239237502009,104.68239237502009,38.62942223852464,406.8898848000099,101,24,female,True
97,124.0,25,F,up,0.2668408999743406,0.6134039008312594,,psi_staircase,emotion,,102.16553268887512,102.16553268887512,38.00814983260763,408.2731523999828,101,24,female,True
98,77.0,25,F,up,0.3168200000072829,0.9597839919782324,,psi_staircase,emotion,,99.94828145494566,99.94828145494566,37.42387942554427,410.0064283999964,101,24,female,True
99,73.0,25,M,down,0.629538599983789,1.3038401362037315,,psi_staircase,emotion,,94.7339779200718,94.7339779200718,39.0713479414251,412.0563368999865,101,24,female,True
100,74.0,25,M,down,0.3168429999786895,1.845269937622968,,psi_staircase,emotion,,96.78738277844326,96.78738277844326,38.54442460847192,414.88958660000935,101,24,female,True
101,124.0,25,M,down,0.2835011999995913,1.018272265588808,,psi_staircase,emotion,,98.61356206505432,98.61356206505432,38.03604245353577,416.656177900004,101,24,female,True
102,127.0,25,M,down,0.5770254000090063,0.6099299334773003,,psi_staircase,emotion,,103.23105367376824,103.23105367376824,39.67171741343407,418.0227913999988,101,24,female,True
103,130.0,25,F,up,0.3834824000077788,0.3640237253913578,,psi_staircase,emotion,,107.60479344670269,107.60479344670269,40.90925387336938,419.3061056000006,101,24,female,True
104,129.0,25,F,up,0.3002148999948986,1.589294795307316,,psi_staircase,emotion,,105.83499500756012,105.83499500756012,40.49167518485885,421.6725911000103,101,24,female,True
105,128.0,25,F,up,0.2835014000011142,0.4430059496738437,,psi_staircase,emotion,,104.22276849416008,104.22276849416008,40.08417971707604,422.9059526000056,101,24,female,True
106,77.0,25,M,up,0.2336064999981317,0.914296807546225,,psi_staircase,emotion,,102.74296772413176,102.74296772413176,39.68721691844036,424.5892327000038,101,24,female,True
107,75.0,25,M,down,0.5156462000159081,1.9322855744588647,,psi_staircase,emotion,,99.014270436369,99.014270436369,40.89237651748594,427.28914899998927,101,24,female,True
108,76.0,25,F,down,0.366908500000136,1.7093057467377932,,psi_staircase,emotion,,100.42034177855255,100.42034177855255,40.52313749539175,429.8723607999855,101,24,female,True
109,129.0,25,F,down,0.4002021999913268,0.739462365552576,,psi_staircase,emotion,,101.7297896888204,101.7297896888204,40.159970294141424,431.37264159999904,101,24,female,True
110,130.0,25,M,up,0.491869499994209,0.4574411907019344,,psi_staircase,emotion,,105.13172864864907,105.13172864864907,41.30675952353665,432.5889416999999,101,24,female,True
111,129.0,25,M,up,0.5496689999999944,1.1420858326962742,,psi_staircase,emotion,,103.8818372763447,103.8818372763447,40.96902598373778,434.5721820000035,101,24,female,True
112,75.0,25,F,up,0.3335152999788988,1.876228415687533,,psi_staircase,emotion,,102.70722925576788,102.70722925576788,40.63627392806296,437.338751400006,101,24,female,True
113,75.0,25,M,down,0.5651858999917749,1.1530797451560155,,psi_staircase,emotion,,99.60479215389364,99.60479215389364,41.687230765159725,439.2386763000104,101,24,female,True
114,75.0,25,F,down,0.3835071999928914,0.7713685138853656,,psi_staircase,emotion,,100.75378329871364,100.75378329871364,41.3829861140325,440.9052956000087,101,24,female,True
115,130.0,25,M,down,0.3335221000015735,0.3564144873877164,,psi_staircase,emotion,,101.8169259888116,101.8169259888116,41.07902465057866,442.021926699992,101,24,female,True
116,130.0,25,F,up,0.4946750999952201,1.8950602322707888,,psi_staircase,emotion,,104.67199652567564,104.67199652567564,42.04610572762967,444.67213980000815,101,24,female,True
117,130.0,25,M,up,0.3334809000079985,1.114042022325498,,psi_staircase,emotion,,103.62717120787914,103.62717120787914,41.76408811328682,446.6217535999895,101,24,female,True
118,75.0,25,F,down,0.528760199988028,1.165279008249126,,psi_staircase,emotion,,102.6544232542684,102.6544232542684,41.48205846949288,448.5549972000008,101,24,female,True
119,133.0,25,M,up,0.5845476999820676,1.9012769989564275,,psi_staircase,emotion,,103.56579706246492,103.56579706246492,41.18351196268223,451.3382361999829,101,24,female,True
120,72.0,25,M,down,0.5086374999955297,0.36161127800106,,psi_staircase,emotion,,102.72652373125904,102.72652373125904,40.87287177458638,452.6381758000061,101,24,female,True
121,135.0,25,F,up,0.5310479000036139,1.306548424822838,,psi_staircase,emotion,,103.51220836887823,103.51220836887823,40.547274777093655,454.8047929999884,101,24,female,True
122,70.0,25,F,down,0.4574676000047475,1.5879260414895129,,psi_staircase,emotion,,102.77097221401144,102.77097221401144,40.21244412926567,457.2713684999908,101,24,female,True
123,137.0,25,F,up,0.6488645000208635,1.700574812935968,,psi_staircase,emotion,,103.46485261282336,103.46485261282336,39.86428140597053,459.7879406999855,101,24,female,True
124,69.0,25,M,down,0.7979333000257611,0.6510345490309039,,psi_staircase,emotion,,102.81198616756431,102.81198616756431,39.5089872509711,461.4378494999837,101,24,female,True
125,138.0,25,M,up,0.5856973999761976,0.54690424228874,,psi_staircase,emotion,,103.44102283010568,103.44102283010568,39.14079019313216,463.1211487999826,101,24,female,True
126,68.0,25,F,down,0.5207993000221904,1.16300620204997,,psi_staircase,emotion,,102.8504928585929,102.8504928585929,38.7676033849832,465.2210692999943,101,24,female,True
127,139.0,25,F,up,0.7068509999953676,1.1416600278515043,,psi_staircase,emotion,,103.41984160007554,103.41984160007554,38.382843802303896,467.2209937000007,101,24,female,True
128,67.0,25,F,down,0.5665450000087731,0.8287318155358505,,psi_staircase,emotion,,102.88676478627865,102.88676478627865,37.99570427392758,469.10426759999245,101,24,female,True
129,140.0,25,M,up,0.5083297000091989,1.423895032164749,,psi_staircase,emotion,,103.40116513260534,103.40116513260534,37.59885771740152,471.4374954999949,101,24,female,True
130,67.0,25,M,down,0.4001778999809176,1.2460379516969684,,psi_staircase,emotion,,102.92098909835649,102.92098909835649,37.20259614776743,473.5207748999819,101,24,female,True
131,140.0,25,M,up,0.4635319000226445,0.7677845298102415,,psi_staircase,emotion,,103.39997677234368,103.39997677234368,36.79479516068879,475.0373406999861,101,24,female,True
132,0.29,25,up,up,0.5991251000086777,1.499902749982544,,psi_staircase,cRDM,,0.25,0.2569312402994632,0.105,480.9537722000096,101,24,female,True
133,0.25,25,up,down,0.4173071999975946,1.5301785453040628,,psi_staircase,cRDM,,0.2191026665318312,0.2260132002683492,0.1046863203387393,483.3369982999866,101,24,female,True
134,0.36,25,down,up,0.3674362000019755,1.787670968072731,,psi_staircase,cRDM,,0.3202997408361979,0.3276103223604739,0.1107465658214764,485.82022590001,101,24,female,True
135,0.43,25,down,down,0.3338723999913782,1.80445035693679,,psi_staircase,cRDM,,0.3923744910111199,0.399460699682156,0.1073475854698633,488.3035002999823,101,24,female,True
136,0.42,25,up,up,0.4543090999941341,1.1492058856934269,,psi_staircase,cRDM,,0.3798855818941703,0.3870986840618792,0.1092698701656739,490.1534701999917,101,24,female,True
137,0.41,25,down,down,0.3504816000058781,1.0836367680559005,,psi_staircase,cRDM,,0.367671626369661,0.3749288789433721,0.1099386960077944,491.953359200008,101,24,female,True
138,0.4,25,up,up,0.4662340999930165,1.5123409320053112,,psi_staircase,cRDM,,0.3556959873710901,0.3629517119809007,0.1099155491823169,494.1365950999898,101,24,female,True
139,0.38,25,down,down,0.416917900001863,1.855137732149149,,psi_staircase,cRDM,,0.3437947038291127,0.3510426890304228,0.1097983064007317,496.7198390999984,101,24,female,True
140,0.35,25,down,down,0.4586902000010013,1.4007193182230095,,psi_staircase,cRDM,,0.330039618891669,0.3374693330025544,0.1125512820127412,498.80309410000336,101,24,female,True
141,0.34,25,up,down,0.3504504000011366,1.36169042633201,,psi_staircase,cRDM,,0.313043440250402,0.320950160439769,0.1197773535492376,500.88636579999,101,24,female,True
142,0.4,25,down,up,0.5011932000052184,0.6557391172955458,,psi_staircase,cRDM,,0.3618261207777182,0.3687126112763926,0.1043220940438037,502.21963569999207,101,24,female,True
143,0.44,25,down,down,0.5065839999879245,0.8063903636521312,,psi_staircase,cRDM,,0.3959635955503053,0.4038206682468416,0.119025253416793,503.786254000006,101,24,female,True
144,0.43,25,down,down,0.4359849999891594,1.6433137699772808,,psi_staircase,cRDM,,0.3892353105952601,0.396926759796705,0.1165162555703422,506.2028299999947,101,24,female,True
145,0.43,25,up,up,0.4307907999900635,1.8336650578028983,,psi_staircase,cRDM,,0.3828431835992906,0.3903309498534137,0.1134307025459503,508.7360515999899,101,24,female,True
146,0.43,25,up,up,0.4421636000042781,1.0594956025634443,,psi_staircase,cRDM,,0.3773230814325863,0.3845449347824833,0.1094024401084335,510.5026660999865,101,24,female,True
147,0.39,25,down,down,0.5825275999959558,1.8514775303303883,,psi_staircase,cRDM,,0.3726647796195199,0.379580030045355,0.1047577725402064,513.0693004000059,101,24,female,True
148,0.38,25,down,down,0.4862881999870296,0.3938766772945244,,psi_staircase,cRDM,,0.3634410803984346,0.370735730700898,0.1105052268665338,514.3025400000042,101,24,female,True
149,0.38,25,up,up,0.5296279999893159,1.7193404111826758,,psi_staircase,cRDM,,0.3534918684976061,0.3612057859281439,0.1168566223665894,516.7691182999988,101,24,female,True
150,0.38,25,up,down,0.4217844000086188,1.8004444629560077,,psi_staircase,cRDM,,0.3439086318838596,0.3519056607619476,0.1211454221640914,519.3690184000006,101,24,female,True
151,0.43,25,up,down,0.3671179999946616,0.4030560920253992,,psi_staircase,cRDM,,0.3739441747114537,0.3814021422121478,0.1129792870741361,520.4689933999907,101,24,female,True
152,0.45,25,up,down,0.3338518000091426,1.9768795314338825,,psi_staircase,cRDM,,0.3945557345557308,0.4038610720174385,0.1409647323228665,523.1355439999897,101,24,female,True
153,0.45,25,down,down,0.3171350000193342,0.9283780582435924,,psi_staircase,cRDM,,0.4163404326472651,0.4262175036425158,0.1496258114989376,524.7354810999823,101,24,female,True
154,0.45,25,down,down,0.3671288999903481,0.9418205935057764,,psi_staircase,cRDM,,0.411038081942882,0.4209800201047166,0.150608471484313,526.3687629000051,101,24,female,True
155,0.45,25,down,down,0.3337776999978814,1.847713653459836,,psi_staircase,cRDM,,0.4058845404145983,0.4158464415875235,0.150910887224346,528.9020114000014,101,24,female,True
156,0.46,25,up,up,0.5839444999874104,1.899327829669148,,psi_staircase,cRDM,,0.4008757144813908,0.4108227380615754,0.1506855094895874,531.4688374999969,101,24,female,True
157,0.46,25,up,up,0.4917178000032436,1.4139575594600056,,psi_staircase,cRDM,,0.3963237537720004,0.4062050215985745,0.1496893884736071,533.7351256999827,101,24,female,True
158,0.42,25,down,down,0.3171714999771211,1.9059010489232335,,psi_staircase,cRDM,,0.391939788208262,0.4017363100157942,0.148405587650818,536.4017060000042,101,24,female,True
159,0.43,25,down,down,0.3840464999957476,1.7841191097210116,,psi_staircase,cRDM,,0.3863252751613101,0.3961621398551249,0.1490167341234061,538.8683027999941,101,24,female,True
160,0.44,25,up,down,0.4272813000134192,0.7154902264762673,,psi_staircase,cRDM,,0.3812033809567687,0.3910098250358282,0.1485558981963143,540.2685404999938,101,24,female,True
161,0.47,25,up,up,0.4389649000077043,1.081410877275031,,psi_staircase,cRDM,,0.4008623295314106,0.4110149327962632,0.1537997958160635,542.0348441000096,101,24,female,True
162,0.42,25,down,down,0.4934614000085275,1.933673334005776,,psi_staircase,cRDM,,0.3970324684593429,0.407112470002545,0.1526999665728195,544.6683626000013,101,24,female,True
163,0.42,25,up,up,0.4664909999992233,1.583455416570256,,psi_staircase,cRDM,,0.3918817259539129,0.4020209083437855,0.1535964856129817,547.0013317999837,101,24,female,True
164,0.43,25,down,down,0.2838262999721337,1.4215591127354408,,psi_staircase,cRDM,,0.3868162920987757,0.3969905468271497,0.154127789590845,549.151224900008,101,24,female,True
165,0.43,25,up,down,0.4619596000120509,0.8829015214199563,,psi_staircase,cRDM,,0.3820887289433862,0.3922568141761323,0.154034329111489,550.7178620999912,101,24,female,True
166,0.48,25,down,down,0.4740041000186465,0.5806039348233175,,psi_staircase,cRDM,,0.3997265097630811,0.4099668859678829,0.1551294508700622,552.0178125000093,101,24,female,True
167,0.48,25,up,up,0.4790381999919191,1.207017553702541,,psi_staircase,cRDM,,0.3964504809840517,0.4066092941209837,0.153893867950366,553.9677553999936,101,24,female,True
168,0.42,25,down,down,0.3171512999979313,1.4994505710122268,,psi_staircase,cRDM,,0.3932731488840713,0.4033462149147118,0.1525949018531583,556.2176519999921,101,24,female,True
169,0.42,25,up,down,0.3171717000077478,0.8724031833438655,,psi_staircase,cRDM,,0.3886240559885091,0.3987519682560144,0.1534257567394415,557.7676077999931,101,24,female,True
170,0.48,25,up,down,0.3671443999919574,1.1595109994889403,,psi_staircase,cRDM,,0.4039451837384762,0.4139538374783112,0.151619132691742,559.6008741999976,101,24,female,True
171,0.55,25,down,down,0.350453799997922,0.8928924558262028,,psi_staircase,cRDM,,0.4180958340388404,0.4285824055291007,0.1588590149677245,561.1674882000079,101,24,female,True
172,0.54,25,down,down,0.3505223999964073,0.8092992670165611,,psi_staircase,cRDM,,0.4162475073483671,0.426629833375239,0.1572798208865976,562.6507278000063,101,24,female,True
173,0.54,25,down,down,0.3838084999879356,1.2062523201521034,,psi_staircase,cRDM,,0.4143012640312105,0.4245815848098013,0.1557345633847999,564.5340167999966,101,24,female,True
174,0.53,25,up,up,0.4974632000084966,0.5494337541781759,,psi_staircase,cRDM,,0.4124040666780088,0.4225823647584926,0.1541890415390108,565.7673322999908,101,24,female,True
175,0.53,25,up,down,0.8069145000190474,1.5064616347843724,,psi_staircase,cRDM,,0.4104104081454165,0.4204899607484309,0.1526931656659583,568.0338883000077,101,24,female,True
176,0.5700000000000001,25,down,down,0.4823066999961156,1.2500323143203695,,psi_staircase,cRDM,,0.4237246469617355,0.4344827813122709,0.1629728674814076,570.3504894000071,101,24,female,True
177,0.5700000000000001,25,down,up,0.533730099996319,1.1140621454088773,,psi_staircase,cRDM,,0.4222242553948629,0.4328859226866458,0.161511506926673,572.2170717999979,101,24,female,True
178,0.59,25,down,down,0.5801666000043042,1.967099080597036,,psi_staircase,cRDM,,0.4340730859114753,0.445514850319058,0.1733290451478387,574.9836234999821,101,24,female,True
179,0.59,25,up,down,0.3004803000076208,1.8706896527174124,,psi_staircase,cRDM,,0.4327734670107997,0.444132545296249,0.1720764492993469,577.6835690999869,101,24,female,True
180,0.6,25,up,down,0.3671908999967854,0.4719365903874088,,psi_staircase,cRDM,,0.4430865542496251,0.4551214380132372,0.1823140939547469,578.850133400003,101,24,female,True
181,0.6,25,up,up,0.5837213999766391,1.6352462904892633,,psi_staircase,cRDM,,0.4519109876802606,0.4644165496754196,0.1894443061789936,581.1500704000064,101,24,female,True
182,117.0,25,F,up,0.8050330999831203,0.3403931870091791,,experiment,emotion,0.0,,,,585.5499562000041,101,24,female,True
183,88.0,25,M,down,0.605606999975862,1.1465311110247476,,experiment,emotion,0.0,,,,587.7832422000065,101,24,female,True
184,107.0,25,F,down,0.5240293999959249,1.2763243005679163,,experiment,emotion,0.0,,,,589.9497935999825,101,24,female,True
185,117.0,25,M,down,0.449380400008522,1.2633672932991311,,experiment,emotion,0.0,,,,592.016389299999,101,24,female,True
186,107.0,25,F,up,0.7625466999888886,1.941205013841969,,experiment,emotion,0.0,,,,594.6662943999982,101,24,female,True
187,98.0,25,F,down,0.5089866000053007,1.7259206648291334,,experiment,emotion,0.0,,,,597.432865299983,101,24,female,True
188,88.0,25,M,down,0.4169524000026285,1.9762449251532583,,experiment,emotion,0.0,,,,600.1827799000021,101,24,female,True
189,98.0,25,F,down,0.3168485999922268,1.2665533966986764,,experiment,emotion,0.0,,,,602.1493594000058,101,24,female,True
190,117.0,25,M,down,0.4001958000008017,1.3651367041170186,,experiment,emotion,0.0,,,,604.1992884000065,101,24,female,True
191,98.0,25,M,down,0.4852009000023827,1.5960692632873137,,experiment,emotion,0.0,,,,606.4825781999971,101,24,female,True
192,107.0,25,F,down,0.283502900012536,0.8823051512352225,,experiment,emotion,0.0,,,,608.1491477999953,101,24,female,True
193,117.0,25,M,down,0.2668296000047121,1.429821534780268,,experiment,emotion,0.0,,,,610.2824134999828,101,24,female,True
194,107.0,25,M,down,0.2835016000026371,1.6230869770310938,,experiment,emotion,0.0,,,,612.598985699995,101,24,female,True
195,88.0,25,M,down,0.2165129999921191,1.865150325703864,,experiment,emotion,0.0,,,,615.1658787000051,101,24,female,True
196,98.0,25,F,up,0.3168526999943424,0.5930015631362329,,experiment,emotion,0.0,,,,616.4654907000076,101,24,female,True
197,88.0,25,F,down,0.3668197999941185,1.1388641934615882,,experiment,emotion,0.0,,,,618.2987945000059,101,24,female,True
198,117.0,25,M,down,0.2501993000041693,1.3498135919637495,,experiment,emotion,0.0,,,,620.3320013000048,101,24,female,True
199,88.0,25,M,down,0.3335032999748364,1.9664055189367224,,experiment,emotion,0.0,,,,622.9819420999847,101,24,female,True
200,107.0,25,F,down,0.2501940999936778,1.220596760838644,,experiment,emotion,0.0,,,,624.9151915999828,101,24,female,True
201,107.0,25,F,down,0.2335023999912664,1.0291202259618777,,experiment,emotion,0.0,,,,626.6151380999945,101,24,female,True
202,98.0,25,M,down,0.3001627000048756,0.4977158107224338,,experiment,emotion,0.0,,,,627.7984330999898,101,24,female,True
203,98.0,25,F,down,0.3336514999973587,1.5407336891202803,,experiment,emotion,0.0,,,,630.0316794999817,101,24,female,True
204,88.0,25,M,down,0.5452644000179134,1.6943467058151331,,experiment,emotion,0.0,,,,632.431555099989,101,24,female,True
205,117.0,25,F,up,0.9239522000134456,1.9589089695998405,,experiment,emotion,0.0,,,,635.2148340999847,101,24,female,True
206,107.0,25,F,down,0.6647090000042226,0.4454734134276947,,experiment,emotion,0.0,,,,636.8480829999899,101,24,female,True
207,88.0,25,M,down,0.316804600006435,1.548385322347642,,experiment,emotion,0.0,,,,639.331345499988,101,24,female,True
208,117.0,25,M,down,0.2835240999993402,1.937444274152209,,experiment,emotion,0.0,,,,641.9645427000069,101,24,female,True
209,117.0,25,F,down,0.2838343000039458,1.2230839936315083,,experiment,emotion,0.0,,,,643.8645068999904,101,24,female,True
210,98.0,25,M,down,0.3001736999722197,1.6579964413803396,,experiment,emotion,0.0,,,,646.1977378999873,101,24,female,True
211,88.0,25,F,down,0.2669076999882236,0.972444358807353,,experiment,emotion,0.0,,,,647.8476592999941,101,24,female,True
212,98.0,25,M,down,0.2501886999816634,1.7129956177390746,,experiment,emotion,0.0,,,,650.2309097999823,101,24,female,True
213,107.0,25,F,down,0.366807600017637,0.7193630913316081,,experiment,emotion,0.0,,,,651.664228699985,101,24,female,True
214,88.0,25,M,down,0.3501972000231035,1.609364977141792,,experiment,emotion,0.0,,,,653.9641016999958,101,24,female,True
215,117.0,25,F,down,0.300211699999636,0.6210256030315355,,experiment,emotion,0.0,,,,655.2640559999854,101,24,female,True
216,107.0,25,M,up,0.8657823999819811,1.059264320127242,,experiment,emotion,0.0,,,,657.01400190001,101,24,female,True
217,117.0,25,F,up,0.61819770000875,1.1642845886943227,,experiment,emotion,0.0,,,,659.330584499985,101,24,female,True
218,88.0,25,M,down,0.7559344000183046,1.787115829520921,,experiment,emotion,0.0,,,,662.0138394999958,101,24,female,True
219,107.0,25,F,down,0.4169646999798715,0.4701979596789454,,experiment,emotion,0.0,,,,663.5304563999816,101,24,female,True
220,98.0,25,M,down,0.3001246000058017,1.3144635220033694,,experiment,emotion,0.0,,,,665.5637054999825,101,24,female,True
221,98.0,25,F,down,0.2668660000199452,1.9603403013553768,,experiment,emotion,0.0,,,,668.213592199987,101,24,female,True
222,107.0,25,F,down,0.4005618999945,0.7584857759968634,,experiment,emotion,0.0,,,,669.6635463999992,101,24,female,True
223,117.0,25,M,down,0.3001583000004757,1.4503528861729758,,experiment,emotion,0.0,,,,671.7968107000052,101,24,female,True
224,98.0,25,F,down,0.31689269997878,0.4599917888479862,,experiment,emotion,0.0,,,,672.9467314000067,101,24,female,True
225,88.0,25,M,down,0.2668266000109724,1.3474813848480929,,experiment,emotion,0.0,,,,674.9800312999869,101,24,female,True
226,88.0,25,M,down,0.2835168000019621,0.4031749708927704,,experiment,emotion,0.0,,,,676.0633263000054,101,24,female,True
227,98.0,25,F,down,0.2834840000141412,1.9584359702002585,,experiment,emotion,0.0,,,,678.7132288999856,101,24,female,True
228,117.0,25,F,down,0.3001625000033527,1.96451844244204,,experiment,emotion,0.0,,,,681.363131399994,101,24,female,True
229,107.0,25,M,down,0.3001605000172276,0.4866522713830106,,experiment,emotion,0.0,,,,682.5630877999938,101,24,female,True
230,88.0,25,F,down,0.3835292000148911,1.393902896874252,,experiment,emotion,0.0,,,,684.6463025999838,101,24,female,True
231,117.0,25,M,down,0.3001798999903258,1.7075539983542982,,experiment,emotion,0.0,,,,687.0462210999976,101,24,female,True
232,107.0,25,M,down,0.3001778000034392,1.8023815203969749,,experiment,emotion,0.0,,,,689.5295075000031,101,24,female,True
233,107.0,25,M,down,0.3001624000025913,0.6074084924108706,,experiment,emotion,0.0,,,,690.8294427999936,101,24,female,True
234,88.0,25,M,down,0.3168159000051673,0.8576269388577971,,experiment,emotion,0.0,,,,692.3793988999969,101,24,female,True
235,98.0,25,M,down,0.2498510000004898,0.8889593951591683,,experiment,emotion,0.0,,,,693.9630086999969,101,24,female,True
236,117.0,25,F,down,0.2835043999948539,1.338616720739917,,experiment,emotion,0.0,,,,695.9792657000071,101,24,female,True
237,98.0,25,F,down,0.2668935999972746,0.748511066944034,,experiment,emotion,0.0,,,,697.412505699991,101,24,female,True
238,98.0,25,F,down,0.3501643000054173,1.6672618223682067,,experiment,emotion,0.0,,,,699.7624375000014,101,24,female,True
239,98.0,25,M,down,0.2335283000138588,0.4887857133417082,,experiment,emotion,0.0,,,,700.9457269999839,101,24,female,True
240,117.0,25,F,down,0.2168038999952841,0.9792794459630688,,experiment,emotion,0.0,,,,702.5956865999906,101,24,female,True
241,107.0,25,F,down,0.429226500011282,1.0900101375715971,,experiment,emotion,0.0,,,,704.3955988000089,101,24,female,True
242,88.0,25,F,down,0.7819447000219952,0.7162557253380866,,experiment,emotion,0.0,,,,705.8458655999857,101,24,female,True
243,88.0,25,M,down,0.3335176999971736,1.6276443867687826,,experiment,emotion,0.0,,,,708.5287740000058,101,24,female,True
244,107.0,25,F,down,0.3836109000258147,0.9570740312299626,,experiment,emotion,0.0,,,,710.1787409000099,101,24,female,True
245,117.0,25,M,down,0.5151970000006258,1.3918970956210222,,experiment,emotion,0.0,,,,712.2456381999946,101,24,female,True
246,117.0,25,M,down,0.216523999988567,1.733414309773689,,experiment,emotion,0.0,,,,714.7622240000055,101,24,female,True
247,88.0,25,F,up,0.2835079999931622,0.6427013820049734,,experiment,emotion,0.0,,,,716.0951911000011,101,24,female,True
248,117.0,25,M,up,0.2834691000171006,1.3219369525599154,,experiment,emotion,0.0,,,,718.0951366999943,101,24,female,True
249,98.0,25,F,up,0.3002185999939684,0.4868309937369973,,experiment,emotion,0.0,,,,719.278407500009,101,24,female,True
250,107.0,25,M,down,0.989157299976796,1.5517166248541123,,experiment,emotion,0.0,,,,721.5116548000078,101,24,female,True
251,98.0,25,F,down,0.2834945999784395,1.943890777437256,,experiment,emotion,0.0,,,,724.711531399982,101,24,female,True
252,88.0,25,M,down,0.3001533999922685,1.8886445499313536,,experiment,emotion,0.0,,,,727.2947657000041,101,24,female,True
253,107.0,25,F,down,0.2668524999753572,1.7480920296544364,,experiment,emotion,0.0,,,,729.7279895999818,101,24,female,True
254,98.0,25,F,down,0.6072174000146333,0.3259207982244746,,experiment,emotion,0.0,,,,730.7445826999901,101,24,female,True
255,107.0,25,F,down,0.3001636000117287,0.5392402140024322,,experiment,emotion,0.0,,,,732.1612556999899,101,24,female,True
256,88.0,25,F,down,0.3334841000032611,1.2174466642214792,,experiment,emotion,0.0,,,,734.0778692000022,101,24,female,True
257,117.0,25,F,down,0.3168021999881603,1.781538869160136,,experiment,emotion,0.0,,,,736.5611124999996,101,24,female,True
258,107.0,25,M,down,0.3835074999951757,1.3551944864541223,,experiment,emotion,0.0,,,,738.6110184999998,101,24,female,True
259,117.0,25,M,up,0.6308357999951113,1.6302664757914982,,experiment,emotion,0.0,,,,740.9109351999941,101,24,female,True
260,88.0,25,M,up,0.3668569000146817,0.3872748184089449,,experiment,emotion,0.0,,,,742.2108755999943,101,24,female,True
261,98.0,25,M,up,0.4902715999924112,0.6052180513077319,,experiment,emotion,0.0,,,,743.5274957999936,101,24,female,True
262,0.4508258632322355,25,up,down,0.81851069998811,1.0790925535230826,,experiment,cRDM,0.0,,,,747.827260799997,101,24,female,True
263,0.4508258632322355,25,up,up,0.3340033999993466,1.0131797839005383,,experiment,cRDM,0.0,,,,749.9271820999857,101,24,female,True
264,0.4508258632322355,25,down,down,0.283985499991104,1.367545279095201,,experiment,cRDM,0.0,,,,751.9771315999969,101,24,female,True
265,0.4508258632322355,25,down,up,0.4002379000012297,1.5404727544691317,,experiment,cRDM,0.0,,,,754.1937263,101,24,female,True
266,0.4508258632322355,25,up,up,0.5591525000054389,1.0139740788585596,,experiment,cRDM,0.0,,,,755.8936586999916,101,24,female,True
267,0.4508258632322355,25,down,down,0.4178326000110246,0.61075166554418,,experiment,cRDM,0.0,,,,757.3269300999818,101,24,female,True
268,0.4508258632322355,25,up,up,0.33384350000415,0.9093684915744558,,experiment,cRDM,0.0,,,,758.9102197999891,101,24,female,True
269,0.4508258632322355,25,up,down,0.3338364999799523,1.849335602041512,,experiment,cRDM,0.0,,,,761.4267862999986,101,24,female,True
270,0.4508258632322355,25,down,up,0.2671527000202331,1.3045827993756645,,experiment,cRDM,0.0,,,,763.4267072000075,101,24,female,True
271,0.4508258632322355,25,down,down,0.4002196000074036,1.865756975152294,,experiment,cRDM,0.0,,,,765.9766373999882,101,24,female,True
272,0.4508258632322355,25,down,up,0.3668352999957278,1.911557026610695,,experiment,cRDM,0.0,,,,768.5601528999978,101,24,female,True
273,0.4508258632322355,25,down,up,0.4203289999859407,0.6500544072866404,,experiment,cRDM,0.0,,,,769.8765105000057,101,24,female,True
274,0.4508258632322355,25,down,down,0.4587696000235155,1.282753365921732,,experiment,cRDM,0.0,,,,771.8430808999983,101,24,female,True
275,0.4508258632322355,25,down,down,0.4297705999924801,1.9235335598072267,,experiment,cRDM,0.0,,,,774.4929715000035,101,24,female,True
276,0.4508258632322355,25,up,up,0.3172180999827105,1.1394240310431274,,experiment,cRDM,0.0,,,,776.3428899999999,101,24,female,True
277,0.4508258632322355,25,up,down,0.3005409999750554,1.460438209187079,,experiment,cRDM,0.0,,,,778.4761768000026,101,24,female,True
278,0.4508258632322355,25,up,up,0.3338163000007625,1.0709327587133664,,experiment,cRDM,0.0,,,,780.2094157999963,101,24,female,True
279,0.4508258632322355,25,up,up,0.537678099994082,0.6016306753791925,,experiment,cRDM,0.0,,,,781.4760693999997,101,24,female,True
280,0.4508258632322355,25,down,down,0.3004784999939147,1.583521286624069,,experiment,cRDM,0.0,,,,783.8593237999885,101,24,female,True
281,0.4508258632322355,25,up,down,0.4298766999854706,1.9804831135291945,,experiment,cRDM,0.0,,,,786.5258156000054,101,24,female,True
282,0.4508258632322355,25,up,up,0.4873964000144042,1.2867741233478365,,experiment,cRDM,0.0,,,,788.4924342999875,101,24,female,True
283,0.4508258632322355,25,down,down,0.5577154000056908,1.3113367329501482,,experiment,cRDM,0.0,,,,790.5590469999879,101,24,female,True
284,0.4508258632322355,25,up,down,0.5681387000076938,1.050790432798071,,experiment,cRDM,0.0,,,,792.4256239999959,101,24,female,True
285,0.4508258632322355,25,down,up,0.4169667999958619,1.632171016789947,,experiment,cRDM,0.0,,,,794.8922308000037,101,24,female,True
286,0.4508258632322355,25,down,down,0.3999963000242132,1.6764203201826375,,experiment,cRDM,0.0,,,,797.2424142000091,101,24,female,True
287,0.4508258632322355,25,up,down,0.3509049999993294,1.765780302958394,,experiment,cRDM,0.0,,,,799.6920465999865,101,24,female,True
288,0.4508258632322355,25,up,down,0.3171443000028375,1.3316499671993154,,experiment,cRDM,0.0,,,,801.6919651000062,101,24,female,True
289,0.4508258632322355,25,down,down,0.3504915999947116,1.0599888444356518,,experiment,cRDM,0.0,,,,803.4252113999974,101,24,female,True
290,0.4508258632322355,25,up,up,0.4170421999879181,1.6733664422525951,,experiment,cRDM,0.0,,,,805.7918151000049,101,24,female,True
291,0.4508258632322355,25,down,down,0.3171805000165477,0.8505304783470775,,experiment,cRDM,0.0,,,,807.3250691999856,101,24,female,True
292,0.4508258632322355,25,down,down,0.3338449000148102,1.0131489186253209,,experiment,cRDM,0.0,,,,809.0250146999897,101,24,female,True
293,0.4508258632322355,25,down,down,0.3338189999922178,0.698182300849514,,experiment,cRDM,0.0,,,,810.391641299997,101,24,female,True
294,0.4508258632322355,25,up,down,0.3505420000001322,1.7623438854749245,,experiment,cRDM,0.0,,,,812.8248611000017,101,24,female,True
295,0.4508258632322355,25,up,down,0.3004873000027146,1.9837734455034055,,experiment,cRDM,0.0,,,,815.491452599992,101,24,female,True
296,0.4508258632322355,25,up,down,0.3338111000193748,0.7171418055293505,,experiment,cRDM,0.0,,,,816.8914102999843,101,24,female,True
297,0.4508258632322355,25,down,up,0.3338523000129498,0.9504787938618816,,experiment,cRDM,0.0,,,,818.5080131999857,101,24,female,True
298,0.4508258632322355,25,down,up,0.4170684000127949,1.1036606758548275,,experiment,cRDM,0.0,,,,820.2912808999827,101,24,female,True
299,0.4508258632322355,25,up,down,0.4495835999841802,1.860233929199488,,experiment,cRDM,0.0,,,,822.8412038999959,101,24,female,True
300,0.4508258632322355,25,down,down,0.4599248000013176,0.5517149231578615,,experiment,cRDM,0.0,,,,824.1078019999841,101,24,female,True
301,0.4508258632322355,25,up,up,0.8169887000112794,1.6212107537571545,,experiment,cRDM,0.0,,,,826.4577639999916,101,24,female,True
302,0.4508258632322355,25,up,down,0.3005068000056781,1.763878394910381,,experiment,cRDM,0.0,,,,829.3076090000104,101,24,female,True
303,0.4508258632322355,25,up,down,0.3672083999845199,1.192680070447356,,experiment,cRDM,0.0,,,,831.1742369999993,101,24,female,True
304,0.4508258632322355,25,down,down,0.4199822999944445,1.7815603278752716,,experiment,cRDM,0.0,,,,833.6408103999856,101,24,female,True
305,0.4508258632322355,25,down,down,0.504130500019528,1.3687406299300773,,experiment,cRDM,0.0,,,,835.6906863999902,101,24,female,True
306,0.4508258632322355,25,up,down,0.3505026000202633,1.646871852521239,,experiment,cRDM,0.0,,,,838.107297599985,101,24,female,True
307,0.4508258632322355,25,down,down,0.4745804000122007,1.9717477171650284,,experiment,cRDM,0.0,,,,840.7572099999816,101,24,female,True
308,0.4508258632322355,25,down,down,0.4726030000019818,0.4077336654544299,,experiment,cRDM,0.0,,,,841.9071505999891,101,24,female,True
309,0.4508258632322355,25,up,up,0.5559406999964267,0.442251567013271,,experiment,cRDM,0.0,,,,843.0738352999906,101,24,female,True
310,0.4508258632322355,25,up,up,0.3670952999964356,1.9836372058464984,,experiment,cRDM,0.0,,,,845.8737115999975,101,24,female,True
311,0.4508258632322355,25,down,down,0.4705072999931872,1.1910871455517364,,experiment,cRDM,0.0,,,,847.7402678999933,101,24,female,True
312,0.4508258632322355,25,up,down,0.3671654999780003,1.8248631739194725,,experiment,cRDM,0.0,,,,850.2901716000051,101,24,female,True
313,0.4508258632322355,25,down,down,0.5762681999767665,0.4048010954792393,,experiment,cRDM,0.0,,,,851.3734869000036,101,24,female,True
314,0.4508258632322355,25,down,down,0.5196975999861024,1.6256174441333444,,experiment,cRDM,0.0,,,,853.8400579000008,101,24,female,True
315,0.4508258632322355,25,down,down,0.475115100009134,1.3903513897718822,,experiment,cRDM,0.0,,,,856.0066382999939,101,24,female,True
316,0.4508258632322355,25,up,up,0.4229216999956406,1.7498712914677483,,experiment,cRDM,0.0,,,,858.4898639000021,101,24,female,True
317,0.4508258632322355,25,up,up,0.4236351999861654,1.5353898577460072,,experiment,cRDM,0.0,,,,860.7231191000028,101,24,female,True
318,0.4508258632322355,25,down,down,0.4170176000043284,1.999076789062323,,experiment,cRDM,0.0,,,,863.4063392999815,101,24,female,True
319,0.4508258632322355,25,down,down,0.5111234000069089,1.4097561548647577,,experiment,cRDM,0.0,,,,865.4896358999831,101,24,female,True
320,0.4508258632322355,25,up,up,0.4514983000117354,1.7893263912545372,,experiment,cRDM,0.0,,,,868.0562295999844,101,24,female,True
321,0.4508258632322355,25,up,down,0.4002675999945495,1.6632716956407356,,experiment,cRDM,0.0,,,,870.4394401999889,101,24,female,True
322,0.4508258632322355,25,up,up,0.5570463000040036,0.6990117972386736,,experiment,cRDM,0.0,,,,871.8227010999981,101,24,female,True
323,0.4508258632322355,25,up,up,0.6494071999914013,1.256709958010107,,experiment,cRDM,0.0,,,,873.8893285999948,101,24,female,True
324,0.4508258632322355,25,up,up,0.8062134999781847,1.9653384564075027,,experiment,cRDM,0.0,,,,876.7725359000033,101,24,female,True
325,0.4508258632322355,25,down,down,0.3504704999795649,1.2956688231700997,,experiment,cRDM,0.0,,,,879.1391310000035,101,24,female,True
326,0.4508258632322355,25,down,down,0.3505812000075821,1.794423225989494,,experiment,cRDM,0.0,,,,881.6056930999912,101,24,female,True
327,0.4508258632322355,25,up,down,0.4598045000166166,0.4484146253901205,,experiment,cRDM,0.0,,,,882.7390085000079,101,24,female,True
328,0.4508258632322355,25,down,down,0.4565451999951619,1.453726612566645,,experiment,cRDM,0.0,,,,884.9222092999844,101,24,female,True
329,0.4508258632322355,25,down,down,0.6288303000037558,0.5907163506290247,,experiment,cRDM,0.0,,,,886.2388715999841,101,24,female,True
330,0.4508258632322355,25,down,down,0.5831773999962024,0.3217720739637955,,experiment,cRDM,0.0,,,,887.4555240999907,101,24,female,True
331,0.4508258632322355,25,up,up,0.439295200019842,0.6565493835368515,,experiment,cRDM,0.0,,,,888.9554578000098,101,24,female,True
332,0.4508258632322355,25,down,down,0.5020152000070084,0.3674868220445043,,experiment,cRDM,0.0,,,,890.0387437999889,101,24,female,True
333,0.4508258632322355,25,down,down,0.5124447999987751,1.314136996341258,,experiment,cRDM,0.0,,,,892.1053200000024,101,24,female,True
334,0.4508258632322355,25,down,down,0.4651818000129424,1.5498377044996068,,experiment,cRDM,0.0,,,,894.4385563000105,101,24,female,True
335,0.4508258632322355,25,up,down,0.476304900017567,1.7755722459434546,,experiment,cRDM,0.0,,,,896.9384722999821,101,24,female,True
336,0.4508258632322355,25,up,up,0.6922888000262901,1.0655379296549234,,experiment,cRDM,0.0,,,,898.7384277000092,101,24,female,True
337,0.4508258632322355,25,down,down,0.4170161999936681,1.3907509318008386,,experiment,cRDM,0.0,,,,901.0883092999866,101,24,female,True
338,0.4508258632322355,25,up,up,0.5225313999981154,1.7634402888671905,,experiment,cRDM,0.0,,,,903.5382242999912,101,24,female,True
339,0.4508258632322355,25,down,down,0.3838403999980073,1.5354149423626555,,experiment,cRDM,0.0,,,,905.8714679999975,101,24,female,True
340,0.4508258632322355,25,up,up,0.6330204000114463,1.8951087118848136,,experiment,cRDM,0.0,,,,908.4547439999878,101,24,female,True
341,0.4508258632322355,25,up,up,0.7115177999949083,1.7592804426805713,,experiment,cRDM,0.0,,,,911.1212566999892,101,24,female,True
342,117.0,25,M,down,0.7835299999860581,1.687044484588056,,experiment,emotion,1.0,,,,924.20419270001,101,24,female,True
343,88.0,25,M,down,0.5072549000033177,0.4799288573975631,,experiment,emotion,1.0,,,,925.7374142000044,101,24,female,True
344,107.0,25,F,down,0.4397122999944258,1.8119522939343156,,experiment,emotion,1.0,,,,928.3540329000098,101,24,female,True
345,117.0,25,F,down,0.3168296000221744,1.935721895305737,,experiment,emotion,1.0,,,,931.0039509999916,101,24,female,True
346,107.0,25,M,down,0.283484599989606,0.5723465625648155,,experiment,emotion,1.0,,,,932.2705756000069,101,24,female,True
347,98.0,25,F,down,0.2834511000255588,1.8667188933462548,,experiment,emotion,1.0,,,,934.8371434999864,101,24,female,True
348,88.0,25,M,down,0.2668327999999746,0.7597475974669219,,experiment,emotion,1.0,,,,936.2704216999992,101,24,female,True
349,98.0,25,M,,,1.8845290643213728,,experiment,emotion,1.0,,,,938.836997300008,101,24,female,True
350,117.0,25,F,up,0.6489334999932908,1.949040536455279,,experiment,emotion,1.0,,,,943.4868140000036,101,24,female,True
351,98.0,25,F,up,0.445281199994497,0.9837326601486596,,experiment,emotion,1.0,,,,945.403417499998,101,24,female,True
352,107.0,25,F,up,0.3168272000038996,0.5742157166339894,,experiment,emotion,1.0,,,,946.7200119000044,101,24,female,True
353,117.0,25,F,up,0.6371942000114359,1.7349265072065465,,experiment,emotion,1.0,,,,949.1365952999912,101,24,female,True
354,107.0,25,F,up,0.3668599000084214,0.7950313549299572,,experiment,emotion,1.0,,,,950.869851299998,101,24,female,True
355,88.0,25,F,up,0.3168479000160005,0.6957793142755485,,experiment,emotion,1.0,,,,952.2531481999904,101,24,female,True
356,98.0,25,M,up,0.2834864000033121,0.789443718215645,,experiment,emotion,1.0,,,,953.7197515000008,101,24,female,True
357,88.0,25,M,up,0.283491199981654,1.2770382236387177,,experiment,emotion,1.0,,,,955.6697165000078,101,24,female,True
358,117.0,25,M,down,0.3168536000011954,0.5739633954833412,,experiment,emotion,1.0,,,,956.9363129999838,101,24,female,True
359,88.0,25,M,down,0.4175143000029493,1.3220925435847743,,experiment,emotion,1.0,,,,958.9362312000012,101,24,female,True
360,107.0,25,F,down,0.2834982999775093,1.3795415572727507,,experiment,emotion,1.0,,,,961.0028451999824,101,24,female,True
361,107.0,25,M,down,0.3668225000146776,1.974369221573824,,experiment,emotion,1.0,,,,963.6694164999936,101,24,female,True
362,98.0,25,M,down,0.3334980000217911,0.9080015262724106,,experiment,emotion,1.0,,,,965.252692799986,101,24,female,True
363,98.0,25,F,down,0.2335239000094588,0.9854013548440584,,experiment,emotion,1.0,,,,966.9192748999922,101,24,female,True
364,88.0,25,M,down,0.2501813000126276,0.3059232066818429,,experiment,emotion,1.0,,,,967.9025941999862,101,24,female,True
365,117.0,25,F,down,0.2668134999985341,1.245555558124036,,experiment,emotion,1.0,,,,969.8525285999932,101,24,female,True
366,107.0,25,F,down,0.2835211000056006,0.7457715838128395,,experiment,emotion,1.0,,,,971.2857773999858,101,24,female,True
367,88.0,25,M,down,0.4597648000053596,0.8775066994195462,,experiment,emotion,1.0,,,,972.8690640999994,101,24,female,True
368,117.0,25,M,down,0.4387710000155493,0.7743904593376858,,experiment,emotion,1.0,,,,974.3690201999852,101,24,female,True
369,117.0,25,F,down,0.4001905000186525,1.5350158560246283,,experiment,emotion,1.0,,,,976.6189102999924,101,24,female,True
370,98.0,25,M,down,0.3001705999777186,1.5630968185781855,,experiment,emotion,1.0,,,,978.8855156000064,101,24,female,True
371,88.0,25,F,down,0.5383185000100639,1.3490997301787464,,experiment,emotion,1.0,,,,980.9353900999996,101,24,female,True
372,98.0,25,F,down,0.3168267000000924,1.7828266922159388,,experiment,emotion,1.0,,,,983.5186604000046,101,24,female,True
373,107.0,25,F,down,0.3502406000043265,1.942355475520485,,experiment,emotion,1.0,,,,986.1685830999922,101,24,female,True
374,88.0,25,M,down,0.3502039000159129,1.6291365772127795,,experiment,emotion,1.0,,,,988.4851569999882,101,24,female,True
375,117.0,25,M,down,0.3668872000125702,1.9242001221116172,,experiment,emotion,1.0,,,,991.1183818999853,101,24,female,True
376,107.0,25,M,down,0.418103699979838,1.9443114017698044,,experiment,emotion,1.0,,,,993.751641699986,101,24,female,True
377,117.0,25,F,down,0.4698290000087581,1.954271373193183,,experiment,emotion,1.0,,,,996.3848783999856,101,24,female,True
378,88.0,25,F,down,0.6792725000123028,1.771648300876931,,experiment,emotion,1.0,,,,998.9014526999964,101,24,female,True
379,107.0,25,M,down,0.3501405999995768,0.3072928161260587,,experiment,emotion,1.0,,,,1000.1514282999852,101,24,female,True
380,98.0,25,F,down,0.3001870999869425,1.164978890520518,,experiment,emotion,1.0,,,,1002.0179714999977,101,24,female,True
381,98.0,25,M,down,0.3002254000166431,1.630373209128643,,experiment,emotion,1.0,,,,1004.334548199986,101,24,female,True
382,107.0,25,M,up,0.4928816000174265,0.4835739971184273,,experiment,emotion,1.0,,,,1005.5178475999855,101,24,female,True
383,117.0,25,M,up,0.6046312999969814,1.45499927819809,,experiment,emotion,1.0,,,,1007.751139800006,101,24,female,True
384,98.0,25,F,up,0.4001718000217806,1.154224716791755,,experiment,emotion,1.0,,,,1009.7843895999832,101,24,female,True
385,88.0,25,F,down,0.8421034000057261,1.237440837579897,,experiment,emotion,1.0,,,,1011.7176306000038,101,24,female,True
386,88.0,25,M,down,0.6905062999867368,0.9083739777249932,,experiment,emotion,1.0,,,,1013.7342224000022,101,24,female,True
387,98.0,25,F,down,0.2668333000037819,0.3015447876487058,,experiment,emotion,1.0,,,,1015.000865399983,101,24,female,True
388,117.0,25,F,down,0.6399734999868087,1.6559018448497238,,experiment,emotion,1.0,,,,1017.3507555999968,101,24,female,True
389,107.0,25,M,down,0.2335126999823842,0.5730169262165616,,experiment,emotion,1.0,,,,1018.8340414999984,101,24,female,True
390,88.0,25,M,down,0.2835099999792874,0.9503647158838552,,experiment,emotion,1.0,,,,1020.4673260999843,101,24,female,True
391,117.0,25,F,down,0.2834998000180349,0.3763494927898234,,experiment,emotion,1.0,,,,1021.5339423999832,101,24,female,True
392,107.0,25,M,down,0.5165167999803089,1.68714661299694,,experiment,emotion,1.0,,,,1023.9171634000086,101,24,female,True
393,107.0,25,F,down,0.2834852000232786,0.7831286090317122,,experiment,emotion,1.0,,,,1025.483819199988,101,24,female,True
394,88.0,25,F,down,0.2834968999959528,0.5121121679405297,,experiment,emotion,1.0,,,,1026.7004274000064,101,24,female,True
395,98.0,25,F,down,0.4001797999953851,1.4524709655099253,,experiment,emotion,1.0,,,,1028.8670131999825,101,24,female,True
396,117.0,25,M,down,0.472808199992869,0.7097226293169434,,experiment,emotion,1.0,,,,1030.2669674000065,101,24,female,True
397,98.0,25,M,down,0.5661322000087239,0.3167468576166874,,experiment,emotion,1.0,,,,1031.3335887999856,101,24,female,True
398,98.0,25,F,down,0.6015799999877345,1.3303570838318768,,experiment,emotion,1.0,,,,1033.5001505999826,101,24,female,True
399,98.0,25,F,down,0.3001607999904081,0.9710882908953484,,experiment,emotion,1.0,,,,1035.333464700001,101,24,female,True
400,117.0,25,M,down,0.3001576000242494,1.0378441810303625,,experiment,emotion,1.0,,,,1037.0500341999868,101,24,female,True
401,107.0,25,M,down,0.2668659999908414,1.9798301327997505,,experiment,emotion,1.0,,,,1039.733301900007,101,24,female,True
402,88.0,25,M,down,0.2835027000110131,1.125819676021123,,experiment,emotion,1.0,,,,1041.5665424999895,101,24,female,True
403,88.0,25,M,down,0.3501798999786842,1.269636879140416,,experiment,emotion,1.0,,,,1043.5164523999847,101,24,female,True
404,107.0,25,M,down,0.3001994999940507,0.9338995448359736,,experiment,emotion,1.0,,,,1045.1330495000002,101,24,female,True
405,117.0,25,F,down,0.3335221000015735,1.6820702094855553,,experiment,emotion,1.0,,,,1047.5163124999965,101,24,female,True
406,117.0,25,F,down,0.3502273000194691,1.203110653323788,,experiment,emotion,1.0,,,,1049.416231399984,101,24,female,True
407,88.0,25,M,down,0.3334955000027548,0.7853254072736771,,experiment,emotion,1.0,,,,1050.882884199993,101,24,female,True
408,117.0,25,F,down,0.3836449999944307,0.6686196662552892,,experiment,emotion,1.0,,,,1052.2327922999975,101,24,female,True
409,98.0,25,F,down,0.3668090999999549,0.4156886846703533,,experiment,emotion,1.0,,,,1053.349446200009,101,24,female,True
410,107.0,25,F,down,0.283550300024217,0.7560238959711141,,experiment,emotion,1.0,,,,1054.7827353999892,101,24,female,True
411,98.0,25,M,down,0.3334933000151068,1.9879201331745804,,experiment,emotion,1.0,,,,1057.465965799987,101,24,female,True
412,88.0,25,F,down,0.3334955000027548,1.7156249008523312,,experiment,emotion,1.0,,,,1059.8658682999958,101,24,female,True
413,107.0,25,F,down,0.2668308000138495,1.913695645751097,,experiment,emotion,1.0,,,,1062.4657863999892,101,24,female,True
414,98.0,25,F,down,0.416954699991038,0.6362957061216835,,experiment,emotion,1.0,,,,1063.7823921999952,101,24,female,True
415,107.0,25,M,down,0.3501832000038121,1.7261151250296216,,experiment,emotion,1.0,,,,1066.2156190999958,101,24,female,True
416,88.0,25,M,down,0.3501598000002559,1.1877769317365738,,experiment,emotion,1.0,,,,1068.0989113000105,101,24,female,True
417,117.0,25,F,down,0.2668572999828029,0.5300087733411764,,experiment,emotion,1.0,,,,1069.3321733000048,101,24,female,True
418,107.0,25,M,down,0.4727175000007264,1.611189457301888,,experiment,emotion,1.0,,,,1071.632077199989,101,24,female,True
419,117.0,25,F,down,0.3167921999993268,1.9669980910680644,,experiment,emotion,1.0,,,,1074.3486952999956,101,24,female,True
420,88.0,25,M,down,0.6814868999936152,1.421777458117144,,experiment,emotion,1.0,,,,1076.465232699993,101,24,female,True
421,98.0,25,M,down,0.4002084999810904,0.7687704916048977,,experiment,emotion,1.0,,,,1078.198531800008,101,24,female,True
422,0.4508258632322355,25,up,down,0.3671480000193696,1.0390875963857578,,experiment,cRDM,1.0,,,,1082.214983199985,101,24,female,True
423,0.4508258632322355,25,up,up,0.4894099000084679,1.8496137053995076,,experiment,cRDM,1.0,,,,1084.7482528999972,101,24,female,True
424,0.4508258632322355,25,down,down,0.5265314000134822,1.0480219303579708,,experiment,cRDM,1.0,,,,1086.5481841999865,101,24,female,True
425,0.4508258632322355,25,down,down,0.4980199999990873,0.7852215801075695,,experiment,cRDM,1.0,,,,1088.114742899983,101,24,female,True
426,0.4508258632322355,25,up,up,0.5520867999875918,1.9874388101674665,,experiment,cRDM,1.0,,,,1090.8646637999918,101,24,female,True
427,0.4508258632322355,25,down,up,0.4527158999990206,0.3840852049312956,,experiment,cRDM,1.0,,,,1092.0479909999997,101,24,female,True
428,0.4508258632322355,25,up,up,0.5975261999992654,1.0075370817185323,,experiment,cRDM,1.0,,,,1093.7811904999835,101,24,female,True
429,0.4508258632322355,25,up,up,0.586657700012438,1.698162341852142,,experiment,cRDM,1.0,,,,1096.3311345999828,101,24,female,True
430,0.4508258632322355,25,down,down,0.4283228999993298,1.3747153755637933,,experiment,cRDM,1.0,,,,1098.5643780999817,101,24,female,True
431,0.4508258632322355,25,down,down,0.7144206999801099,0.3164953474615747,,experiment,cRDM,1.0,,,,1099.5643201000055,101,24,female,True
432,0.4508258632322355,25,down,up,0.508849600009853,1.9369392221489408,,experiment,cRDM,1.0,,,,1102.4808959999937,101,24,female,True
433,0.4508258632322355,25,down,down,0.5188666000030935,1.5773045471389198,,experiment,cRDM,1.0,,,,1104.8308263999934,101,24,female,True
434,0.4508258632322355,25,down,down,0.4683111000049393,0.94387038111413,,experiment,cRDM,1.0,,,,1106.547437000001,101,24,female,True
435,0.4508258632322355,25,down,down,0.3671613000042271,0.4246688266707057,,experiment,cRDM,1.0,,,,1107.7140256999992,101,24,female,True
436,0.4508258632322355,25,up,up,0.4467847000050824,1.2159092277758532,,experiment,cRDM,1.0,,,,1109.613951599982,101,24,female,True
437,0.4508258632322355,25,up,down,0.3171469000226352,0.7577133493419415,,experiment,cRDM,1.0,,,,1111.0805883999856,101,24,female,True
438,0.4508258632322355,25,up,down,0.4002809000085108,1.9879377541723209,,experiment,cRDM,1.0,,,,1113.73047770001,101,24,female,True
439,0.4508258632322355,25,up,down,0.4236291999986861,0.440515210498683,,experiment,cRDM,1.0,,,,1114.8471199999913,101,24,female,True
440,0.4508258632322355,25,down,down,0.4866834999993443,1.822274962014951,,experiment,cRDM,1.0,,,,1117.3470300000045,101,24,female,True
441,0.4508258632322355,25,up,up,0.4170016999996733,1.2691112397586295,,experiment,cRDM,1.0,,,,1119.363609699998,101,24,female,True
442,0.4508258632322355,25,up,down,0.581876000011107,1.8899935039081583,,experiment,cRDM,1.0,,,,1121.9468623999855,101,24,female,True
443,0.4508258632322355,25,down,down,0.503962999995565,0.95773628985993,,experiment,cRDM,1.0,,,,1123.7467959999922,101,24,female,True
444,0.4508258632322355,25,up,up,0.5466415999981109,0.812288939201625,,experiment,cRDM,1.0,,,,1125.3300683999842,101,24,female,True
445,0.4508258632322355,25,down,down,0.4837171999970451,1.4391050557454852,,experiment,cRDM,1.0,,,,1127.5799694999878,101,24,female,True
446,0.4508258632322355,25,down,down,0.4404808999970555,1.6462501395517848,,experiment,cRDM,1.0,,,,1129.963222499995,101,24,female,True
447,0.4508258632322355,25,up,down,0.4671903999987989,1.8701446817333245,,experiment,cRDM,1.0,,,,1132.5465070999926,101,24,female,True
448,0.4508258632322355,25,up,up,0.4266769000096246,1.1326599286820025,,experiment,cRDM,1.0,,,,1134.4130434999825,101,24,female,True
449,0.4508258632322355,25,down,down,0.4570196999993641,0.4817163855456059,,experiment,cRDM,1.0,,,,1135.5796867999888,101,24,female,True
450,0.4508258632322355,25,up,up,0.3504928000038489,1.002480329436821,,experiment,cRDM,1.0,,,,1137.3129412999842,101,24,female,True
451,0.4508258632322355,25,down,down,0.4170143000083044,0.7457803906193223,,experiment,cRDM,1.0,,,,1138.729592699994,101,24,female,True
452,0.4508258632322355,25,down,down,0.5109158999985084,0.4964149932920192,,experiment,cRDM,1.0,,,,1139.9128266999903,101,24,female,True
453,0.4508258632322355,25,down,down,0.4169782999961171,0.3614478478328893,,experiment,cRDM,1.0,,,,1141.0461881000083,101,24,female,True
454,0.4508258632322355,25,up,up,0.3673533000110183,1.0626663344102707,,experiment,cRDM,1.0,,,,1142.7960811000085,101,24,female,True
455,0.4508258632322355,25,up,down,0.4563508999999612,0.6851467457627711,,experiment,cRDM,1.0,,,,1144.179367100005,101,24,female,True
456,0.4508258632322355,25,up,up,0.3671450999972876,0.5060335322892552,,experiment,cRDM,1.0,,,,1145.412644600001,101,24,female,True
457,0.4508258632322355,25,down,down,0.4002520999929402,0.9224504350471072,,experiment,cRDM,1.0,,,,1147.029285800003,101,24,female,True
458,0.4508258632322355,25,down,down,0.5335559000086505,1.5798910788643743,,experiment,cRDM,1.0,,,,1149.2791781999986,101,24,female,True
459,0.4508258632322355,25,up,up,0.350506899994798,0.526732860941959,,experiment,cRDM,1.0,,,,1150.6124410000048,101,24,female,True
460,0.4508258632322355,25,down,up,0.3338005999976303,0.5591241450660385,,experiment,cRDM,1.0,,,,1151.8457898999914,101,24,female,True
461,0.4508258632322355,25,up,up,0.5100188000069465,0.7236286594440684,,experiment,cRDM,1.0,,,,1153.2457471000089,101,24,female,True
462,0.4508258632322355,25,up,down,0.5077633000037167,1.17264865494409,,experiment,cRDM,1.0,,,,1155.178938600002,101,24,female,True
463,0.4508258632322355,25,up,down,0.4780586000124458,1.492270235070496,,experiment,cRDM,1.0,,,,1157.4455814000105,101,24,female,True
464,0.4508258632322355,25,down,down,0.460306799999671,0.8146006876919434,,experiment,cRDM,1.0,,,,1158.995475700009,101,24,female,True
465,0.4508258632322355,25,down,down,0.3338506000000052,0.3425409202473904,,experiment,cRDM,1.0,,,,1160.0620758000005,101,24,female,True
466,0.4508258632322355,25,up,up,0.5646819999965373,1.710170001444003,,experiment,cRDM,1.0,,,,1162.4620228999993,101,24,female,True
467,0.4508258632322355,25,down,down,0.4002770999795757,1.3492241709789083,,experiment,cRDM,1.0,,,,1164.6286230999976,101,24,female,True
468,0.4508258632322355,25,down,down,0.5008484999998473,1.704494712613366,,experiment,cRDM,1.0,,,,1167.011852800002,101,24,female,True
469,0.4508258632322355,25,up,down,0.4796319000015501,1.765702074582854,,experiment,cRDM,1.0,,,,1169.545121400006,101,24,female,True
470,0.4508258632322355,25,up,up,0.5213139999832492,0.4949805140416453,,experiment,cRDM,1.0,,,,1170.7783984999987,101,24,female,True
471,0.4508258632322355,25,down,down,0.4876302999909967,1.4805304574967224,,experiment,cRDM,1.0,,,,1173.0450287999993,101,24,female,True
472,0.4508258632322355,25,up,up,0.4431744999892544,1.6169921439987414,,experiment,cRDM,1.0,,,,1175.4115309999906,101,24,female,True
473,0.4508258632322355,25,down,down,0.3837999000097625,0.8182800143476241,,experiment,cRDM,1.0,,,,1176.928168399987,101,24,female,True
474,0.4508258632322355,25,down,down,0.400268600002164,1.622588603304377,,experiment,cRDM,1.0,,,,1179.244769699988,101,24,female,True
475,0.4508258632322355,25,down,down,0.3671274999796878,1.3767778188149022,,experiment,cRDM,1.0,,,,1181.294682000007,101,24,female,True
476,0.4508258632322355,25,up,down,0.3171165999956429,0.8671234760375199,,experiment,cRDM,1.0,,,,1182.8446461999847,101,24,female,True
477,0.4508258632322355,25,up,down,0.5271566000010353,1.728433670794692,,experiment,cRDM,1.0,,,,1185.2445253999904,101,24,female,True
478,0.4508258632322355,25,down,down,0.4002649000030942,0.4534072703879223,,experiment,cRDM,1.0,,,,1186.4944596999849,101,24,female,True
479,0.4508258632322355,25,down,down,0.4222956000012345,1.51720715100883,,experiment,cRDM,1.0,,,,1188.6944045999844,101,24,female,True
480,0.4508258632322355,25,up,down,0.3671160999801941,1.3567453842456092,,experiment,cRDM,1.0,,,,1190.7443666000036,101,24,female,True
481,0.4508258632322355,25,up,up,0.6051043999905232,1.8920681033897448,,experiment,cRDM,1.0,,,,1193.3275746,101,24,female,True
482,0.4508258632322355,25,up,up,0.5095399999991059,1.011542386875639,,experiment,cRDM,1.0,,,,1195.1941596999825,101,24,female,True
483,0.4508258632322355,25,up,up,0.4959808999847155,1.3394158934486224,,experiment,cRDM,1.0,,,,1197.310745900002,101,24,female,True
484,0.4508258632322355,25,up,up,0.5046565000084229,0.8599786568754488,,experiment,cRDM,1.0,,,,1198.9440461999911,101,24,female,True
485,0.4508258632322355,25,down,down,0.3671039000037126,1.507215828186618,,experiment,cRDM,1.0,,,,1201.227320200007,101,24,female,True
486,0.4508258632322355,25,down,down,0.3671502999786753,0.4323580222712412,,experiment,cRDM,1.0,,,,1202.343922,101,24,female,True
487,0.4508258632322355,25,up,down,0.2835365000064485,0.4982780875828109,,experiment,cRDM,1.0,,,,1203.527465799998,101,24,female,True
488,0.4508258632322355,25,down,down,0.4742545000044629,1.3454734445703298,,experiment,cRDM,1.0,,,,1205.5604463999916,101,24,female,True
489,0.4508258632322355,25,down,down,0.4359980000008363,1.9361453065192469,,experiment,cRDM,1.0,,,,1208.243705700006,101,24,female,True
490,0.4508258632322355,25,down,down,0.3337664999999106,0.4908051879297347,,experiment,cRDM,1.0,,,,1209.4436764999991,101,24,female,True
491,0.4508258632322355,25,up,down,0.367115000000922,1.5130700758639528,,experiment,cRDM,1.0,,,,1211.6269126999832,101,24,female,True
492,0.4508258632322355,25,down,down,0.7251651000115089,0.640948565491424,,experiment,cRDM,1.0,,,,1212.943548499985,101,24,female,True
493,0.4508258632322355,25,down,down,0.4002577999781351,0.5896743713193351,,experiment,cRDM,1.0,,,,1214.5100948000036,101,24,female,True
494,0.4508258632322355,25,down,down,0.2671516000118572,1.1504973802252945,,experiment,cRDM,1.0,,,,1216.3267164999852,101,24,female,True
495,0.4508258632322355,25,up,up,0.3504769999999553,1.8048972555212497,,experiment,cRDM,1.0,,,,1218.8266491999966,101,24,female,True
496,0.4508258632322355,25,up,up,0.5144933999981731,1.7901826373997702,,experiment,cRDM,1.0,,,,1221.2932094999996,101,24,female,True
497,0.4508258632322355,25,down,down,0.4932159000018146,1.3417195368839478,,experiment,cRDM,1.0,,,,1223.4264704000088,101,24,female,True
498,0.4508258632322355,25,up,down,0.4002384000050369,1.2976448087818817,,experiment,cRDM,1.0,,,,1225.4763791000005,101,24,female,True
499,0.4508258632322355,25,down,down,0.5543656000227202,0.6184379642887888,,experiment,cRDM,1.0,,,,1226.7763283000097,101,24,female,True
500,0.4508258632322355,25,up,down,0.3838191000104416,1.6021343080982535,,experiment,cRDM,1.0,,,,1229.2095603999917,101,24,female,True
501,0.4508258632322355,25,up,down,0.4458506999944802,1.5001426230687822,,experiment,cRDM,1.0,,,,1231.3928465000065,101,24,female,True
502,117.0,25,M,down,0.962988499988569,0.663640869672862,,experiment,emotion,2.0,,,,1237.6426675999828,101,24,female,True
503,88.0,25,M,down,0.3668430000252556,1.0674085252973418,,experiment,emotion,2.0,,,,1239.9592652999854,101,24,female,True
504,107.0,25,F,down,0.3001896000059787,1.0067999426994858,,experiment,emotion,2.0,,,,1241.659177499998,101,24,female,True
505,117.0,25,F,up,0.684235799999442,1.5062263896513504,,experiment,emotion,2.0,,,,1243.8424560999847,101,24,female,True
506,107.0,25,M,up,0.7700793000112753,1.886401204410336,,experiment,emotion,2.0,,,,1246.6756613999896,101,24,female,True
507,98.0,25,F,up,0.3334397999860812,0.5715105819378641,,experiment,emotion,2.0,,,,1248.2922823999834,101,24,female,True
508,88.0,25,M,up,0.3001222000166308,0.5686278260103717,,experiment,emotion,2.0,,,,1249.5422756999906,101,24,female,True
509,98.0,25,M,up,0.3334862000192515,1.963791057524188,,experiment,emotion,2.0,,,,1252.1921389999916,101,24,female,True
510,117.0,25,F,down,0.4001827999891247,1.3794108341407565,,experiment,emotion,2.0,,,,1254.258720999991,101,24,female,True
511,98.0,25,F,down,0.2835084999969695,1.344587356538735,,experiment,emotion,2.0,,,,1256.308632500004,101,24,female,True
512,107.0,25,F,down,0.6827622999844607,0.9576594363884492,,experiment,emotion,2.0,,,,1257.9419274000102,101,24,female,True
513,117.0,25,F,down,0.771529499994358,1.0265970439938426,,experiment,emotion,2.0,,,,1259.9251759999895,101,24,female,True
514,107.0,25,F,down,0.3001967000018339,1.5387101032828563,,experiment,emotion,2.0,,,,1262.5083874999837,101,24,female,True
515,88.0,25,F,down,0.3669133000075817,1.6524187329236422,,experiment,emotion,2.0,,,,1264.8583348999964,101,24,female,True
516,98.0,25,M,down,0.4974206000042613,1.006930952073065,,experiment,emotion,2.0,,,,1266.5582724999986,101,24,female,True
517,88.0,25,M,down,0.200149300013436,1.1945427334120229,,experiment,emotion,2.0,,,,1268.5248153999855,101,24,female,True
518,117.0,25,M,down,0.2668499000137672,0.4224132973448994,,experiment,emotion,2.0,,,,1269.6414691999962,101,24,female,True
519,88.0,25,M,down,0.7879325999820139,1.5537116498728063,,experiment,emotion,2.0,,,,1271.874752100004,101,24,female,True
520,107.0,25,F,down,0.2501771999814082,0.8241445331571275,,experiment,emotion,2.0,,,,1273.7580006000062,101,24,female,True
521,107.0,25,M,down,0.3502484000055119,0.6298813920096361,,experiment,emotion,2.0,,,,1275.0912914999935,101,24,female,True
522,98.0,25,M,down,0.2668603000056464,0.7447471143432165,,experiment,emotion,2.0,,,,1276.5245369999902,101,24,female,True
523,98.0,25,F,down,0.3835037999961059,0.5878536775157095,,experiment,emotion,2.0,,,,1277.791200000007,101,24,female,True
524,88.0,25,M,down,0.333504099980928,1.051855672738918,,experiment,emotion,2.0,,,,1279.5411271000048,101,24,female,True
525,117.0,25,F,up,0.8450055999855977,1.743917984846056,,experiment,emotion,2.0,,,,1282.007679600007,101,24,female,True
526,107.0,25,F,up,0.6437297000084072,1.859451614702708,,experiment,emotion,2.0,,,,1284.9909238999826,101,24,female,True
527,88.0,25,M,up,0.4002487999969162,0.6035514934677517,,experiment,emotion,2.0,,,,1286.4908798999968,101,24,female,True
528,117.0,25,M,up,0.350210300006438,0.6475544682976055,,experiment,emotion,2.0,,,,1287.8241048000054,101,24,female,True
529,117.0,25,F,up,0.3002260999928694,0.3027902077967926,,experiment,emotion,2.0,,,,1288.824031900003,101,24,female,True
530,98.0,25,M,up,0.5253046999860089,0.5103032487746568,,experiment,emotion,2.0,,,,1290.0073817000084,101,24,female,True
531,88.0,25,F,down,0.7842734000005294,0.5586076842912872,,experiment,emotion,2.0,,,,1291.357364399999,101,24,female,True
532,98.0,25,F,down,0.3835159000009298,0.8072986427920921,,experiment,emotion,2.0,,,,1293.2239390999894,101,24,female,True
533,107.0,25,F,down,0.3668331000080798,1.2078761421499276,,experiment,emotion,2.0,,,,1295.1238715999934,101,24,female,True
534,88.0,25,M,down,0.250162000011187,1.420791767874635,,experiment,emotion,2.0,,,,1297.240474399994,101,24,female,True
535,117.0,25,M,down,0.2501820999896154,0.7280936712312507,,experiment,emotion,2.0,,,,1298.657080600009,101,24,female,True
536,107.0,25,M,down,0.2501696000108495,0.5088527391198094,,experiment,emotion,2.0,,,,1299.8570386999927,101,24,female,True
537,117.0,25,F,down,0.4834088999778032,1.5484260878923557,,experiment,emotion,2.0,,,,1302.090303999983,101,24,female,True
538,88.0,25,F,down,0.3335212999954819,1.9511014165289036,,experiment,emotion,2.0,,,,1304.7901963999902,101,24,female,True
539,107.0,25,M,down,0.4001885999750811,0.8033746450555426,,experiment,emotion,2.0,,,,1306.2734852999856,101,24,female,True
540,98.0,25,F,down,0.2835053000017069,0.8232154995888052,,experiment,emotion,2.0,,,,1307.7900756000015,101,24,female,True
541,98.0,25,M,down,0.3001884999976028,1.3020798005058012,,experiment,emotion,2.0,,,,1309.7733225999982,101,24,female,True
542,107.0,25,M,down,0.497100100008538,1.7929379192481951,,experiment,emotion,2.0,,,,1312.2565961999935,101,24,female,True
543,117.0,25,M,down,0.2834991999843623,1.8227812927297964,,experiment,emotion,2.0,,,,1314.8565011000028,101,24,female,True
544,98.0,25,F,,,1.9667897887555843,,experiment,emotion,2.0,,,,1317.5063727000088,101,24,female,True
545,88.0,25,F,down,0.3669062000117264,0.8592230296874932,,experiment,emotion,2.0,,,,1321.072945699998,101,24,female,True
546,88.0,25,M,down,0.2503466999914963,1.7920245805211876,,experiment,emotion,2.0,,,,1323.5561826000048,101,24,female,True
547,98.0,25,F,down,0.4169840000104159,0.7367308645703154,,experiment,emotion,2.0,,,,1324.9727786000003,101,24,female,True
548,117.0,25,F,down,0.2835096000053454,1.803817788117836,,experiment,emotion,2.0,,,,1327.472688799986,101,24,female,True
549,107.0,25,M,down,0.2501300000003539,1.578789912666848,,experiment,emotion,2.0,,,,1329.755951900006,101,24,female,True
550,88.0,25,M,down,0.4168418000044767,1.4624688031385993,,experiment,emotion,2.0,,,,1331.905841700005,101,24,female,True
551,117.0,25,F,down,0.2501774999836925,1.2244545179456856,,experiment,emotion,2.0,,,,1333.8224501000077,101,24,female,True
552,107.0,25,M,down,0.4258040999993682,1.7821973792811927,,experiment,emotion,2.0,,,,1336.2890260999848,101,24,female,True
553,107.0,25,F,down,0.3001421999942977,1.4639887906465368,,experiment,emotion,2.0,,,,1338.4389673999976,101,24,female,True
554,88.0,25,F,down,0.4168785999936517,0.4747536254890615,,experiment,emotion,2.0,,,,1339.588914699998,101,24,female,True
555,98.0,25,F,down,0.3334923999791499,1.8640691165042016,,experiment,emotion,2.0,,,,1342.1554943000085,101,24,female,True
556,117.0,25,M,down,0.266826899984153,1.992080118873209,,experiment,emotion,2.0,,,,1344.82205670001,101,24,female,True
557,98.0,25,M,down,0.366843499999959,0.844693887289728,,experiment,emotion,2.0,,,,1346.3553332999873,101,24,female,True
558,98.0,25,F,down,0.3501733000157401,1.941524788379912,,experiment,emotion,2.0,,,,1348.988569899986,101,24,female,True
559,98.0,25,F,down,0.4001981999899726,1.7688658624258025,,experiment,emotion,2.0,,,,1351.4551367000097,101,24,female,True
560,117.0,25,M,down,0.4585943999991286,0.6980875846283947,,experiment,emotion,2.0,,,,1352.8550819999946,101,24,female,True
561,107.0,25,M,down,0.3334872999985236,1.7596042155465277,,experiment,emotion,2.0,,,,1355.3549975999922,101,24,female,True
562,88.0,25,M,down,0.3501666999945882,0.4826604024617652,,experiment,emotion,2.0,,,,1356.5549503999937,101,24,female,True
563,88.0,25,M,down,0.3002225999953225,0.8870164449144347,,experiment,emotion,2.0,,,,1358.1215707999943,101,24,female,True
564,107.0,25,M,down,0.3001655000261962,1.32866829495031,,experiment,emotion,2.0,,,,1360.1381582999893,101,24,female,True
565,117.0,25,F,down,0.3668481000058818,1.3811981249847989,,experiment,emotion,2.0,,,,1362.2047338999982,101,24,female,True
566,117.0,25,F,up,0.333517799997935,0.7497413322113826,,experiment,emotion,2.0,,,,1363.654680000007,101,24,female,True
567,88.0,25,M,down,0.6077348000253551,0.4982204560000343,,experiment,emotion,2.0,,,,1364.8379767999868,101,24,female,True
568,117.0,25,F,down,0.5151700999995228,0.9853455599879216,,experiment,emotion,2.0,,,,1366.7045488999863,101,24,female,True
569,98.0,25,F,down,0.316942499979632,1.7205772869855829,,experiment,emotion,2.0,,,,1369.2211629000085,101,24,female,True
570,107.0,25,F,down,0.4912788000074215,1.3985223846872454,,experiment,emotion,2.0,,,,1371.304402299982,101,24,female,True
571,98.0,25,M,down,0.3001631000079214,1.8328024212032996,,experiment,emotion,2.0,,,,1373.8876508999963,101,24,female,True
572,88.0,25,F,down,0.4169047999894246,1.4741348237540737,,experiment,emotion,2.0,,,,1376.037555899995,101,24,female,True
573,107.0,25,F,down,0.2668676000030245,0.8823617282736371,,experiment,emotion,2.0,,,,1377.6207905999909,101,24,female,True
574,98.0,25,F,down,0.2335274000070057,1.1240508624100147,,experiment,emotion,2.0,,,,1379.437449399993,101,24,female,True
575,107.0,25,M,down,0.2834793000074569,1.928459459196661,,experiment,emotion,2.0,,,,1382.0706960000098,101,24,female,True
576,88.0,25,M,down,0.2835491000150796,1.7814757262845806,,experiment,emotion,2.0,,,,1384.5539249999856,101,24,female,True
577,117.0,25,F,,,1.3299827031813616,,experiment,emotion,2.0,,,,1386.5705323999864,101,24,female,True
578,107.0,25,M,down,0.3334994000033475,0.588795039591502,,experiment,emotion,2.0,,,,1389.853726100002,101,24,female,True
579,117.0,25,F,down,0.4001899000140838,0.330410151405557,,experiment,emotion,2.0,,,,1390.8870424999914,101,24,female,True
580,88.0,25,M,down,0.3001781000057235,0.6337384845413939,,experiment,emotion,2.0,,,,1392.2203212000022,101,24,female,True
581,98.0,25,M,down,0.3668929999985266,1.5889056538227742,,experiment,emotion,2.0,,,,1394.5034953999857,101,24,female,True
582,0.4508258632322355,25,up,down,0.730409600015264,0.3847449282674064,,experiment,cRDM,2.0,,,,1410.7862086000096,101,24,female,True
583,0.4508258632322355,25,up,down,0.3671632000186946,1.6963834251903784,,experiment,cRDM,2.0,,,,1413.4861076000088,101,24,female,True
584,0.4508258632322355,25,down,down,0.3005147999792825,0.6625054849516538,,experiment,cRDM,2.0,,,,1414.8194034000044,101,24,female,True
585,0.4508258632322355,25,down,down,0.4170077000162564,0.3569237662872147,,experiment,cRDM,2.0,,,,1415.8527182999824,101,24,female,True
586,0.4508258632322355,25,up,up,0.5497465999796987,1.763426532987205,,experiment,cRDM,2.0,,,,1418.2859401000023,101,24,female,True
587,0.4508258632322355,25,down,down,0.5881861000088975,1.6145189545225849,,experiment,cRDM,2.0,,,,1420.7025424999883,101,24,female,True
588,0.4508258632322355,25,up,up,0.4589345999993384,0.9905646686624812,,experiment,cRDM,2.0,,,,1422.535791900009,101,24,female,True
589,0.4508258632322355,25,up,up,0.4282439000089653,1.3909668520130574,,experiment,cRDM,2.0,,,,1424.652376299986,101,24,female,True
590,0.4508258632322355,25,down,down,0.4759775999991689,0.7932793985368274,,experiment,cRDM,2.0,,,,1426.1356572000077,101,24,female,True
591,0.4508258632322355,25,down,down,0.383803100005025,0.5833447319269327,,experiment,cRDM,2.0,,,,1427.4522825999884,101,24,female,True
592,0.4508258632322355,25,down,down,0.3004679000005126,0.5926900401161762,,experiment,cRDM,2.0,,,,1428.7355732999858,101,24,female,True
593,0.4508258632322355,25,down,up,0.6282121000112966,1.5282173572557274,,experiment,cRDM,2.0,,,,1430.935488099989,101,24,female,True
594,0.4508258632322355,25,down,down,0.3671795999980531,0.926394945075699,,experiment,cRDM,2.0,,,,1432.752086199995,101,24,female,True
595,0.4508258632322355,25,down,down,0.3004988000029698,0.5307443491343701,,experiment,cRDM,2.0,,,,1433.985361900006,101,24,female,True
596,0.4508258632322355,25,up,down,0.3004708999942522,0.3467521134103898,,experiment,cRDM,2.0,,,,1435.0186927999894,101,24,female,True
597,0.4508258632322355,25,up,,,0.6230497439511087,,experiment,cRDM,2.0,,,,1436.3186330999888,101,24,female,True
598,0.4508258632322355,25,up,up,0.5451768000202719,1.2357257402300572,,experiment,cRDM,2.0,,,,1440.2184882999863,101,24,female,True
599,0.4508258632322355,25,up,up,0.4529796999995596,1.8686059942178137,,experiment,cRDM,2.0,,,,1442.9017049999966,101,24,female,True
600,0.4508258632322355,25,down,down,0.3671687000023667,0.3161303294928783,,experiment,cRDM,2.0,,,,1443.9349918999942,101,24,female,True
601,0.4508258632322355,25,up,up,0.3838172999967355,0.4651796727215634,,experiment,cRDM,2.0,,,,1445.0849466999937,101,24,female,True
602,0.4508258632322355,25,up,up,0.4574413999798707,1.7037070711595552,,experiment,cRDM,2.0,,,,1447.468204200006,101,24,female,True
603,0.4508258632322355,25,down,up,0.3172379999887198,0.6962704715497996,,experiment,cRDM,2.0,,,,1448.884800800006,101,24,female,True
604,0.4508258632322355,25,up,up,0.5749193000083324,0.7150781916073761,,experiment,cRDM,2.0,,,,1450.2847454999865,101,24,female,True
605,0.4508258632322355,25,down,down,0.4189839999889955,1.204626011616302,,experiment,cRDM,2.0,,,,1452.3346765000024,101,24,female,True
606,0.4508258632322355,25,down,down,0.3171484000049531,0.4739984635237881,,experiment,cRDM,2.0,,,,1453.501337900001,101,24,female,True
607,0.4508258632322355,25,up,down,0.2838139999948907,0.5549802460106938,,experiment,cRDM,2.0,,,,1454.7346122000015,101,24,female,True
608,0.4508258632322355,25,up,up,0.4002746999904047,0.4218848265009233,,experiment,cRDM,2.0,,,,1455.8345604999922,101,24,female,True
609,0.4508258632322355,25,down,up,0.3505202000087593,1.5499231327355485,,experiment,cRDM,2.0,,,,1458.0511426999874,101,24,female,True
610,0.4508258632322355,25,up,up,0.5958921999845188,0.7323098376447107,,experiment,cRDM,2.0,,,,1459.4677761000055,101,24,female,True
611,0.4508258632322355,25,down,up,0.3838055999949574,0.6711870069587418,,experiment,cRDM,2.0,,,,1461.0010537999915,101,24,female,True
612,0.4508258632322355,25,down,down,0.6853383000125177,0.6023849655622813,,experiment,cRDM,2.0,,,,1462.2843221999938,101,24,female,True
613,0.4508258632322355,25,down,down,0.5214416999951936,1.7479827681130715,,experiment,cRDM,2.0,,,,1464.9842164999864,101,24,female,True
614,0.4508258632322355,25,up,up,0.4170381000149064,1.124754096057026,,experiment,cRDM,2.0,,,,1466.9008462000056,101,24,female,True
615,0.4508258632322355,25,up,up,0.5398936000128742,1.9688632142471376,,experiment,cRDM,2.0,,,,1469.5507218999846,101,24,female,True
616,0.4508258632322355,25,up,up,0.5266730000148527,1.8244339912259295,,experiment,cRDM,2.0,,,,1472.1839387000073,101,24,female,True
617,0.4508258632322355,25,down,down,0.3505635999899823,1.1846617540147382,,experiment,cRDM,2.0,,,,1474.1672236000013,101,24,female,True
618,0.4508258632322355,25,down,down,0.2837927999789826,0.3474491581163136,,experiment,cRDM,2.0,,,,1475.200542000006,101,24,female,True
619,0.4508258632322355,25,up,up,0.3671635999926366,1.6648759424904485,,experiment,cRDM,2.0,,,,1477.5504356999882,101,24,female,True
620,0.4508258632322355,25,down,down,0.5926176000211854,0.7857486454080327,,experiment,cRDM,2.0,,,,1479.0170369999832,101,24,female,True
621,0.4508258632322355,25,up,up,0.4596404999902006,1.0516606048772763,,experiment,cRDM,2.0,,,,1480.9170202999958,101,24,female,True
622,0.4508258632322355,25,up,down,0.533460600010585,1.4229950113694227,,experiment,cRDM,2.0,,,,1483.0502068999922,101,24,female,True
623,0.4508258632322355,25,up,down,0.4348216000071261,0.3611886209785368,,experiment,cRDM,2.0,,,,1484.2168954999945,101,24,female,True
624,0.4508258632322355,25,down,down,0.5528396000154316,1.2035519081787904,,experiment,cRDM,2.0,,,,1486.1168043999933,101,24,female,True
625,0.4508258632322355,25,down,down,0.4276749000127893,0.5179505825066066,,experiment,cRDM,2.0,,,,1487.4500650999837,101,24,female,True
626,0.4508258632322355,25,up,up,0.5323037999914959,1.006795081950073,,experiment,cRDM,2.0,,,,1489.1333345999883,101,24,female,True
627,0.4508258632322355,25,down,down,0.4513742999988608,0.7531112546062805,,experiment,cRDM,2.0,,,,1490.6832702000102,101,24,female,True
628,0.4508258632322355,25,down,down,0.6474350000207778,1.026914271434743,,experiment,cRDM,2.0,,,,1492.433228299982,101,24,female,True
629,0.4508258632322355,25,up,down,0.4931847000261768,1.3249641449306422,,experiment,cRDM,2.0,,,,1494.6664794000098,101,24,female,True
630,0.4508258632322355,25,up,up,0.3838468000176362,0.7711743983116643,,experiment,cRDM,2.0,,,,1496.1830639999826,101,24,female,True
631,0.4508258632322355,25,down,down,0.3671720999991521,1.45065166940489,,experiment,cRDM,2.0,,,,1498.2996725999983,101,24,female,True
632,0.4508258632322355,25,up,up,0.5387176999938674,0.8623947142055917,,experiment,cRDM,2.0,,,,1499.83293959999,101,24,female,True
633,0.4508258632322355,25,down,down,0.4747995999932755,1.2963960786599558,,experiment,cRDM,2.0,,,,1501.932858199987,101,24,female,True
634,0.4508258632322355,25,down,down,0.485191300016595,1.730622698636543,,experiment,cRDM,2.0,,,,1504.3994639999871,101,24,female,True
635,0.4508258632322355,25,down,down,0.452573399990797,0.4735335950879725,,experiment,cRDM,2.0,,,,1505.6160887999868,101,24,female,True
636,0.4508258632322355,25,up,up,0.4369907999935094,1.3167112222991038,,experiment,cRDM,2.0,,,,1507.6326625999936,101,24,female,True
637,0.4508258632322355,25,up,down,0.4170426999917254,1.5603259295696466,,experiment,cRDM,2.0,,,,1509.899250699993,101,24,female,True
638,0.4508258632322355,25,down,down,0.3838536000112071,1.6271655514519927,,experiment,cRDM,2.0,,,,1512.2158470999857,101,24,female,True
639,0.4508258632322355,25,down,down,0.6458925000042655,1.075815117300265,,experiment,cRDM,2.0,,,,1513.9657559999905,101,24,female,True
640,0.4508258632322355,25,up,up,0.5190212000161409,1.893619792769469,,experiment,cRDM,2.0,,,,1516.7656612999854,101,24,female,True
641,0.4508258632322355,25,up,down,0.4002525000250898,0.5973122898104766,,experiment,cRDM,2.0,,,,1518.148931600008,101,24,female,True
642,0.4508258632322355,25,up,down,0.5994083000114188,1.2520579130771985,,experiment,cRDM,2.0,,,,1520.0821904999902,101,24,female,True
643,0.4508258632322355,25,up,down,0.3671304000017699,0.7107646570803956,,experiment,cRDM,2.0,,,,1521.6654914999965,101,24,female,True
644,0.4508258632322355,25,up,down,0.4989751000248361,1.7955057107396994,,experiment,cRDM,2.0,,,,1524.14871400001,101,24,female,True
645,0.4508258632322355,25,down,up,0.3838337000051979,0.5480207161978717,,experiment,cRDM,2.0,,,,1525.465319399984,101,24,female,True
646,0.4508258632322355,25,down,down,0.6387659999891184,1.9383079277289512,,experiment,cRDM,2.0,,,,1528.0818791000056,101,24,female,True
647,0.4508258632322355,25,up,down,0.4614448999927845,1.220237371639359,,experiment,cRDM,2.0,,,,1530.2152150000038,101,24,female,True
648,0.4508258632322355,25,down,down,0.4492433999839704,1.119001471546945,,experiment,cRDM,2.0,,,,1532.048426399997,101,24,female,True
649,0.4508258632322355,25,down,down,0.4002560999942943,1.5804827831007693,,experiment,cRDM,2.0,,,,1534.3483240999922,101,24,female,True
650,0.4508258632322355,25,down,down,0.3005008000181988,0.9025306501719051,,experiment,cRDM,2.0,,,,1535.9316161999886,101,24,female,True
651,0.4508258632322355,25,up,down,0.3004762000055052,0.5324208225733689,,experiment,cRDM,2.0,,,,1537.1482554000104,101,24,female,True
652,0.4508258632322355,25,down,down,0.4532372000103351,1.767031060616071,,experiment,cRDM,2.0,,,,1539.5814567999914,101,24,female,True
653,0.4508258632322355,25,down,up,0.3671568999998271,1.7957626218595313,,experiment,cRDM,2.0,,,,1542.081386100006,101,24,female,True
654,0.4508258632322355,25,down,down,0.3838222999766003,1.9920146955518367,,experiment,cRDM,2.0,,,,1544.7479518000036,101,24,female,True
655,0.4508258632322355,25,up,down,0.561090500006685,0.4255353910166846,,experiment,cRDM,2.0,,,,1545.8645829999878,101,24,female,True
656,0.4508258632322355,25,up,up,0.4437922000070102,0.8628157625471209,,experiment,cRDM,2.0,,,,1547.5478607999976,101,24,female,True
657,0.4508258632322355,25,down,down,0.3004849999852013,1.7038197703883973,,experiment,cRDM,2.0,,,,1549.964422699995,101,24,female,True
658,0.4508258632322355,25,up,up,0.5360227000201121,1.460614111574955,,experiment,cRDM,2.0,,,,1552.0976953000063,101,24,female,True
659,0.4508258632322355,25,down,down,0.3505715999926906,0.401348443475495,,experiment,cRDM,2.0,,,,1553.2976631000056,101,24,female,True
660,0.4508258632322355,25,up,up,0.3504946999892127,1.7148468255410974,,experiment,cRDM,2.0,,,,1555.6808717999957,101,24,female,True
661,0.4508258632322355,25,up,down,0.3505741000117268,1.2901962810625738,,experiment,cRDM,2.0,,,,1557.647492199991,101,24,female,True
662,117.0,25,M,down,0.7695429000013974,0.7894011966760793,,experiment,emotion,3.0,,,,1569.9470958999882,101,24,female,True
663,88.0,25,M,down,0.3335012999887112,0.4010249062827795,,experiment,emotion,3.0,,,,1571.4137239999836,101,24,female,True
664,107.0,25,F,down,0.4519938000012189,0.8560807591167787,,experiment,emotion,3.0,,,,1572.9636694999936,101,24,female,True
665,117.0,25,F,down,0.3668657999951392,0.890998766886044,,experiment,emotion,3.0,,,,1574.5802347999995,101,24,female,True
666,107.0,25,M,down,0.4177867999824229,1.5708598795784752,,experiment,emotion,3.0,,,,1576.846842800005,101,24,female,True
667,98.0,25,F,down,0.488192999997409,0.815929302426295,,experiment,emotion,3.0,,,,1578.3634566999972,101,24,female,True
668,88.0,25,M,down,0.2335153000021819,1.1908725918955827,,experiment,emotion,3.0,,,,1580.313386599999,101,24,female,True
669,98.0,25,M,down,0.8779816000023857,0.7473846687405011,,experiment,emotion,3.0,,,,1581.746665099985,101,24,female,True
670,117.0,25,F,,,1.0549380651676588,,experiment,emotion,3.0,,,,1583.9465827000097,101,24,female,True
671,98.0,25,F,down,0.2835052000009455,0.6731116164615006,,experiment,emotion,3.0,,,,1587.2964280000017,101,24,female,True
672,107.0,25,F,down,0.2835091000015382,0.843710533909237,,experiment,emotion,3.0,,,,1588.829736099986,101,24,female,True
673,117.0,25,F,down,0.2501455000019632,0.9247082228900528,,experiment,emotion,3.0,,,,1590.4463534000097,101,24,female,True
674,107.0,25,F,down,0.2835312999959569,1.347263213906463,,experiment,emotion,3.0,,,,1592.479588599992,101,24,female,True
675,88.0,25,F,down,0.3834892000013497,1.0694991248692414,,experiment,emotion,3.0,,,,1594.2462098999822,101,24,female,True
676,98.0,25,M,down,0.2835238999978173,0.7943029086758857,,experiment,emotion,3.0,,,,1595.7294758000062,101,24,female,True
677,88.0,25,M,down,0.3334966999827884,1.8177764549864748,,experiment,emotion,3.0,,,,1598.2293923999823,101,24,female,True
678,117.0,25,M,down,0.5302938999957405,0.3728143991024755,,experiment,emotion,3.0,,,,1599.2793420999951,101,24,female,True
679,88.0,25,M,down,0.3168517000158317,1.1192142949543449,,experiment,emotion,3.0,,,,1601.195930899994,101,24,female,True
680,107.0,25,F,down,0.2668508999922778,0.7854779423215207,,experiment,emotion,3.0,,,,1602.6792032000085,101,24,female,True
681,107.0,25,M,down,0.693822100001853,1.8382130070192495,,experiment,emotion,3.0,,,,1605.1958171000006,101,24,female,True
682,98.0,25,M,down,0.3501628000230994,0.8826221046127314,,experiment,emotion,3.0,,,,1607.0290727999818,101,24,female,True
683,98.0,25,F,down,0.3001914999913424,0.946937421343347,,experiment,emotion,3.0,,,,1608.645671699982,101,24,female,True
684,88.0,25,M,down,0.283535499998834,0.5818431843623527,,experiment,emotion,3.0,,,,1609.91230679999,101,24,female,True
685,117.0,25,F,down,0.3168246999848634,1.2122249704654509,,experiment,emotion,3.0,,,,1611.812228900002,101,24,female,True
686,107.0,25,F,up,0.6312158000073396,1.841267344479669,,experiment,emotion,3.0,,,,1614.345442699996,101,24,female,True
687,88.0,25,M,up,0.6499709999770857,1.6233635307089205,,experiment,emotion,3.0,,,,1616.8786974000104,101,24,female,True
688,117.0,25,M,up,0.6303528999851551,1.6511254811502054,,experiment,emotion,3.0,,,,1619.445263200003,101,24,female,True
689,117.0,25,F,up,0.4567318999907002,1.7032174453798918,,experiment,emotion,3.0,,,,1622.061862400005,101,24,female,True
690,98.0,25,M,up,0.3168399000132922,1.8561504020378248,,experiment,emotion,3.0,,,,1624.6617482999864,101,24,female,True
691,88.0,25,F,down,0.6919646000023931,1.3698802043822405,,experiment,emotion,3.0,,,,1626.7116891999904,101,24,female,True
692,98.0,25,F,down,0.3836059999885037,0.7511442275565386,,experiment,emotion,3.0,,,,1628.4449470999823,101,24,female,True
693,107.0,25,F,down,0.3501377000065986,1.315738526011102,,experiment,emotion,3.0,,,,1630.4448770000015,101,24,female,True
694,88.0,25,M,down,0.2501604999997653,1.9103855659928737,,experiment,emotion,3.0,,,,1633.0447824999865,101,24,female,True
695,117.0,25,M,down,0.2501637000241317,0.6266270681114139,,experiment,emotion,3.0,,,,1634.3780598999874,101,24,female,True
696,107.0,25,M,down,0.2501782000181265,1.399009626320688,,experiment,emotion,3.0,,,,1636.4613330999855,101,24,female,True
697,117.0,25,F,down,0.266777999990154,1.627402285768169,,experiment,emotion,3.0,,,,1638.777913500002,101,24,female,True
698,88.0,25,F,down,0.2335084999795071,1.775580742119812,,experiment,emotion,3.0,,,,1641.227809700009,101,24,female,True
699,107.0,25,M,down,0.2668243999942206,1.6312526329059995,,experiment,emotion,3.0,,,,1643.544398099999,101,24,female,True
700,98.0,25,F,down,0.3001612999942153,1.477752231699445,,experiment,emotion,3.0,,,,1645.7276362999985,101,24,female,True
701,98.0,25,M,down,0.4311403000028804,0.863301517782902,,experiment,emotion,3.0,,,,1647.2775576999993,101,24,female,True
702,107.0,25,M,down,0.2668405000003986,1.8539372770953744,,experiment,emotion,3.0,,,,1649.8441519000044,101,24,female,True
703,117.0,25,M,down,0.599225000012666,0.6116853967093174,,experiment,emotion,3.0,,,,1651.1774236999918,101,24,female,True
704,98.0,25,F,down,0.5065807000210043,0.4885192075711891,,experiment,emotion,3.0,,,,1652.5440558999835,101,24,female,True
705,88.0,25,F,down,0.2668624999932945,1.596482035891846,,experiment,emotion,3.0,,,,1654.9272838000034,101,24,female,True
706,88.0,25,M,down,0.4001897999842185,1.8031339276285885,,experiment,emotion,3.0,,,,1657.4105466000035,101,24,female,True
707,98.0,25,F,down,0.4001847000035923,1.1225970734222308,,experiment,emotion,3.0,,,,1659.2271329000068,101,24,female,True
708,117.0,25,F,down,0.2835033999872394,0.587688387009083,,experiment,emotion,3.0,,,,1660.493743900006,101,24,female,True
709,107.0,25,M,down,0.2501873000001069,0.3705969853795908,,experiment,emotion,3.0,,,,1661.5437231000103,101,24,female,True
710,88.0,25,M,down,0.2668452000070829,1.340563224543578,,experiment,emotion,3.0,,,,1663.5769646999834,101,24,female,True
711,117.0,25,F,down,0.400138800003333,1.9435221910698357,,experiment,emotion,3.0,,,,1666.210232399986,101,24,female,True
712,107.0,25,M,down,0.3168509000097401,0.6713797297633755,,experiment,emotion,3.0,,,,1667.576836799999,101,24,female,True
713,107.0,25,F,down,0.3335365999955684,1.218628579897264,,experiment,emotion,3.0,,,,1669.4934150000045,101,24,female,True
714,88.0,25,F,down,0.283614399988437,1.4167265347980988,,experiment,emotion,3.0,,,,1671.5933338000032,101,24,female,True
715,98.0,25,F,down,0.3335279999882914,1.4956776887709762,,experiment,emotion,3.0,,,,1673.793264499982,101,24,female,True
716,117.0,25,M,down,0.4320734999782871,0.7594400188553081,,experiment,emotion,3.0,,,,1675.226560399984,101,24,female,True
717,98.0,25,M,down,0.3334964000096079,1.6183728564986366,,experiment,emotion,3.0,,,,1677.543143499992,101,24,female,True
718,98.0,25,F,down,0.283524899976328,1.068083002248877,,experiment,emotion,3.0,,,,1679.2930391999837,101,24,female,True
719,98.0,25,F,down,0.2835512000019662,0.4651886801235455,,experiment,emotion,3.0,,,,1680.443017799989,101,24,female,True
720,117.0,25,M,down,0.2502422999823466,0.8163458679088778,,experiment,emotion,3.0,,,,1681.95961369999,101,24,female,True
721,107.0,25,M,down,0.3335128000180702,1.863580035496696,,experiment,emotion,3.0,,,,1684.5262035999913,101,24,female,True
722,88.0,25,M,down,0.4169181000033859,1.6836153371900575,,experiment,emotion,3.0,,,,1686.9261239999903,101,24,female,True
723,88.0,25,M,down,0.3167939000122715,0.3460645536896689,,experiment,emotion,3.0,,,,1687.9594297999863,101,24,female,True
724,107.0,25,M,down,0.3001560000120662,0.8328876030586472,,experiment,emotion,3.0,,,,1689.47602609999,101,24,female,True
725,117.0,25,F,down,0.3001960999972652,0.8110924245552193,,experiment,emotion,3.0,,,,1690.9759788000083,101,24,female,True
726,117.0,25,F,down,0.3001643000170588,1.3168845554076771,,experiment,emotion,3.0,,,,1692.9758953999844,101,24,female,True
727,88.0,25,M,down,0.2668884999875445,1.8674699997009223,,experiment,emotion,3.0,,,,1695.525819100003,101,24,female,True
728,117.0,25,F,down,0.2835238999978173,0.6887203335688097,,experiment,emotion,3.0,,,,1696.8924331000017,101,24,female,True
729,98.0,25,F,down,0.2834984000073746,1.394782884149255,,experiment,emotion,3.0,,,,1698.9756786999933,101,24,female,True
730,107.0,25,F,down,0.3835269999981392,1.6208634539244695,,experiment,emotion,3.0,,,,1701.27557659999,101,24,female,True
731,98.0,25,M,down,0.5031094999867491,1.4676104511581125,,experiment,emotion,3.0,,,,1703.425519099983,101,24,female,True
