,stimLvl,stimTime,rand,response,rt,precedingITI,trialNumber,trialType,stimuli,block,estIntens,estThres,estSlope,trialStart,subject,age,gender,headRest
0,0.9,100,down,,,0.7290754684844258,,introTrial,cRDM,,,,,327.9416773000012,1014,30,female,True
1,150.0,100,F,,,1.9813981928734412,,introTrial,emotion,,,,,333.87477710000167,1014,30,female,True
2,0.9,25,up,up,0.8033011999978044,1.6441607756617471,,tutorial,cRDM,,,,,358.62384530000054,1014,30,female,True
3,0.9,25,up,up,0.8824309000010544,0.6080619577049192,,tutorial,cRDM,,,,,360.3237902000001,1014,30,female,True
4,0.9,25,down,down,0.5497847999977239,0.7237586517194368,,tutorial,cRDM,,,,,362.24038230000224,1014,30,female,True
5,0.9,25,up,up,0.6055616999983613,1.8621533923087945,,tutorial,cRDM,,,,,364.9236081000017,1014,30,female,True
6,0.9,25,down,down,0.624912499999482,1.548503223873114,,tutorial,cRDM,,,,,367.3402016,1014,30,female,True
7,0.9,25,up,up,0.6070360000012442,0.7026604616204761,,tutorial,cRDM,,,,,368.9401180000023,1014,30,female,True
8,0.9,25,up,up,0.4168086999998195,1.6094390646893055,,tutorial,cRDM,,,,,371.4400532,1014,30,female,True
9,0.9,25,down,down,0.6091377999982797,1.6689188230693752,,tutorial,cRDM,,,,,373.789970400001,1014,30,female,True
10,0.9,25,down,down,0.5192596000015328,1.6764820856903924,,tutorial,cRDM,,,,,376.3398660000021,1014,30,female,True
11,0.9,25,down,down,0.3671514000016032,1.4152793161772086,,tutorial,cRDM,,,,,378.5564348000007,1014,30,female,True
12,200.0,25,M,up,0.3832801999997173,0.4465015232174006,,tutorial,emotion,,,,,386.7894831000012,1014,30,female,True
13,200.0,25,M,down,0.7354702000011457,0.8191721596361581,,tutorial,emotion,,,,,388.32275500000105,1014,30,female,True
14,200.0,25,F,up,0.4167880000022705,0.5740575307949682,,tutorial,emotion,,,,,389.9060449999997,1014,30,female,True
15,0.0,25,F,down,0.4512696999991021,1.0372990175854204,,tutorial,emotion,,,,,391.672886700002,1014,30,female,True
16,0.0,25,M,down,0.4168343000019376,1.1518898275336606,,tutorial,emotion,,,,,393.5558965000018,1014,30,female,True
17,200.0,25,F,up,0.5679600999974355,1.6753391985468018,,tutorial,emotion,,,,,395.9391522000005,1014,30,female,True
18,0.0,25,M,down,0.5434862000001885,1.962379248245371,,tutorial,emotion,,,,,398.7556783,1014,30,female,True
19,200.0,25,M,up,0.5384991999999329,0.8396664728122027,,tutorial,emotion,,,,,400.4056343000011,1014,30,female,True
20,0.0,25,F,down,0.4405451000020548,1.176513094576506,,tutorial,emotion,,,,,402.40560760000153,1014,30,female,True
21,0.0,25,F,down,0.4300031999991915,1.9964190161467417,,tutorial,emotion,,,,,405.1221495000027,1014,30,female,True
22,0.29,25,up,up,0.416761000000406,0.95157981859865,,psi_staircase_training,cRDM,,0.25,0.2569312402994632,0.105,414.0051671000001,1014,30,female,True
23,0.25,25,up,up,0.4260649999996531,0.6123641479034687,,psi_staircase_training,cRDM,,0.2191026665318312,0.2260132002683492,0.1046863203387393,415.3051169000028,1014,30,female,True
24,0.21,25,down,down,0.3171578000001318,1.1662398750954346,,psi_staircase_training,cRDM,,0.1900540959403307,0.1968497961554001,0.1029467298424999,417.1717320999997,1014,30,female,True
25,0.18,25,down,down,0.4517661999998381,0.3140900525029031,,psi_staircase_training,cRDM,,0.1635257589279754,0.1701521334256793,0.1003816477568649,418.18835390000095,1014,30,female,True
26,0.15,25,up,down,0.5486113000006299,0.9528594204995828,,psi_staircase_training,cRDM,,0.1401895574244936,0.1466013351187503,0.0971307628663642,419.8716176000016,1014,30,female,True
27,0.23,25,down,down,0.6968005999988236,0.8785806407023748,,psi_staircase_training,cRDM,,0.210999448285869,0.2182212030750301,0.1094009470311747,421.5715197999998,1014,30,female,True
28,0.22,25,up,up,0.5384148999983154,0.5932488527282768,,psi_staircase_training,cRDM,,0.1898391363799982,0.1968641707063681,0.1064208673195135,423.1547959000018,1014,30,female,True
29,0.2,25,down,down,0.5699061999985133,1.2049182337990665,,psi_staircase_training,cRDM,,0.1724197329123496,0.1791801401399429,0.1024120832965874,425.1712948000022,1014,30,female,True
30,0.19,25,down,down,0.5501387000003888,0.7181485285491972,,psi_staircase_training,cRDM,,0.1577353704581559,0.1642582571393365,0.0988139311195144,426.73800530000153,1014,30,female,True
31,0.18,25,up,up,0.6836606000033498,1.5992374159975264,,psi_staircase_training,cRDM,,0.1455364682314865,0.151839903251056,0.0954895009347825,429.17150460000266,1014,30,female,True
32,0.14,25,down,up,0.4226275000000896,0.3753018194917278,,psi_staircase_training,cRDM,,0.1349907220501729,0.1411352194734327,0.0930817864577908,430.5045334000024,1014,30,female,True
33,0.19,25,down,up,0.6971333000001323,1.7675127523200302,,psi_staircase_training,cRDM,,0.1669168705805971,0.1719684655547868,0.0765256215876675,432.9710441000025,1014,30,female,True
34,0.23,25,down,down,0.5632070999999996,0.6288846045320745,,psi_staircase_training,cRDM,,0.2079089052702925,0.2149495901225088,0.1066579540663101,434.5709553000015,1014,30,female,True
35,0.23,25,up,up,0.4741286999997101,0.6971943583701494,,psi_staircase_training,cRDM,,0.1946288500092631,0.2012918706817314,0.1009367934716311,436.1210035000004,1014,30,female,True
36,0.22,25,up,up,0.4495233999987249,1.616139724094544,,psi_staircase_training,cRDM,,0.1844749779533882,0.1907201450831962,0.094606812099794,438.487594000002,1014,30,female,True
37,0.21,25,down,up,0.7156451999981073,0.4661905479162324,,psi_staircase_training,cRDM,,0.1766238439122325,0.1824594253604907,0.0884020789344954,439.6875274000013,1014,30,female,True
38,0.25,25,down,up,0.4400451999972574,0.3770773219547567,,psi_staircase_training,cRDM,,0.210745333803859,0.2184565818498443,0.1168161843835022,441.0541441999994,1014,30,female,True
39,0.33,25,up,down,0.4530553000004147,0.6807257216666035,,psi_staircase_training,cRDM,,0.2598258575338845,0.2691895706489512,0.1418490536474608,442.4540989000016,1014,30,female,True
40,0.39,25,up,up,0.4742153999977745,0.9952012765397706,,psi_staircase_training,cRDM,,0.3218107914778763,0.3313751228106998,0.1448881796847013,444.17096140000285,1014,30,female,True
41,0.38,25,up,up,0.3671458999997412,1.8370257940885972,,psi_staircase_training,cRDM,,0.3073667744350262,0.3170688628532179,0.1469750347551806,446.7539558000026,1014,30,female,True
42,0.35,25,up,up,0.4382480999993277,0.9575766496107598,,psi_staircase_training,cRDM,,0.2941508571175681,0.3039120873441716,0.147870962412417,448.4038899000007,1014,30,female,True
43,0.33,25,down,down,0.7736498000012944,0.4991074500429825,,psi_staircase_training,cRDM,,0.2806433383885172,0.2905077637494775,0.1494342452650276,449.6205055999999,1014,30,female,True
44,0.32,25,down,up,0.5986113999970257,1.9786650885257533,,psi_staircase_training,cRDM,,0.2675534678203397,0.2775227077547204,0.1510220606824195,452.6536238000008,1014,30,female,True
45,0.38,25,down,down,0.672500199998467,1.9624512053105967,,psi_staircase_training,cRDM,,0.3129549754311252,0.3227251997670267,0.1480072124103234,455.503633100001,1014,30,female,True
46,0.37,25,up,up,0.4956621000019368,1.6050690038834436,,psi_staircase_training,cRDM,,0.3027913359613425,0.3125096886678155,0.1472214192687398,458.0535096000021,1014,30,female,True
47,0.32,25,up,up,0.4002002999986871,1.2534533919362891,,psi_staircase_training,cRDM,,0.2934204745567246,0.3030643832285126,0.1460936811866345,460.08684920000087,1014,30,female,True
48,0.32,25,down,up,0.4587377999996533,0.3835675288086293,,psi_staircase_training,cRDM,,0.2815745973569055,0.2914970936274869,0.150313950086499,461.1534215000029,1014,30,female,True
49,0.38,25,down,up,0.4274412999984633,0.616829421382977,,psi_staircase_training,cRDM,,0.3178087435188082,0.3271375964366132,0.1413209633556315,462.4867226999995,1014,30,female,True
50,0.41,25,up,up,0.5582481999990705,1.1024312642027845,,psi_staircase_training,cRDM,,0.3526271623027374,0.3628621425162861,0.1550477080567865,464.26988260000144,1014,30,female,True
51,0.41,25,up,up,0.4002737000009801,0.3820319952155591,,psi_staircase_training,cRDM,,0.3438639626990907,0.3541029691288666,0.155108700416824,465.48660759999984,1014,30,female,True
52,100.0,25,M,up,0.3335067999978491,1.283081185545187,,psi_staircase_training,emotion,,100.0,100.0,25.00050000000001,472.4029902000002,1014,30,female,True
53,55.0,25,M,down,0.5028854000011052,0.4341403631022046,,psi_staircase_training,emotion,,54.7428094675419,54.7428094675419,25.00050000000011,473.6362774000008,1014,30,female,True
54,79.0,25,F,down,0.4168083000004117,1.62437113782449,,psi_staircase_training,emotion,,79.636070985635,79.636070985635,25.713269254886413,476.1361871000008,1014,30,female,True
55,103.0,25,F,down,0.4644093999995675,1.1355528616530604,,psi_staircase_training,emotion,,97.61123893914808,97.61123893914808,26.1463337262867,478.0527413000018,1014,30,female,True
56,127.0,25,M,up,0.5197805000025255,1.438884660658325,,psi_staircase_training,emotion,,117.15641007867752,117.15641007867752,31.432291447829705,480.3193916000018,1014,30,female,True
57,116.0,25,F,up,0.3837467000012111,0.8684855156843332,,psi_staircase_training,emotion,,105.03864224082596,105.03864224082596,29.694064005485792,482.0693277999999,1014,30,female,True
58,88.0,25,M,down,0.5617034999995667,1.485055349004556,,psi_staircase_training,emotion,,98.16151255584974,98.16151255584974,27.875884705401127,484.352461800001,1014,30,female,True
59,116.0,25,F,up,0.4477597000004607,1.7521344487686143,,psi_staircase_training,emotion,,103.47850698803556,103.47850698803556,26.16750556784877,487.0024673000007,1014,30,female,True
60,88.0,25,F,down,0.4834335000014107,1.5507967386097057,,psi_staircase_training,emotion,,99.56005942312154,99.56005942312154,24.06105184598684,489.3357293000008,1014,30,female,True
61,114.0,25,M,down,0.6384737999978825,1.2589799446993637,,psi_staircase_training,emotion,,102.72882116735806,102.72882116735806,21.995508974139536,491.435614500002,1014,30,female,True
62,127.0,25,F,up,1.6289170999989435,0.8179255684514977,,psi_staircase_training,emotion,,109.4942678333988,109.4942678333988,27.612136584845235,493.2355884999997,1014,30,female,True
63,126.0,25,F,up,0.7743718999990961,1.6192748235182726,,psi_staircase_training,emotion,,106.87769311499166,106.87769311499166,25.70956585000039,496.868798800002,1014,30,female,True
64,89.0,25,F,up,0.603437000001577,0.3096891207073126,,psi_staircase_training,emotion,,105.04657530331596,105.04657530331596,24.041501064493207,498.3187372000029,1014,30,female,True
65,77.0,25,M,down,0.7675082000023394,1.9312293212236813,,psi_staircase_training,emotion,,99.15439570715874,99.15439570715874,29.54281842856376,501.21862340000007,1014,30,female,True
66,79.0,25,M,down,0.5934736000017438,1.0927147906488195,,psi_staircase_training,emotion,,101.01447462074334,101.01447462074334,28.157875146841736,503.45177420000255,1014,30,female,True
67,125.0,25,F,up,0.5297647000006691,1.2869851872633185,,psi_staircase_training,emotion,,102.52724076173344,102.52724076173344,26.87514207501581,505.6684480000004,1014,30,female,True
68,80.0,25,F,down,1.0511007999994035,0.3314784685041722,,psi_staircase_training,emotion,,101.18894771556872,101.18894771556872,25.56535961707472,506.8850764000017,1014,30,female,True
69,123.0,25,M,up,0.4958038000004308,0.7555516965787844,,psi_staircase_training,emotion,,102.38894557384435,102.38894557384435,24.305976661664506,509.06832940000095,1014,30,female,True
70,81.0,25,M,down,0.3666972999999416,0.8508824186572341,,psi_staircase_training,emotion,,101.28492406790774,101.28492406790774,23.049731295950643,510.7849411999996,1014,30,female,True
71,122.0,25,M,up,0.4927849000014248,1.0965550507864397,,psi_staircase_training,emotion,,102.24720141077172,102.24720141077172,21.87371523104772,512.6513978000003,1014,30,female,True
72,83.0,25,M,up,0.565051500001573,1.816619818938897,,psi_staircase_training,emotion,,101.362746273947,101.362746273947,20.73666867705857,515.3180944000014,1014,30,female,True
73,74.0,25,F,down,0.7744611999987683,0.3777537232830705,,psi_staircase_training,emotion,,97.73163533175828,97.73163533175828,25.39093805400336,516.6347012000006,1014,30,female,True
74,121.0,25,F,up,0.6905323999999382,1.9147817957633773,,psi_staircase_training,emotion,,98.56600925453348,98.56600925453348,24.325468367706947,519.6846068000013,1014,30,female,True
75,75.0,25,F,down,0.4170627999992575,0.9887184602557832,,psi_staircase_training,emotion,,97.79169133462987,97.79169133462987,23.322554778297985,521.734511900002,1014,30,female,True
76,119.0,25,M,up,0.7007211000018287,1.4640797843771196,,psi_staircase_training,emotion,,98.48712795363691,98.48712795363691,22.350334805623763,523.9844360000025,1014,30,female,True
77,77.0,25,M,down,0.7807360999977391,0.6307193105153719,,psi_staircase_training,emotion,,97.79235006726032,97.79235006726032,21.43233072310499,525.6843901000029,1014,30,female,True
78,118.0,25,F,up,1.0629138000003877,1.4878909162347185,,psi_staircase_training,emotion,,98.41038913298948,98.41038913298948,20.55960559931847,528.3342862999998,1014,30,female,True
79,78.0,25,F,down,0.5573775000011665,1.9313220757225764,,psi_staircase_training,emotion,,97.80602826888672,97.80602826888672,19.748095977557043,531.6841525000018,1014,30,female,True
80,115.0,25,M,up,0.7111248000001069,1.2351161436975266,,psi_staircase_training,emotion,,98.33746865962672,98.33746865962672,18.99262877122029,533.8340685000003,1014,30,female,True
81,113.0,25,M,up,0.6061040999993565,0.8295892511016558,,psi_staircase_training,emotion,,97.72940200699682,97.72940200699682,18.27502563520316,535.7340121000016,1014,30,female,True
82,0.29,25,up,up,0.6679968000025838,1.6406403226553108,,psi_staircase,cRDM,,0.25,0.2569312402994632,0.105,549.5001692000005,1014,30,female,True
83,0.25,25,up,up,0.6377396999996563,1.955968166829782,,psi_staircase,cRDM,,0.2191026665318312,0.2260132002683492,0.1046863203387393,552.3833957000024,1014,30,female,True
84,0.21,25,down,down,0.7654683000000659,1.4836709771387968,,psi_staircase,cRDM,,0.1900540959403307,0.1968497961554001,0.1029467298424999,554.7666911000015,1014,30,female,True
85,0.18,25,down,up,0.8646059000020614,1.5207943094851957,,psi_staircase,cRDM,,0.1635257589279754,0.1701521334256793,0.1003816477568649,557.3165403000021,1014,30,female,True
86,0.28,25,up,up,0.9431366000026172,1.803179026154807,,psi_staircase,cRDM,,0.2462894156509761,0.253676874431043,0.111911164292932,560.2500469000006,1014,30,female,True
87,0.26,25,down,down,0.5908043999988877,1.6618106440000648,,psi_staircase,cRDM,,0.224020924517144,0.2312720210897802,0.1098454399547734,563.1163348000009,1014,30,female,True
88,0.23,25,up,up,0.625830600001791,0.7491128336034654,,psi_staircase,cRDM,,0.2047781477371871,0.211824604656558,0.106745393979666,564.7163058000006,1014,30,female,True
89,0.23,25,down,down,0.5503188999973645,1.429432847356477,,psi_staircase,cRDM,,0.1874201716315257,0.1943184465858974,0.1045006144520947,567.0328474000016,1014,30,female,True
90,0.21,25,down,down,0.540053299999272,0.5584107521616681,,psi_staircase,cRDM,,0.1734597158637905,0.1801271287888497,0.1010033308447589,568.4161172000022,1014,30,female,True
91,0.17,25,up,up,0.6437697000001208,1.3785060534859952,,psi_staircase,cRDM,,0.1604596670362223,0.167027966793554,0.0995018849040958,570.5993912000013,1014,30,female,True
92,0.17,25,down,up,0.990409500001988,0.6309686829312023,,psi_staircase,cRDM,,0.1444495168362478,0.1514653128703286,0.1062809182413607,572.1326709999994,1014,30,female,True
93,0.23,25,down,down,0.6758799000017461,0.5197284236521432,,psi_staircase,cRDM,,0.1885396328642048,0.1947389701384431,0.0939125446055344,573.8992737000008,1014,30,female,True
94,0.22,25,down,down,0.5216749999999593,0.4386946067666062,,psi_staircase,cRDM,,0.1800574903390918,0.1858930606254278,0.0884019098447249,575.2825694000021,1014,30,female,True
95,0.2,25,up,down,0.6183285000006435,0.3468884436606317,,psi_staircase,cRDM,,0.1732570405976063,0.1787749699986761,0.0835900303668868,576.4158497000026,1014,30,female,True
96,0.24,25,up,up,0.579030299999431,1.2052760073671311,,psi_staircase,cRDM,,0.2027224900028208,0.2081999630654707,0.0829771652301221,578.4991083000023,1014,30,female,True
97,0.23,25,down,down,0.752084299998387,1.1049752977164875,,psi_staircase,cRDM,,0.1964277401552762,0.201454499555225,0.0761493923440362,580.4490538000027,1014,30,female,True
98,0.23,25,down,down,0.6012924999995448,1.0849269845123293,,psi_staircase,cRDM,,0.1917059363558673,0.1963336427901674,0.0701042172263376,582.5488418000023,1014,30,female,True
99,0.21,25,up,up,0.5766585999990639,1.9512622080341795,,psi_staircase,cRDM,,0.1885379347540751,0.192789077046958,0.0643997208966019,585.3655221000008,1014,30,female,True
100,0.2,25,up,up,0.5920354999980191,0.4435636901743088,,psi_staircase,cRDM,,0.183729046151522,0.1879534695309029,0.0639949613158486,586.6491064000002,1014,30,female,True
101,0.18,25,up,up,0.5850514000012481,1.4788000646928416,,psi_staircase,cRDM,,0.1772528985896139,0.1817556837165178,0.0682118088391083,588.9820607000001,1014,30,female,True
102,0.18,25,up,up,0.5959116000012727,1.33587664419153,,psi_staircase,cRDM,,0.1671293788826721,0.1724819753377046,0.0810854339910756,591.1652925000017,1014,30,female,True
103,0.17,25,down,down,0.5729568999995536,1.518724134991264,,psi_staircase,cRDM,,0.156110345313266,0.162289070945876,0.0936003028886892,593.5651805000016,1014,30,female,True
104,0.17,25,down,down,0.5746487000033085,1.5477068821296345,,psi_staircase,cRDM,,0.1441916743567647,0.1512212394341169,0.1064895027776116,595.9484892,1014,30,female,True
105,0.17,25,down,down,0.4854334000010567,0.3519702134834778,,psi_staircase,cRDM,,0.1326777237781015,0.1404160119285807,0.1172258096236007,597.1317450999995,1014,30,female,True
106,0.17,25,up,up,0.646156400001928,1.4318925445222803,,psi_staircase,cRDM,,0.122219845235731,0.1304956531090946,0.1253685904917289,599.3149928000021,1014,30,female,True
107,0.16,25,up,up,0.6260397000005469,1.8226506298908849,,psi_staircase,cRDM,,0.1131196444183261,0.1217670578589884,0.130997970354578,602.0481801000024,1014,30,female,True
108,0.16,25,down,down,0.8847153000024264,1.8888151079676976,,psi_staircase,cRDM,,0.1049173204178113,0.113837514672217,0.135130273406497,604.8314721000024,1014,30,female,True
109,0.15,25,down,down,0.4958125000011932,0.9735152053398572,,psi_staircase,cRDM,,0.0979476681286833,0.1070219423569489,0.1374644007136305,606.9483166999999,1014,30,female,True
110,0.15,25,up,down,0.6154983000014909,0.9969160505174312,,psi_staircase,cRDM,,0.0917126434715104,0.1008722270714788,0.1387567356554004,608.7146797000023,1014,30,female,True
111,0.16,25,up,down,0.6115162999994936,1.0682701939894417,,psi_staircase,cRDM,,0.1141564982448198,0.1232566995933659,0.1378571655741516,610.6646164000013,1014,30,female,True
112,0.17,25,down,down,0.7819630999983929,0.3411024258565857,,psi_staircase,cRDM,,0.1378587697058236,0.1462091598968682,0.1264984233958209,611.8812332000016,1014,30,female,True
113,0.16,25,up,up,0.5830340000029537,0.4129902045764278,,psi_staircase,cRDM,,0.1300916816498412,0.1388401448249992,0.1325287529654294,613.3311452000016,1014,30,female,True
114,0.15,25,down,down,0.8233932000002824,1.1325696124289104,,psi_staircase,cRDM,,0.122748442020536,0.1318488733980491,0.1378606502378625,615.2977759000023,1014,30,female,True
115,0.15,25,up,up,0.8107530000015686,0.5700681004431102,,psi_staircase,cRDM,,0.1159137228623869,0.1253054270237867,0.1422730845189919,616.9476897000022,1014,30,female,True
116,0.15,25,down,up,0.6319688000003225,1.8470093826083256,,psi_staircase,cRDM,,0.1098112605239924,0.1194083561614915,0.1453845197107699,619.8642989,1014,30,female,True
117,0.15,25,up,up,0.731627799999842,0.4187321416543107,,psi_staircase,cRDM,,0.128741696890877,0.1378532847438895,0.1380296574972872,621.1975385000005,1014,30,female,True
118,0.15,25,down,up,0.6267187999983435,0.5032769348406501,,psi_staircase,cRDM,,0.1222826613679837,0.1316858590172935,0.1424471971133337,622.6974974000004,1014,30,female,True
119,0.18,25,up,up,0.5974019999994198,1.246967547433531,,psi_staircase,cRDM,,0.140538673000395,0.1492792017836534,0.1324085564185672,624.8307392999995,1014,30,female,True
120,0.15,25,up,up,0.7858242000002065,1.5586948972101695,,psi_staircase,cRDM,,0.1351588484980833,0.144046637131912,0.1346393670154933,627.2473237000013,1014,30,female,True
121,0.15,25,down,down,0.4705348999996204,0.4295864124846053,,psi_staircase,cRDM,,0.1290121327498154,0.1382275740565301,0.1396029131005565,628.7305959000005,1014,30,female,True
122,0.14,25,down,down,0.5064485000002605,0.9953732926427836,,psi_staircase,cRDM,,0.1233514501797936,0.1328135011134772,0.1433387539765016,630.4637306000004,1014,30,female,True
123,0.14,25,down,down,0.5706873000017367,0.3980848742580991,,psi_staircase,cRDM,,0.1179562513962089,0.127628070477178,0.1465164905017645,631.6304923999996,1014,30,female,True
124,0.14,25,up,up,0.8820501999980479,0.7921822766444848,,psi_staircase,cRDM,,0.1129703031790278,0.1227993842325986,0.1488988212838107,633.2470902999994,1014,30,female,True
125,0.14,25,up,up,0.8647921000010683,0.681629159127052,,psi_staircase,cRDM,,0.1083554608954133,0.1183021326730604,0.1506801801019404,635.0803842000023,1014,30,female,True
126,0.14,25,down,down,0.5568649999986519,1.576749987830187,,psi_staircase,cRDM,,0.1040701953234665,0.1141048767879223,0.152013421587684,637.7803162000018,1014,30,female,True
127,0.14,25,down,down,0.5000093000016932,1.5445804301114971,,psi_staircase,cRDM,,0.1000756074521599,0.1101762769481038,0.1530130613356803,640.1301767000004,1014,30,female,True
128,0.14,25,down,down,0.5309525999982725,0.8909328351838555,,psi_staircase,cRDM,,0.0963379192456681,0.1064880310777403,0.1537620535894731,641.7801593000004,1014,30,female,True
129,0.13,25,up,down,0.6850339000011445,0.6091917679338427,,psi_staircase,cRDM,,0.0928289521468163,0.1030158340088392,0.1543190755621659,643.1800929000019,1014,30,female,True
130,0.14,25,up,down,0.606485899999825,1.7559399024743512,,psi_staircase,cRDM,,0.1050440042079343,0.1150800778142959,0.1520345108724003,645.8966588000003,1014,30,female,True
131,0.14,25,up,up,0.8409650999965379,1.4572218934920138,,psi_staircase,cRDM,,0.1176884282025333,0.1275407477084088,0.1492508560404461,648.2132277000019,1014,30,female,True
132,100.0,25,M,down,0.7280658000017866,1.879080194370036,,psi_staircase,emotion,,100.0,100.0,25.00050000000001,656.7460893999996,1014,30,female,True
133,145.0,25,M,up,0.6040166999991925,1.8277616478857,,psi_staircase,emotion,,145.25719053245996,145.25719053245996,25.00050000000028,659.6961314,1014,30,female,True
134,121.0,25,F,down,0.4947893999997177,0.567053656121479,,psi_staircase,emotion,,120.36392901436103,120.36392901436103,25.71326925488699,661.2293872000009,1014,30,female,True
135,137.0,25,F,up,0.603315800002747,0.4731904730404446,,psi_staircase,emotion,,137.8359832966118,137.8359832966118,25.292325986285498,662.5460292999996,1014,30,female,True
136,127.0,25,M,up,0.8749153999997361,1.6768480990532268,,psi_staircase,emotion,,126.46069055808248,126.46069055808248,23.64975108561129,665.1792658000013,1014,30,female,True
137,113.0,25,F,down,0.8306542999998783,1.048924635526543,,psi_staircase,emotion,,117.51644698116752,117.51644698116752,24.57617413513076,667.462509500001,1014,30,female,True
138,117.0,25,M,up,0.6480650000012247,0.4098412672970746,,psi_staircase,emotion,,123.97574817942947,123.97574817942947,21.32025430974062,669.0791142000016,1014,30,female,True
139,102.0,25,F,down,0.6180950999987544,0.3043667206236406,,psi_staircase,emotion,,116.37299699918825,116.37299699918825,26.83884095507041,670.3790719999997,1014,30,female,True
140,134.0,25,F,up,0.8405592999988585,1.4667589818087652,,psi_staircase,emotion,,119.95726308266946,119.95726308266946,24.49843101953165,672.7956632000023,1014,30,female,True
141,104.0,25,M,down,0.644914799999242,0.4463160696995681,,psi_staircase,emotion,,117.39298603352069,117.39298603352069,22.42294878907636,674.4622732000025,1014,30,female,True
142,133.0,25,F,up,0.990336999999272,0.4937444241762481,,psi_staircase,emotion,,119.72015158074346,119.72015158074346,20.082478536185825,675.9788793000007,1014,30,female,True
143,107.0,25,F,down,0.6790585999988252,1.1700410349228876,,psi_staircase,emotion,,118.0833460242456,118.0833460242456,18.059746528131484,678.5121117000017,1014,30,female,True
144,130.0,25,F,down,1.2025082000000111,0.9211139661736574,,psi_staircase,emotion,,119.69402127248868,119.69402127248868,15.95696017026366,680.4786893000019,1014,30,female,True
145,141.0,25,M,up,0.6749912000013865,1.2026363306834484,,psi_staircase,emotion,,123.85018714357987,123.85018714357987,22.060642278708904,683.2451904000009,1014,30,female,True
146,106.0,25,M,down,0.6558711999969091,0.5854361904996912,,psi_staircase,emotion,,122.53663791690064,122.53663791690064,20.2501919118017,684.8952248000023,1014,30,female,True
147,139.0,25,F,up,0.9843360999984724,0.8892915858481207,,psi_staircase,emotion,,123.57811939013884,123.57811939013884,18.639896565238743,686.8118114999997,1014,30,female,True
148,108.0,25,F,down,0.6417927999973472,1.0189782496365734,,psi_staircase,emotion,,122.61103262113936,122.61103262113936,17.06517322870209,689.1783790000009,1014,30,female,True
149,137.0,25,M,up,0.6634168999989924,1.814238015326804,,psi_staircase,emotion,,123.41473420037909,123.41473420037909,15.696324815593366,691.9949383000021,1014,30,female,True
150,111.0,25,M,down,0.6945983000005072,0.4841223023099263,,psi_staircase,emotion,,122.67682476923758,122.67682476923758,14.419818912123768,693.5115609999993,1014,30,female,True
151,135.0,25,M,up,1.0491125000007742,1.4412418172496386,,psi_staircase,emotion,,123.38424876817815,123.38424876817815,13.31286149409508,696.0281327000012,1014,30,female,True
152,115.0,25,M,down,0.6644676000032632,0.8065068921872096,,psi_staircase,emotion,,122.78247459589242,122.78247459589242,12.31969050065046,698.2447191000028,1014,30,female,True
153,123.0,25,F,up,0.7492438000008406,1.8648702578925165,,psi_staircase,emotion,,123.54203689293166,123.54203689293166,11.481462461238245,701.1279338000022,1014,30,female,True
154,112.0,25,F,down,0.7232438000028196,0.4965774671251046,,psi_staircase,emotion,,122.11544983035571,122.11544983035571,11.59453929930572,702.7278886000022,1014,30,female,True
155,131.0,25,F,up,0.5393311999978323,1.1940428968748915,,psi_staircase,emotion,,122.5658755300785,122.5658755300785,10.841307936918906,704.9777993999996,1014,30,female,True
156,128.0,25,M,up,0.5592992000019876,1.2807333037286777,,psi_staircase,emotion,,122.0413179029258,122.0413179029258,10.139213050634249,707.1609352000014,1014,30,female,True
157,114.0,25,M,down,0.6452645999997912,1.6659689005591682,,psi_staircase,emotion,,121.45513055610806,121.45513055610806,9.576418343452954,709.7608706999999,1014,30,female,True
158,125.0,25,F,up,0.8646484999990207,1.1852007345374778,,psi_staircase,emotion,,121.89241302019391,121.89241302019391,9.01752866708586,711.9275364000023,1014,30,female,True
159,124.0,25,F,up,0.8073809999987134,0.7586905582878231,,psi_staircase,emotion,,121.19565015845096,121.19565015845096,8.613893781824952,713.9107981000016,1014,30,female,True
160,124.0,25,M,up,0.6511032000016712,0.742494047993256,,psi_staircase,emotion,,120.53294873225968,120.53294873225968,8.228807760446186,715.7940804999998,1014,30,female,True
161,124.0,25,M,down,0.5968744999991031,1.1496362457448634,,psi_staircase,emotion,,119.9760565677038,119.9760565677038,7.802463095152478,717.9273042999994,1014,30,female,True
162,113.0,25,F,down,0.5073892000000342,0.5355237912509594,,psi_staircase,emotion,,121.11848364849652,121.11848364849652,8.900845408740869,719.4438055999999,1014,30,female,True
163,114.0,25,M,down,1.2332854000014777,0.3899398675933479,,psi_staircase,emotion,,121.41632815979612,121.41632815979612,8.42214444161627,720.6939014000018,1014,30,female,True
164,128.0,25,F,down,1.195485500000359,1.0438471053789626,,psi_staircase,emotion,,121.6878562503416,121.6878562503416,8.014082107080913,723.3436694000011,1014,30,female,True
165,113.0,25,M,down,0.5095884000002115,0.9799447761671572,,psi_staircase,emotion,,122.74775121589312,122.74775121589312,9.368738192635432,725.8435934000008,1014,30,female,True
166,132.0,25,F,down,0.5231604000000516,0.4622131804334353,,psi_staircase,emotion,,122.947809494647,122.947809494647,8.972570476819982,727.1769924,1014,30,female,True
167,136.0,25,M,up,1.1412806999978784,1.6990460874508764,,psi_staircase,emotion,,124.09558492109016,124.09558492109016,10.992273396775497,729.7769073000018,1014,30,female,True
168,136.0,25,F,up,0.9550374999998894,1.0921579979900533,,psi_staircase,emotion,,123.87577863699607,123.87577863699607,10.494279054699229,732.3601277000016,1014,30,female,True
169,113.0,25,M,up,0.7457977000012761,0.7342185145002369,,psi_staircase,emotion,,123.70025878165748,123.70025878165748,10.08381695913518,734.3933905000013,1014,30,female,True
170,109.0,25,M,down,0.5641909000005398,0.4134015754755654,,psi_staircase,emotion,,122.60343731319394,122.60343731319394,12.238743005025524,735.9100020000005,1014,30,female,True
171,136.0,25,F,up,0.7969346999998379,1.2923429948394205,,psi_staircase,emotion,,122.79016964596336,122.79016964596336,11.759603046773575,738.0932515000022,1014,30,female,True
172,110.0,25,F,up,1.2389685999987703,1.4488969621108785,,psi_staircase,emotion,,122.61398447344511,122.61398447344511,11.333595981101952,740.6931777000027,1014,30,female,True
173,105.0,25,F,down,0.5494347999992897,1.1670315264480984,,psi_staircase,emotion,,121.51114827976834,121.51114827976834,13.752197628498248,743.4597384000008,1014,30,female,True
174,137.0,25,M,up,0.7342067000026873,1.9071107285496984,,psi_staircase,emotion,,121.68550540371886,121.68550540371886,13.246952533873882,746.2929440000007,1014,30,female,True
175,107.0,25,M,down,0.5246303000021726,1.8608499595968653,,psi_staircase,emotion,,121.52197068782368,121.52197068782368,12.799387367095775,749.2595116000011,1014,30,female,True
176,136.0,25,F,down,1.1055078000026697,1.135324415531586,,psi_staircase,emotion,,121.6945861823513,121.6945861823513,12.386252894934984,751.2426475000029,1014,30,female,True
177,141.0,25,F,up,0.6901572999995551,0.5318749563691955,,psi_staircase,emotion,,122.73463204928628,122.73463204928628,14.83557203779088,753.2260158999998,1014,30,female,True
178,105.0,25,F,down,0.5788949999987381,1.4514718763753405,,psi_staircase,emotion,,122.57670945239155,122.57670945239155,14.35413956610653,755.7092859000004,1014,30,female,True
179,139.0,25,M,up,0.8840608999998949,1.8849146833632917,,psi_staircase,emotion,,122.7258979548536,122.7258979548536,13.924148718080366,758.5591166000013,1014,30,female,True
180,107.0,25,M,down,0.5914383000017551,0.3025336284490588,,psi_staircase,emotion,,122.56876236776743,122.56876236776743,13.523407166636826,760.0758050000004,1014,30,female,True
181,138.0,25,M,up,0.6881586000017705,1.5656984997830825,,psi_staircase,emotion,,122.72231793348524,122.72231793348524,13.160686653619154,762.6090165000023,1014,30,female,True
182,0.113672714160122,25,down,up,0.8035030999999435,1.1819978992759006,,experiment,cRDM,0.0,,,,773.1086513000009,1014,30,female,True
183,0.113672714160122,25,up,up,0.7369963000019197,1.9499343027000144,,experiment,cRDM,0.0,,,,776.1251919999995,1014,30,female,True
184,0.113672714160122,25,down,down,0.9540644000007888,1.6410977787335093,,experiment,cRDM,0.0,,,,778.7750898000013,1014,30,female,True
185,0.113672714160122,25,up,up,1.0084987999980513,1.9925223180063891,,experiment,cRDM,0.0,,,,781.9916374999993,1014,30,female,True
186,0.113672714160122,25,down,down,0.5446039000016754,0.7261169138930981,,experiment,cRDM,0.0,,,,783.9915818000009,1014,30,female,True
187,0.113672714160122,25,down,down,0.53433700000096,1.2883480862636876,,experiment,cRDM,0.0,,,,786.0748535000021,1014,30,female,True
188,0.113672714160122,25,up,up,0.5134814999983064,1.7035793479267098,,experiment,cRDM,0.0,,,,788.5747198999998,1014,30,female,True
189,0.113672714160122,25,down,down,0.5615268000001379,1.5646261950107918,,experiment,cRDM,0.0,,,,790.9246574000026,1014,30,female,True
190,0.113672714160122,25,up,up,0.6365477999970608,0.3394559041501364,,experiment,cRDM,0.0,,,,792.0746417000009,1014,30,female,True
191,0.113672714160122,25,up,up,0.8430146000027889,1.8127959241663985,,experiment,cRDM,0.0,,,,794.7911760000025,1014,30,female,True
192,0.113672714160122,25,down,up,0.6117401999981666,1.0182116395624448,,experiment,cRDM,0.0,,,,796.9244245000009,1014,30,female,True
193,0.113672714160122,25,up,up,0.7001296999987972,0.3444447949399366,,experiment,cRDM,0.0,,,,798.1410302000004,1014,30,female,True
194,0.113672714160122,25,up,up,0.7228933000005782,1.210311285983518,,experiment,cRDM,0.0,,,,800.3243099000028,1014,30,female,True
195,0.113672714160122,25,up,up,0.6643325999975787,1.2821765916233092,,experiment,cRDM,0.0,,,,802.5908573000015,1014,30,female,True
196,0.113672714160122,25,down,down,0.8750892000025488,0.6006510903931563,,experiment,cRDM,0.0,,,,804.1241552000029,1014,30,female,True
197,0.113672714160122,25,down,down,1.0251242999984242,0.6610314365142336,,experiment,cRDM,0.0,,,,805.9240705000011,1014,30,female,True
198,0.113672714160122,25,up,up,0.7275131000023976,1.0836795116854203,,experiment,cRDM,0.0,,,,808.2906799000011,1014,30,female,True
199,0.113672714160122,25,up,up,0.8098638999981631,0.5192883827375023,,experiment,cRDM,0.0,,,,809.8072936999997,1014,30,female,True
200,0.113672714160122,25,down,up,0.950244899999234,0.391859039437402,,experiment,cRDM,0.0,,,,811.2739132999995,1014,30,female,True
201,0.113672714160122,25,down,down,0.5723093999986304,0.3851894989383886,,experiment,cRDM,0.0,,,,812.8738478000014,1014,30,female,True
202,0.113672714160122,25,up,up,0.9084372999968764,1.0281297594950958,,experiment,cRDM,0.0,,,,814.7406880000017,1014,30,female,True
203,0.113672714160122,25,down,down,0.5508752999994613,0.5409213880803923,,experiment,cRDM,0.0,,,,816.4402651000019,1014,30,female,True
204,0.113672714160122,25,up,down,0.8355272999979206,1.5847028528474036,,experiment,cRDM,0.0,,,,818.8236327000013,1014,30,female,True
205,0.113672714160122,25,down,down,0.6543781000000308,1.591251848881368,,experiment,cRDM,0.0,,,,821.5068492000028,1014,30,female,True
206,0.113672714160122,25,down,down,0.5886942999968596,1.2955917096541012,,experiment,cRDM,0.0,,,,823.7234697000022,1014,30,female,True
207,0.113672714160122,25,up,down,0.647422900001402,1.1720818948682254,,experiment,cRDM,0.0,,,,825.7567307999998,1014,30,female,True
208,0.113672714160122,25,up,down,0.8281676999977208,0.4198198486118309,,experiment,cRDM,0.0,,,,827.0900089999996,1014,30,female,True
209,0.113672714160122,25,down,down,0.7426583000014944,1.4765775392761975,,experiment,cRDM,0.0,,,,829.6565440000013,1014,30,female,True
210,0.113672714160122,25,up,up,1.044632699999056,0.3798290515297163,,experiment,cRDM,0.0,,,,831.0565500000012,1014,30,female,True
211,0.113672714160122,25,down,down,0.8940991000017675,1.8111277236284715,,experiment,cRDM,0.0,,,,834.1730400000015,1014,30,female,True
212,0.113672714160122,25,up,up,1.260209699998086,1.833623159230456,,experiment,cRDM,0.0,,,,837.1729582000007,1014,30,female,True
213,0.113672714160122,25,down,up,0.9603267000020425,1.3096825474511538,,experiment,cRDM,0.0,,,,840.0228311999999,1014,30,female,True
214,0.113672714160122,25,up,up,0.8410770999980741,1.0573976386859765,,experiment,cRDM,0.0,,,,842.3060890000015,1014,30,female,True
215,0.113672714160122,25,down,up,0.7688060000000405,0.3300997973740305,,experiment,cRDM,0.0,,,,843.7393529000001,1014,30,female,True
216,0.113672714160122,25,up,up,0.8585405000012543,0.3059822724845996,,experiment,cRDM,0.0,,,,845.0726624000017,1014,30,female,True
217,0.113672714160122,25,down,up,1.4352241000015056,0.7088448628664559,,experiment,cRDM,0.0,,,,846.9059307000025,1014,30,female,True
218,0.113672714160122,25,up,up,0.7000146999998833,1.581069193785446,,experiment,cRDM,0.0,,,,850.1891606000027,1014,30,female,True
219,0.113672714160122,25,down,down,1.3058081999988644,1.7262371490932438,,experiment,cRDM,0.0,,,,852.8723562000014,1014,30,female,True
220,0.113672714160122,25,up,down,0.9603190000016184,0.4960158815891068,,experiment,cRDM,0.0,,,,854.9388346000014,1014,30,female,True
221,0.113672714160122,25,down,down,1.479356200001348,1.3752530344496248,,experiment,cRDM,0.0,,,,857.5388223000009,1014,30,female,True
222,0.113672714160122,25,down,down,0.8457570999999007,1.1364572397495067,,experiment,cRDM,0.0,,,,860.4054391999998,1014,30,female,True
223,0.113672714160122,25,up,down,1.4871746000026178,1.2108198355500317,,experiment,cRDM,0.0,,,,862.7219958000023,1014,30,female,True
224,0.113672714160122,25,down,down,0.7768828000007488,0.9199253604730816,,experiment,cRDM,0.0,,,,865.4052566999999,1014,30,female,True
225,0.113672714160122,25,up,down,1.3306813000017428,0.3915238478474855,,experiment,cRDM,0.0,,,,866.8384834999997,1014,30,female,True
226,0.113672714160122,25,up,down,1.19210689999818,1.0765237072497538,,experiment,cRDM,0.0,,,,869.5051061000013,1014,30,female,True
227,0.113672714160122,25,down,down,0.7921382000022277,0.4370908489898836,,experiment,cRDM,0.0,,,,871.4050229999993,1014,30,female,True
228,0.113672714160122,25,down,down,1.3858792999999423,1.162609988880931,,experiment,cRDM,0.0,,,,873.6382807000009,1014,30,female,True
229,0.113672714160122,25,up,up,0.948015799996938,1.0054846458930022,,experiment,cRDM,0.0,,,,876.2881803000018,1014,30,female,True
230,0.113672714160122,25,down,down,1.1720855999992636,1.7890489002921366,,experiment,cRDM,0.0,,,,879.2880793000004,1014,30,female,True
231,0.113672714160122,25,up,up,1.287827500000276,0.4173574774012979,,experiment,cRDM,0.0,,,,881.1213290000014,1014,30,female,True
232,0.113672714160122,25,up,down,0.828905999998824,0.5319659893844143,,experiment,cRDM,0.0,,,,883.2212684000006,1014,30,female,True
233,0.113672714160122,25,up,down,1.0510020000001532,0.710492366586053,,experiment,cRDM,0.0,,,,885.0211947000025,1014,30,female,True
234,0.113672714160122,25,up,down,1.1308914000001096,1.2232932285436078,,experiment,cRDM,0.0,,,,887.5542681000006,1014,30,female,True
235,0.113672714160122,25,up,up,1.3774923000019044,1.5832651948361236,,experiment,cRDM,0.0,,,,890.5376759999999,1014,30,female,True
236,0.113672714160122,25,down,down,0.7685896000002685,0.9132704449974414,,experiment,cRDM,0.0,,,,893.0875804000025,1014,30,female,True
237,0.113672714160122,25,down,down,0.6980031999992207,1.184018395944251,,experiment,cRDM,0.0,,,,895.3041438,1014,30,female,True
238,0.113672714160122,25,down,down,0.8577684000010777,1.3196501741235311,,experiment,cRDM,0.0,,,,897.5873974999995,1014,30,female,True
239,0.113672714160122,25,up,down,0.7215899000002537,1.913950097080176,,experiment,cRDM,0.0,,,,900.6206020000027,1014,30,female,True
240,0.113672714160122,25,down,down,0.74562270000024,1.3115416645290316,,experiment,cRDM,0.0,,,,902.9205402000008,1014,30,female,True
241,0.113672714160122,25,down,down,1.1630396000000474,0.5018069465178024,,experiment,cRDM,0.0,,,,904.437155800002,1014,30,female,True
242,0.113672714160122,25,down,down,0.8837591000010434,0.5532365350685433,,experiment,cRDM,0.0,,,,906.4204055000008,1014,30,female,True
243,0.113672714160122,25,up,down,0.7552571999985958,1.6263165805551911,,experiment,cRDM,0.0,,,,909.1869539,1014,30,female,True
244,0.113672714160122,25,down,down,0.891276199999993,1.587195081121906,,experiment,cRDM,0.0,,,,911.7869050000008,1014,30,female,True
245,0.113672714160122,25,up,down,0.9769570999997086,0.4287434008454175,,experiment,cRDM,0.0,,,,913.3701527000012,1014,30,female,True
246,0.113672714160122,25,up,down,1.7924278000027698,1.26106770732327,,experiment,cRDM,0.0,,,,915.8867320999998,1014,30,female,True
247,0.113672714160122,25,down,down,1.4162394000013592,0.4688319574867393,,experiment,cRDM,0.0,,,,918.4199585000024,1014,30,female,True
248,0.113672714160122,25,up,down,1.0367062000004807,0.4922647551508476,,experiment,cRDM,0.0,,,,920.5865664000012,1014,30,female,True
249,0.113672714160122,25,down,down,1.4657526000009966,0.7053772504247162,,experiment,cRDM,0.0,,,,922.5864731,1014,30,female,True
250,0.113672714160122,25,up,up,1.6294349999989208,0.8494359865070029,,experiment,cRDM,0.0,,,,925.1697254000028,1014,30,female,True
251,0.113672714160122,25,down,up,0.8602242000015394,0.9444759356404564,,experiment,cRDM,0.0,,,,928.0029453000024,1014,30,female,True
252,0.113672714160122,25,up,up,1.3919524000011734,1.163949706714651,,experiment,cRDM,0.0,,,,930.2862125000028,1014,30,female,True
253,0.113672714160122,25,down,down,1.4120474999981525,0.8982608406501233,,experiment,cRDM,0.0,,,,932.8361151999998,1014,30,female,True
254,0.113672714160122,25,down,up,1.1974542000025394,0.835011849095308,,experiment,cRDM,0.0,,,,935.3527047999996,1014,30,female,True
255,0.113672714160122,25,down,down,1.567566199999419,1.535906982536039,,experiment,cRDM,0.0,,,,938.352591400002,1014,30,female,True
256,0.113672714160122,25,down,up,1.129368900001282,1.3972891753548025,,experiment,cRDM,0.0,,,,941.5857993999998,1014,30,female,True
257,0.113672714160122,25,down,down,1.3668391999999585,1.819680015204503,,experiment,cRDM,0.0,,,,944.8023227000012,1014,30,female,True
258,0.113672714160122,25,up,up,1.9228761999984272,0.7775326862073144,,experiment,cRDM,0.0,,,,947.2022620999996,1014,30,female,True
259,0.113672714160122,25,up,up,1.3540518999980122,1.752809355688666,,experiment,cRDM,0.0,,,,951.1521188000006,1014,30,female,True
260,0.113672714160122,25,up,down,0.9588193000017782,0.7082241835266322,,experiment,cRDM,0.0,,,,953.4853795000016,1014,30,female,True
261,0.113672714160122,25,up,down,0.9549179000023288,1.6779115641923306,,experiment,cRDM,0.0,,,,956.3852501,1014,30,female,True
262,127.0,25,M,down,0.924946799997997,1.2124182319100334,,experiment,emotion,0.0,,,,964.368282800002,1014,30,female,True
263,117.0,25,M,down,1.012172399998235,0.7291285114964239,,experiment,emotion,0.0,,,,966.318175200002,1014,30,female,True
264,124.0,25,F,up,0.5974166999985755,1.171185660383275,,experiment,emotion,0.0,,,,968.7848169999996,1014,30,female,True
265,127.0,25,F,up,1.0697364000006928,0.492623727648279,,experiment,emotion,0.0,,,,970.1514122000008,1014,30,female,True
266,124.0,25,M,up,0.9881307000032392,0.4807860772946754,,experiment,emotion,0.0,,,,971.9680372000004,1014,30,female,True
267,120.0,25,F,up,0.7219253000002936,1.4949566713186986,,experiment,emotion,0.0,,,,974.7512419000012,1014,30,female,True
268,117.0,25,M,up,1.5793569999987085,1.6761588849245177,,experiment,emotion,0.0,,,,977.4178076000026,1014,30,female,True
269,120.0,25,M,up,1.1014783999999054,1.7670649808381418,,experiment,emotion,0.0,,,,981.017689700002,1014,30,female,True
270,127.0,25,F,up,1.5485523999996076,1.838782889394445,,experiment,emotion,0.0,,,,984.2675675000028,1014,30,female,True
271,120.0,25,F,down,0.90169109999988,0.8698690739611741,,experiment,emotion,0.0,,,,986.967472100001,1014,30,female,True
272,124.0,25,F,down,0.7294117000019469,0.3717895262485082,,experiment,emotion,0.0,,,,988.5507555000004,1014,30,female,True
273,127.0,25,F,up,1.2618487999970966,1.136306613841987,,experiment,emotion,0.0,,,,990.6673231000022,1014,30,female,True
274,124.0,25,F,up,1.6089442000011331,1.4647980237103135,,experiment,emotion,0.0,,,,993.6672304000022,1014,30,female,True
275,117.0,25,F,down,0.8727625999999873,1.929729042160509,,experiment,emotion,0.0,,,,997.5004117000026,1014,30,female,True
276,120.0,25,M,up,1.39597700000013,1.348211844165143,,experiment,emotion,0.0,,,,1000.0003044000003,1014,30,female,True
277,117.0,25,M,up,1.017352099999698,1.9951580205582944,,experiment,emotion,0.0,,,,1003.6668510000018,1014,30,female,True
278,127.0,25,M,up,1.318411799999012,0.8775094302507767,,experiment,emotion,0.0,,,,1005.8667639000014,1014,30,female,True
279,117.0,25,M,down,0.7362422999976843,1.9491980698342604,,experiment,emotion,0.0,,,,1009.399999100002,1014,30,female,True
280,124.0,25,F,down,1.1592911999978242,1.469394494264926,,experiment,emotion,0.0,,,,1011.8998766000004,1014,30,female,True
281,124.0,25,M,down,0.9263652000008732,0.8637043330296761,,experiment,emotion,0.0,,,,1014.1998024000022,1014,30,female,True
282,120.0,25,M,down,1.071793400002207,0.387876496990128,,experiment,emotion,0.0,,,,1015.8163765000028,1014,30,female,True
283,120.0,25,F,up,1.3155160999995132,1.2115542930624852,,experiment,emotion,0.0,,,,1018.3496344000014,1014,30,female,True
284,117.0,25,M,down,0.7253367000012076,1.4783597050891109,,experiment,emotion,0.0,,,,1021.4328368999996,1014,30,female,True
285,127.0,25,F,up,1.4823971000005258,1.1988516611405091,,experiment,emotion,0.0,,,,1023.6827730000005,1014,30,female,True
286,124.0,25,F,up,1.4594357999994827,1.1860648543250591,,experiment,emotion,0.0,,,,1026.6326934000026,1014,30,female,True
287,117.0,25,M,down,1.2528969999984838,0.3773313705029297,,experiment,emotion,0.0,,,,1028.7492719000002,1014,30,female,True
288,127.0,25,M,up,1.53182740000193,0.8645251733400292,,experiment,emotion,0.0,,,,1031.1324219000016,1014,30,female,True
289,127.0,25,F,up,0.970732300000236,1.657143813555306,,experiment,emotion,0.0,,,,1034.5824229000027,1014,30,female,True
290,120.0,25,M,down,0.6106598999976995,0.6468940300819642,,experiment,emotion,0.0,,,,1036.5154900000016,1014,30,female,True
291,117.0,25,F,down,0.6527095999990706,1.010798017283019,,experiment,emotion,0.0,,,,1038.4154621000016,1014,30,female,True
292,120.0,25,F,down,0.623637200002122,0.3209786672347418,,experiment,emotion,0.0,,,,1039.665542400002,1014,30,female,True
293,124.0,25,F,up,1.322719899999356,1.39804654272064,,experiment,emotion,0.0,,,,1041.9654541000018,1014,30,female,True
294,117.0,25,M,down,1.289835199997469,1.02191821820948,,experiment,emotion,0.0,,,,1044.5653354999995,1014,30,female,True
295,127.0,25,M,down,0.6939445999996678,1.5861644280272549,,experiment,emotion,0.0,,,,1047.765231100002,1014,30,female,True
296,124.0,25,M,up,0.9636991000006674,1.5743926499396412,,experiment,emotion,0.0,,,,1050.2984703000002,1014,30,female,True
297,127.0,25,F,up,0.9721506999994745,1.5369391509569406,,experiment,emotion,0.0,,,,1053.065026100001,1014,30,female,True
298,117.0,25,F,up,0.7666351000007126,1.27457345553232,,experiment,emotion,0.0,,,,1055.5816287000016,1014,30,female,True
299,124.0,25,M,up,0.812936999998783,0.3359306033511664,,experiment,emotion,0.0,,,,1056.948228900001,1014,30,female,True
300,120.0,25,F,up,0.7753508999994665,0.6062502870677502,,experiment,emotion,0.0,,,,1058.6648208000006,1014,30,female,True
301,120.0,25,M,up,1.485780399998475,1.5639149248602082,,experiment,emotion,0.0,,,,1061.2813922000023,1014,30,female,True
302,124.0,25,M,up,1.371247900002345,1.1676973620830935,,experiment,emotion,0.0,,,,1064.1979432000007,1014,30,female,True
303,127.0,25,M,up,1.027301699999953,1.2737686859663302,,experiment,emotion,0.0,,,,1067.1478644000017,1014,30,female,True
304,120.0,25,F,down,1.814728700002888,0.5195874363902533,,experiment,emotion,0.0,,,,1068.9644480000024,1014,30,female,True
305,117.0,25,F,up,1.715879600000335,1.281981694578598,,experiment,emotion,0.0,,,,1072.364318399999,1014,30,female,True
306,117.0,25,M,down,0.7132375000001048,0.7395896826166926,,experiment,emotion,0.0,,,,1075.0809098000027,1014,30,female,True
307,120.0,25,F,down,0.4826873999991221,0.496600581441022,,experiment,emotion,0.0,,,,1076.547511299999,1014,30,female,True
308,127.0,25,F,down,1.0194143000007898,0.9868608382314724,,experiment,emotion,0.0,,,,1078.2807410999994,1014,30,female,True
309,124.0,25,M,down,1.1982194000011075,1.3156721539863885,,experiment,emotion,0.0,,,,1080.913993000002,1014,30,female,True
310,117.0,25,M,down,0.6969057000023895,0.6618796110105614,,experiment,emotion,0.0,,,,1083.0472631000011,1014,30,female,True
311,127.0,25,F,down,1.0013049000008325,0.8141456120725523,,experiment,emotion,0.0,,,,1084.8138653999997,1014,30,female,True
312,124.0,25,M,down,0.8438551999970514,0.6332027175102313,,experiment,emotion,0.0,,,,1086.7303183000004,1014,30,female,True
313,124.0,25,F,up,1.0771953000003125,0.6010105675699954,,experiment,emotion,0.0,,,,1088.4470542000015,1014,30,female,True
314,117.0,25,F,up,1.2925706000023638,1.0682467302491163,,experiment,emotion,0.0,,,,1090.8636501,1014,30,female,True
315,120.0,25,F,down,1.5370804999984102,0.7995765880829885,,experiment,emotion,0.0,,,,1093.2802029000013,1014,30,female,True
316,127.0,25,M,up,1.3443727000012586,1.2637949250604894,,experiment,emotion,0.0,,,,1096.3467984000015,1014,30,female,True
317,120.0,25,M,up,1.3395512999995844,1.877241528815894,,experiment,emotion,0.0,,,,1099.846656400001,1014,30,female,True
318,120.0,25,F,down,1.1560018000018315,1.7568990202505514,,experiment,emotion,0.0,,,,1103.2131735000005,1014,30,female,True
319,120.0,25,F,down,0.7386809999989055,0.8536124232473774,,experiment,emotion,0.0,,,,1105.4964419000023,1014,30,female,True
320,127.0,25,M,down,0.8601302999995823,0.9979133143142388,,experiment,emotion,0.0,,,,1107.5130418000008,1014,30,female,True
321,124.0,25,M,down,1.121069600001647,0.8304199997464334,,experiment,emotion,0.0,,,,1109.4962903000014,1014,30,female,True
322,117.0,25,M,up,1.5572981000004802,0.5870721367171912,,experiment,emotion,0.0,,,,1111.5128801000028,1014,30,female,True
323,117.0,25,M,down,0.8294377000020177,1.866271733726568,,experiment,emotion,0.0,,,,1115.2127303000016,1014,30,female,True
324,124.0,25,M,up,1.2259616999981515,0.4168757455694878,,experiment,emotion,0.0,,,,1116.7292441999998,1014,30,female,True
325,127.0,25,F,down,0.7705195999988064,0.5293304102115659,,experiment,emotion,0.0,,,,1118.7626492000018,1014,30,female,True
326,127.0,25,F,up,1.0303065000007336,1.333150653428982,,experiment,emotion,0.0,,,,1121.1458662000005,1014,30,female,True
327,117.0,25,M,up,0.9463871999978436,1.730699175151725,,experiment,emotion,0.0,,,,1124.195778600002,1014,30,female,True
328,127.0,25,F,down,0.9738015000002632,0.4501936696200118,,experiment,emotion,0.0,,,,1125.8623480999995,1014,30,female,True
329,120.0,25,F,down,1.2065421000006609,0.4569578161774946,,experiment,emotion,0.0,,,,1127.5956344000006,1014,30,female,True
330,124.0,25,F,up,1.0235219999995024,0.359618632503294,,experiment,emotion,0.0,,,,1129.428737600003,1014,30,female,True
331,120.0,25,M,up,1.5440438999976325,1.7811819480929667,,experiment,emotion,0.0,,,,1132.512126199999,1014,30,female,True
332,117.0,25,F,down,1.0881655999983195,1.1773688677314866,,experiment,emotion,0.0,,,,1135.5119988000006,1014,30,female,True
333,124.0,25,F,down,0.7756259000016144,0.4586479665243874,,experiment,emotion,0.0,,,,1137.3286313999995,1014,30,female,True
334,120.0,25,F,down,1.0313027999982296,0.447009199003624,,experiment,emotion,0.0,,,,1138.8118719000013,1014,30,female,True
335,124.0,25,M,up,1.5428582999993523,1.8174246989904963,,experiment,emotion,0.0,,,,1141.928329000002,1014,30,female,True
336,117.0,25,M,down,0.834598500001448,1.0748045968042232,,experiment,emotion,0.0,,,,1144.8285789,1014,30,female,True
337,127.0,25,F,up,1.2272343000004184,0.8260764942911716,,experiment,emotion,0.0,,,,1146.7949205000004,1014,30,female,True
338,124.0,25,M,down,0.9077508000009402,1.864942405975428,,experiment,emotion,0.0,,,,1150.1614664000008,1014,30,female,True
339,127.0,25,F,up,1.193455199998425,1.7020269221149686,,experiment,emotion,0.0,,,,1153.0447220000024,1014,30,female,True
340,117.0,25,M,down,0.7206449000004795,1.8289612977254792,,experiment,emotion,0.0,,,,1156.3445702999998,1014,30,female,True
341,120.0,25,M,down,0.6797022999999172,0.9791523006733334,,experiment,emotion,0.0,,,,1158.3444743,1014,30,female,True
342,0.113672714160122,25,up,down,1.3176681000004464,1.4129472729756418,,experiment,cRDM,1.0,,,,1175.9105339000016,1014,30,female,True
343,0.113672714160122,25,up,up,0.6163936000011745,1.1471600466029623,,experiment,cRDM,1.0,,,,1178.6437762000023,1014,30,female,True
344,0.113672714160122,25,down,up,0.6539451999997254,1.6441601989368824,,experiment,cRDM,1.0,,,,1181.1603262999995,1014,30,female,True
345,0.113672714160122,25,down,down,0.806602999997267,1.4658003893737777,,experiment,cRDM,1.0,,,,1183.5436185,1014,30,female,True
346,0.113672714160122,25,up,down,1.1557102000006123,1.6154933545744838,,experiment,cRDM,1.0,,,,1186.2434945000025,1014,30,female,True
347,0.113672714160122,25,down,up,0.847141999998712,0.9585667391629532,,experiment,cRDM,1.0,,,,1188.6100578000005,1014,30,female,True
348,0.113672714160122,25,up,up,0.6368442999992112,1.4202832803719672,,experiment,cRDM,1.0,,,,1191.1433158,1014,30,female,True
349,0.113672714160122,25,up,down,1.0503379000001587,1.8074847980728384,,experiment,cRDM,1.0,,,,1193.8598544000015,1014,30,female,True
350,0.113672714160122,25,down,down,0.6737685000007332,1.9933541712884584,,experiment,cRDM,1.0,,,,1197.1764075000028,1014,30,female,True
351,0.113672714160122,25,down,up,1.08358170000065,1.594270783257684,,experiment,cRDM,1.0,,,,1199.7096286000017,1014,30,female,True
352,0.113672714160122,25,down,down,0.8567331000012928,1.6014870951605826,,experiment,cRDM,1.0,,,,1202.6595486000006,1014,30,female,True
353,0.113672714160122,25,down,down,0.76936410000053,0.7755053314763228,,experiment,cRDM,1.0,,,,1204.5428294000012,1014,30,female,True
354,0.113672714160122,25,down,down,0.7983727999999246,1.16513050208762,,experiment,cRDM,1.0,,,,1206.7258352999995,1014,30,female,True
355,0.113672714160122,25,down,down,1.6668902999990678,1.5261798272636835,,experiment,cRDM,1.0,,,,1209.3092875000002,1014,30,female,True
356,0.113672714160122,25,up,down,1.090950800000428,0.4066272874351198,,experiment,cRDM,1.0,,,,1211.659224400002,1014,30,female,True
357,0.113672714160122,25,up,up,0.7745168000001286,0.6108143369539272,,experiment,cRDM,1.0,,,,1213.6256831000028,1014,30,female,True
358,0.113672714160122,25,up,up,0.7350875000011001,0.5934389078930122,,experiment,cRDM,1.0,,,,1215.2590805,1014,30,female,True
359,0.113672714160122,25,up,up,1.2405155999986164,0.7296746813279403,,experiment,cRDM,1.0,,,,1216.9756677000005,1014,30,female,True
360,0.113672714160122,25,down,down,0.9912960000001476,1.2338108783862092,,experiment,cRDM,1.0,,,,1219.7088989000003,1014,30,female,True
361,0.113672714160122,25,up,down,1.01302460000079,0.4212782698032242,,experiment,cRDM,1.0,,,,1221.3921749,1014,30,female,True
362,0.113672714160122,25,up,down,0.6997195000003558,1.4073915417825986,,experiment,cRDM,1.0,,,,1224.0754431000023,1014,30,female,True
363,0.113672714160122,25,down,down,0.9575838999990084,1.925783245889362,,experiment,cRDM,1.0,,,,1226.958664400001,1014,30,female,True
364,0.113672714160122,25,up,down,0.9282274999968648,0.4601161380804454,,experiment,cRDM,1.0,,,,1228.641939600002,1014,30,female,True
365,0.113672714160122,25,down,up,1.2243879999987255,1.863358862140588,,experiment,cRDM,1.0,,,,1231.6918030000015,1014,30,female,True
366,0.113672714160122,25,down,down,0.9093233000021428,1.551063977593962,,experiment,cRDM,1.0,,,,1234.7248454,1014,30,female,True
367,0.113672714160122,25,up,up,1.1995669999996608,0.5459274558923715,,experiment,cRDM,1.0,,,,1236.4416714,1014,30,female,True
368,0.113672714160122,25,up,up,0.9833975000001374,0.6674235010594034,,experiment,cRDM,1.0,,,,1238.5749084000015,1014,30,female,True
369,0.113672714160122,25,down,down,1.048040800000308,1.0366258633349992,,experiment,cRDM,1.0,,,,1240.858136900002,1014,30,female,True
370,0.113672714160122,25,up,down,0.9178307000001952,1.2160138701242715,,experiment,cRDM,1.0,,,,1243.3913756000002,1014,30,female,True
371,0.113672714160122,25,down,up,1.964554800000769,1.321842300545084,,experiment,cRDM,1.0,,,,1245.8746113000016,1014,30,female,True
372,0.113672714160122,25,down,down,0.7629833999999391,1.5936080090940978,,experiment,cRDM,1.0,,,,1249.6911535,1014,30,female,True
373,0.113672714160122,25,down,down,0.6354821999993874,1.1042274678785644,,experiment,cRDM,1.0,,,,1251.8077198000028,1014,30,female,True
374,0.113672714160122,25,up,up,1.4408220000004803,0.8572852881528004,,experiment,cRDM,1.0,,,,1253.574341800002,1014,30,female,True
375,0.113672714160122,25,up,up,0.8222205999991274,0.443930759109608,,experiment,cRDM,1.0,,,,1255.7409576000027,1014,30,female,True
376,0.113672714160122,25,up,up,0.8393810000015947,0.9692659419019124,,experiment,cRDM,1.0,,,,1257.7908535999995,1014,30,female,True
377,0.113672714160122,25,down,down,0.9054618000009214,1.9920157039734865,,experiment,cRDM,1.0,,,,1260.8907216000007,1014,30,female,True
378,0.113672714160122,25,down,down,0.7538060000006226,0.6958616523493609,,experiment,cRDM,1.0,,,,1262.7573384000025,1014,30,female,True
379,0.113672714160122,25,up,down,0.7159868000017013,1.121357087120013,,experiment,cRDM,1.0,,,,1264.9072428,1014,30,female,True
380,0.113672714160122,25,down,down,0.6854371000008541,1.9397170682534093,,experiment,cRDM,1.0,,,,1267.823765600002,1014,30,female,True
381,0.113672714160122,25,up,down,0.7581035000002885,0.7459573382800081,,experiment,cRDM,1.0,,,,1269.5070971999994,1014,30,female,True
382,0.113672714160122,25,up,up,1.157839999999851,0.9478404476213932,,experiment,cRDM,1.0,,,,1271.4903587000008,1014,30,female,True
383,0.113672714160122,25,up,up,0.7357330000013462,0.6063858251904302,,experiment,cRDM,1.0,,,,1273.523473900001,1014,30,female,True
384,0.113672714160122,25,down,down,1.2186815999993996,1.951095143325747,,experiment,cRDM,1.0,,,,1276.473507900002,1014,30,female,True
385,0.113672714160122,25,down,down,0.7211453999989317,1.7257936225167574,,experiment,cRDM,1.0,,,,1279.6900375000005,1014,30,female,True
386,0.113672714160122,25,up,up,1.157946200000879,1.5431404203232242,,experiment,cRDM,1.0,,,,1282.2232508000016,1014,30,female,True
387,0.113672714160122,25,down,down,0.841693900001701,1.925836268425728,,experiment,cRDM,1.0,,,,1285.5564908000017,1014,30,female,True
388,0.113672714160122,25,down,down,0.6927514999988489,0.355569566655816,,experiment,cRDM,1.0,,,,1287.0064308,1014,30,female,True
389,0.113672714160122,25,up,down,0.814539999999397,1.0289121818040334,,experiment,cRDM,1.0,,,,1288.9896807000005,1014,30,female,True
390,0.113672714160122,25,up,up,0.968235199998162,1.6065182201968846,,experiment,cRDM,1.0,,,,1291.672948200001,1014,30,female,True
391,0.113672714160122,25,down,down,0.7600413000000117,1.915724704976428,,experiment,cRDM,1.0,,,,1294.8061405000008,1014,30,female,True
392,0.113672714160122,25,up,down,1.7660765999971773,0.7299500219599034,,experiment,cRDM,1.0,,,,1296.5561038000014,1014,30,female,True
393,0.113672714160122,25,down,down,0.6935761999993701,0.9388814669267114,,experiment,cRDM,1.0,,,,1299.5226059000015,1014,30,female,True
394,0.113672714160122,25,down,up,1.8422995999972045,0.6736681892453431,,experiment,cRDM,1.0,,,,1301.1559325000017,1014,30,female,True
395,0.113672714160122,25,down,down,1.4893719000028796,0.345794879986717,,experiment,cRDM,1.0,,,,1303.6058116000022,1014,30,female,True
396,0.113672714160122,25,up,up,0.9324914999997418,1.9544369479021924,,experiment,cRDM,1.0,,,,1307.3056902000026,1014,30,female,True
397,0.113672714160122,25,up,up,0.6928922000006423,0.6832011183719766,,experiment,cRDM,1.0,,,,1309.1722891999998,1014,30,female,True
398,0.113672714160122,25,down,down,0.7782153999978618,0.3106437452246643,,experiment,cRDM,1.0,,,,1310.438939800002,1014,30,female,True
399,0.113672714160122,25,down,up,1.014341300000524,1.264789514469095,,experiment,cRDM,1.0,,,,1312.738851500002,1014,30,female,True
400,0.113672714160122,25,up,up,0.942729300000792,0.4403606059356848,,experiment,cRDM,1.0,,,,1314.4554545000028,1014,30,female,True
401,0.113672714160122,25,up,down,1.383127200002491,0.9592927252780684,,experiment,cRDM,1.0,,,,1316.6220558999994,1014,30,female,True
402,0.113672714160122,25,up,up,1.6882874999973865,1.412868616705869,,experiment,cRDM,1.0,,,,1319.6719312000023,1014,30,female,True
403,0.113672714160122,25,up,up,1.307713900001545,0.5608008192213532,,experiment,cRDM,1.0,,,,1322.1884793000029,1014,30,female,True
404,0.113672714160122,25,up,down,2.259813699998631,1.327541938493416,,experiment,cRDM,1.0,,,,1325.0883697000029,1014,30,female,True
405,0.113672714160122,25,down,down,0.7873149999977613,1.6044477269645006,,experiment,cRDM,1.0,,,,1329.204870900001,1014,30,female,True
406,0.113672714160122,25,down,down,0.7110797000023013,1.8405928852989693,,experiment,cRDM,1.0,,,,1332.0881093000023,1014,30,female,True
407,0.113672714160122,25,up,down,1.333781799999997,0.805060993128963,,experiment,cRDM,1.0,,,,1333.8714044000008,1014,30,female,True
408,0.113672714160122,25,down,down,0.7728952999968897,1.1971168001740398,,experiment,cRDM,1.0,,,,1336.6712934999996,1014,30,female,True
409,0.113672714160122,25,down,down,0.8533478000026662,1.7369110217861472,,experiment,cRDM,1.0,,,,1339.437856200002,1014,30,female,True
410,0.113672714160122,25,down,down,0.6671128000016324,1.766210128479644,,experiment,cRDM,1.0,,,,1342.3210980000003,1014,30,female,True
411,0.113672714160122,25,up,down,0.6915036999998847,0.376863560784459,,experiment,cRDM,1.0,,,,1343.6376818000026,1014,30,female,True
412,0.113672714160122,25,down,down,0.7082478000011179,0.7650783600375077,,experiment,cRDM,1.0,,,,1345.370989400002,1014,30,female,True
413,0.113672714160122,25,down,down,1.1760452000016812,1.1772599770669898,,experiment,cRDM,1.0,,,,1347.5041687000012,1014,30,female,True
414,0.113672714160122,25,down,down,1.5087249000025622,0.7996413374822657,,experiment,cRDM,1.0,,,,1349.7374980000022,1014,30,female,True
415,0.113672714160122,25,up,up,0.9796310999990964,0.6107715711716148,,experiment,cRDM,1.0,,,,1352.1207319999994,1014,30,female,True
416,0.113672714160122,25,up,up,0.7235411999972712,1.2162985058709226,,experiment,cRDM,1.0,,,,1354.5706475000006,1014,30,female,True
417,0.113672714160122,25,down,down,1.3609628999984125,1.1755215688285152,,experiment,cRDM,1.0,,,,1356.7372482000028,1014,30,female,True
418,0.113672714160122,25,up,down,0.7526981000009982,1.4936703008285337,,experiment,cRDM,1.0,,,,1359.8704632000008,1014,30,female,True
419,0.113672714160122,25,down,down,0.8858032999996794,1.0293552148052132,,experiment,cRDM,1.0,,,,1361.9203849000005,1014,30,female,True
420,0.113672714160122,25,up,down,0.8316377000010107,0.6342229614267472,,experiment,cRDM,1.0,,,,1363.703531700001,1014,30,female,True
421,0.113672714160122,25,up,up,1.2863082000003487,1.1529031025350556,,experiment,cRDM,1.0,,,,1365.9368678000028,1014,30,female,True
422,127.0,25,M,up,1.0554642000024614,0.5459671653102747,,experiment,emotion,1.0,,,,1374.1197506999997,1014,30,female,True
423,117.0,25,M,down,0.5646149000021978,0.9490515170854974,,experiment,emotion,1.0,,,,1376.4196064999996,1014,30,female,True
424,124.0,25,F,up,0.8797926000006555,1.6982554082079206,,experiment,emotion,1.0,,,,1378.9863976000015,1014,30,female,True
425,127.0,25,F,down,0.622557599999709,1.4365044270719318,,experiment,emotion,1.0,,,,1381.5696148000025,1014,30,female,True
426,124.0,25,M,down,0.5393457999998645,0.93689352953513,,experiment,emotion,1.0,,,,1383.4028988000027,1014,30,female,True
427,120.0,25,F,down,0.5940176999974938,1.0361069036091537,,experiment,emotion,1.0,,,,1385.286172,1014,30,female,True
428,117.0,25,M,down,1.4638387999984843,0.660817815777284,,experiment,emotion,1.0,,,,1386.819384800001,1014,30,female,True
429,120.0,25,M,down,0.7478040000023611,0.8697094177336813,,experiment,emotion,1.0,,,,1389.4193686,1014,30,female,True
430,127.0,25,F,up,0.9005652000014379,0.7672086266908781,,experiment,emotion,1.0,,,,1391.2026047,1014,30,female,True
431,120.0,25,F,up,0.8840029999992112,1.3041654937859608,,experiment,emotion,1.0,,,,1393.6692052,1014,30,female,True
432,124.0,25,F,up,1.0478068000011262,1.6275034379113615,,experiment,emotion,1.0,,,,1396.5023999000005,1014,30,female,True
433,127.0,25,F,up,0.8643465000022843,1.3043167139798204,,experiment,emotion,1.0,,,,1399.118841800002,1014,30,female,True
434,124.0,25,F,down,0.8329510000003211,0.8079172520345528,,experiment,emotion,1.0,,,,1401.0522660000024,1014,30,female,True
435,117.0,25,F,down,0.638335299998289,0.9135065803257114,,experiment,emotion,1.0,,,,1403.118863300002,1014,30,female,True
436,120.0,25,M,down,0.643212200000562,1.8718302919163368,,experiment,emotion,1.0,,,,1405.9019837000014,1014,30,female,True
437,117.0,25,M,down,0.7785312999985763,1.4068941406315874,,experiment,emotion,1.0,,,,1408.218674300002,1014,30,female,True
438,127.0,25,M,down,0.6155962000011641,1.617058874300421,,experiment,emotion,1.0,,,,1410.8685762000025,1014,30,female,True
439,117.0,25,M,down,0.97532929999943,0.5023532857716574,,experiment,emotion,1.0,,,,1412.251842400001,1014,30,female,True
440,124.0,25,F,down,0.6174412000000302,1.6222516451968434,,experiment,emotion,1.0,,,,1415.1517387000022,1014,30,female,True
441,124.0,25,M,down,0.4001530999994429,1.2675654676370316,,experiment,emotion,1.0,,,,1417.3015967000028,1014,30,female,True
442,120.0,25,M,down,0.5833153999992646,0.967093420952041,,experiment,emotion,1.0,,,,1418.9849226000006,1014,30,female,True
443,120.0,25,F,down,0.6370330999998259,1.880794632785474,,experiment,emotion,1.0,,,,1421.718170600001,1014,30,female,True
444,117.0,25,M,down,0.5884527000016533,1.5213480007833975,,experiment,emotion,1.0,,,,1424.1847431000024,1014,30,female,True
445,127.0,25,F,up,1.8185522999992827,1.328363513158103,,experiment,emotion,1.0,,,,1426.3846422999995,1014,30,female,True
446,124.0,25,F,up,0.6743165999978373,0.6000346422400695,,experiment,emotion,1.0,,,,1429.1179075,1014,30,female,True
447,117.0,25,M,up,1.1227235000005749,0.6693111334237087,,experiment,emotion,1.0,,,,1430.7345050000004,1014,30,female,True
448,127.0,25,M,down,0.8247585000026447,0.9988212023234366,,experiment,emotion,1.0,,,,1433.1344323000012,1014,30,female,True
449,127.0,25,F,down,0.7388434999993478,1.1032773204462971,,experiment,emotion,1.0,,,,1435.3343502000023,1014,30,female,True
450,120.0,25,M,down,0.7302632999999332,0.8267352376227903,,experiment,emotion,1.0,,,,1437.200928000002,1014,30,female,True
451,117.0,25,F,up,2.0836219000011624,0.3687109215369799,,experiment,emotion,1.0,,,,1438.5675532000023,1014,30,female,True
452,120.0,25,F,down,1.1601650000011432,1.862725755233208,,experiment,emotion,1.0,,,,1442.7840792999996,1014,30,female,True
453,124.0,25,F,down,0.6761922000005143,0.6051479426537856,,experiment,emotion,1.0,,,,1444.8339890999996,1014,30,female,True
454,117.0,25,M,up,0.8409586999987368,1.6851061152939135,,experiment,emotion,1.0,,,,1447.4672265000008,1014,30,female,True
455,127.0,25,M,up,0.7793834000003699,0.4115179501978289,,experiment,emotion,1.0,,,,1448.983835400002,1014,30,female,True
456,124.0,25,M,up,0.6963601999996172,0.8993795058203291,,experiment,emotion,1.0,,,,1450.933788800001,1014,30,female,True
457,127.0,25,F,up,0.8182075999975496,1.1113355663573716,,experiment,emotion,1.0,,,,1453.016989600001,1014,30,female,True
458,117.0,25,F,up,0.7502127000007022,0.8590698109223058,,experiment,emotion,1.0,,,,1454.966947500001,1014,30,female,True
459,124.0,25,M,down,1.436536299999716,1.572354662171822,,experiment,emotion,1.0,,,,1457.566841300002,1014,30,female,True
460,120.0,25,F,up,1.0833975999994436,1.0533431445038266,,experiment,emotion,1.0,,,,1460.3667712000024,1014,30,female,True
461,120.0,25,M,down,1.414863800000603,1.7123708087461995,,experiment,emotion,1.0,,,,1463.4333305,1014,30,female,True
462,124.0,25,M,down,0.8276637000017217,1.7352789224059084,,experiment,emotion,1.0,,,,1466.8665285999996,1014,30,female,True
463,127.0,25,M,down,1.327799699996831,1.0499631882734268,,experiment,emotion,1.0,,,,1469.0164043000004,1014,30,female,True
464,120.0,25,F,down,0.6876760000013746,1.3861252475376882,,experiment,emotion,1.0,,,,1471.9995448000009,1014,30,female,True
465,117.0,25,F,down,0.6507906000006187,1.7955095694374417,,experiment,emotion,1.0,,,,1474.7994026000017,1014,30,female,True
466,117.0,25,M,up,1.8520828999971852,1.7981343690395737,,experiment,emotion,1.0,,,,1477.5161382000006,1014,30,female,True
467,120.0,25,F,down,0.8448889999999665,1.9301198915785105,,experiment,emotion,1.0,,,,1481.5493171000016,1014,30,female,True
468,127.0,25,F,up,1.115344300000288,1.7105134430326678,,experiment,emotion,1.0,,,,1484.4158659000022,1014,30,female,True
469,124.0,25,M,up,0.9980996000012964,1.614234831571279,,experiment,emotion,1.0,,,,1487.4490846000008,1014,30,female,True
470,117.0,25,M,down,0.6861862000005203,1.3208827390458266,,experiment,emotion,1.0,,,,1490.0489928000025,1014,30,female,True
471,127.0,25,F,up,0.9566178999994008,1.2008054116992977,,experiment,emotion,1.0,,,,1492.215591,1014,30,female,True
472,124.0,25,M,up,1.2460366999985126,1.1893712385802897,,experiment,emotion,1.0,,,,1494.632140900001,1014,30,female,True
473,124.0,25,F,down,1.006133700000646,0.3298183203291744,,experiment,emotion,1.0,,,,1496.4820757000016,1014,30,female,True
474,117.0,25,F,down,0.6891897999994399,1.125471221619627,,experiment,emotion,1.0,,,,1498.8819984000002,1014,30,female,True
475,120.0,25,F,up,1.6996032999995805,0.3317198968170126,,experiment,emotion,1.0,,,,1500.1985432,1014,30,female,True
476,127.0,25,M,up,1.1130300000004354,1.331111522273997,,experiment,emotion,1.0,,,,1503.5151695000022,1014,30,female,True
477,120.0,25,M,up,1.3454500999978336,0.7928457280003016,,experiment,emotion,1.0,,,,1505.6817378000014,1014,30,female,True
478,120.0,25,F,up,1.1101969000010286,0.8692190852355854,,experiment,emotion,1.0,,,,1508.1650107999994,1014,30,female,True
479,120.0,25,F,down,1.7779582000002847,0.7000573005857018,,experiment,emotion,1.0,,,,1510.248254000002,1014,30,female,True
480,127.0,25,M,up,1.0267238999986148,1.4966237877262032,,experiment,emotion,1.0,,,,1513.8314658000018,1014,30,female,True
481,124.0,25,M,up,0.8758366999973077,0.5131857345630038,,experiment,emotion,1.0,,,,1515.6813701000028,1014,30,female,True
482,117.0,25,M,down,0.7274099999995087,1.5576955140751672,,experiment,emotion,1.0,,,,1518.397789900002,1014,30,female,True
483,117.0,25,M,down,0.4001826000021538,0.9353404093317484,,experiment,emotion,1.0,,,,1520.3312265999994,1014,30,female,True
484,124.0,25,M,down,0.5233588000010059,0.584657642090413,,experiment,emotion,1.0,,,,1521.5978480000012,1014,30,female,True
485,127.0,25,F,down,0.9661095000010392,0.787004039943844,,experiment,emotion,1.0,,,,1523.1810955,1014,30,female,True
486,127.0,25,F,down,0.6519607000009273,1.702443847367536,,experiment,emotion,1.0,,,,1526.1142431000007,1014,30,female,True
487,117.0,25,M,down,0.7349581999988004,1.543937087832392,,experiment,emotion,1.0,,,,1528.5642738999995,1014,30,female,True
488,127.0,25,F,up,0.8611362000010558,1.551566153109646,,experiment,emotion,1.0,,,,1531.1140608999997,1014,30,female,True
489,120.0,25,F,down,0.8441543999979331,0.8346636577540247,,experiment,emotion,1.0,,,,1533.1140470000028,1014,30,female,True
490,124.0,25,F,down,0.9665850000019418,1.7583904240352806,,experiment,emotion,1.0,,,,1536.0306354000022,1014,30,female,True
491,120.0,25,M,down,0.7393862999997509,0.9362091187469276,,experiment,emotion,1.0,,,,1538.213764600001,1014,30,female,True
492,117.0,25,F,down,0.8137392999997246,1.6397793817318664,,experiment,emotion,1.0,,,,1540.8804595,1014,30,female,True
493,124.0,25,F,up,1.6255273999995552,1.6615281970792817,,experiment,emotion,1.0,,,,1543.6136707000005,1014,30,female,True
494,120.0,25,F,down,0.7769609999995737,1.864959120429652,,experiment,emotion,1.0,,,,1547.3802321000005,1014,30,female,True
495,124.0,25,M,down,0.9240839000012784,1.5991690985312206,,experiment,emotion,1.0,,,,1550.0301217000017,1014,30,female,True
496,117.0,25,M,down,0.6748506999974779,0.6305184591145649,,experiment,emotion,1.0,,,,1551.8633558,1014,30,female,True
497,127.0,25,F,down,0.9088603999989572,0.3907917088603786,,experiment,emotion,1.0,,,,1553.2133415999997,1014,30,female,True
498,124.0,25,M,down,0.8066079999989597,0.8462319594052476,,experiment,emotion,1.0,,,,1555.2465993000003,1014,30,female,True
499,127.0,25,F,down,1.2280197999971278,1.5983280168468414,,experiment,emotion,1.0,,,,1557.9131823000023,1014,30,female,True
500,117.0,25,M,down,0.7104970000000321,1.88087412452519,,experiment,emotion,1.0,,,,1561.2797097000002,1014,30,female,True
501,120.0,25,M,up,0.9908676999984892,1.5637982004852515,,experiment,emotion,1.0,,,,1563.8462973000023,1014,30,female,True
502,0.113672714160122,25,up,up,1.7306683999995585,1.2632787484842358,,experiment,cRDM,2.0,,,,1580.395563500002,1014,30,female,True
503,0.113672714160122,25,up,up,0.7189623000012944,1.4241113569632726,,experiment,cRDM,2.0,,,,1583.8122358,1014,30,female,True
504,0.113672714160122,25,down,down,0.6898782999996911,0.9122703178001405,,experiment,cRDM,2.0,,,,1585.695315500001,1014,30,female,True
505,0.113672714160122,25,down,down,0.6065956000020378,1.424255075709284,,experiment,cRDM,2.0,,,,1588.0787010000022,1014,30,female,True
506,0.113672714160122,25,up,down,1.2461832000008144,1.530094530169695,,experiment,cRDM,2.0,,,,1590.4619807000015,1014,30,female,True
507,0.113672714160122,25,down,up,1.002088699999149,0.431263791112177,,experiment,cRDM,2.0,,,,1592.395159300002,1014,30,female,True
508,0.113672714160122,25,up,up,1.678415700000187,1.10470779814994,,experiment,cRDM,2.0,,,,1594.761822600001,1014,30,female,True
509,0.113672714160122,25,up,down,0.7728569999999308,1.4219732817216744,,experiment,cRDM,2.0,,,,1598.1283430000003,1014,30,female,True
510,0.113672714160122,25,down,down,0.7516031999984989,0.8974183281780672,,experiment,cRDM,2.0,,,,1600.0616187000014,1014,30,female,True
511,0.113672714160122,25,down,up,0.7510270999991917,1.946696128203012,,experiment,cRDM,2.0,,,,1603.0281757000012,1014,30,female,True
512,0.113672714160122,25,down,down,0.7611371999992116,1.152306960402314,,experiment,cRDM,2.0,,,,1605.1780873999996,1014,30,female,True
513,0.113672714160122,25,down,up,1.4262138000012785,0.5427505601020208,,experiment,cRDM,2.0,,,,1606.728033200001,1014,30,female,True
514,0.113672714160122,25,down,down,0.8228946000017459,1.4577162137814703,,experiment,cRDM,2.0,,,,1609.8612845999996,1014,30,female,True
515,0.113672714160122,25,down,up,1.4286686000014015,0.6047529965047326,,experiment,cRDM,2.0,,,,1611.5445259000007,1014,30,female,True
516,0.113672714160122,25,up,down,1.145202199997584,1.078226955450478,,experiment,cRDM,2.0,,,,1614.3110078999998,1014,30,female,True
517,0.113672714160122,25,up,up,0.8175391000004311,0.8041538274862878,,experiment,cRDM,2.0,,,,1616.5276972000029,1014,30,female,True
518,0.113672714160122,25,up,down,0.593414800001483,0.5018766138057641,,experiment,cRDM,2.0,,,,1618.1107886999998,1014,30,female,True
519,0.113672714160122,25,up,up,0.9843207000012626,0.7971547537942478,,experiment,cRDM,2.0,,,,1619.7608880000007,1014,30,female,True
520,0.113672714160122,25,down,down,0.6967574000009336,1.1648075198841874,,experiment,cRDM,2.0,,,,1622.1774676999994,1014,30,female,True
521,0.113672714160122,25,up,down,0.7184921000007307,1.4229976747858522,,experiment,cRDM,2.0,,,,1624.5607176000012,1014,30,female,True
522,0.113672714160122,25,up,down,0.4866006999982346,0.4048757199321818,,experiment,cRDM,2.0,,,,1625.9606600000006,1014,30,female,True
523,0.113672714160122,25,down,down,0.6918919999989157,1.2244769063318548,,experiment,cRDM,2.0,,,,1627.9273109000023,1014,30,female,True
524,0.113672714160122,25,up,down,0.7989593999991484,0.3360972768438616,,experiment,cRDM,2.0,,,,1629.2272467000005,1014,30,female,True
525,0.113672714160122,25,down,down,0.6873995999994804,0.5955234037023145,,experiment,cRDM,2.0,,,,1630.8938116999998,1014,30,female,True
526,0.113672714160122,25,down,down,0.729138900001999,1.9236162824839844,,experiment,cRDM,2.0,,,,1633.777082200002,1014,30,female,True
527,0.113672714160122,25,up,down,1.257907899998827,0.8981937508323847,,experiment,cRDM,2.0,,,,1635.6603055000014,1014,30,female,True
528,0.113672714160122,25,up,down,0.766228599997703,1.925514452887619,,experiment,cRDM,2.0,,,,1639.1099692000023,1014,30,female,True
529,0.113672714160122,25,down,down,0.7304359000008844,1.0908673557442763,,experiment,cRDM,2.0,,,,1641.2267692000023,1014,30,female,True
530,0.113672714160122,25,up,down,1.822884400000476,0.6839594773482169,,experiment,cRDM,2.0,,,,1642.8933236000012,1014,30,female,True
531,0.113672714160122,25,down,down,1.2349155000010796,1.3659743007620777,,experiment,cRDM,2.0,,,,1646.3432809000003,1014,30,female,True
532,0.113672714160122,25,down,up,1.143183299998782,1.3749970275387255,,experiment,cRDM,2.0,,,,1649.193050400001,1014,30,female,True
533,0.113672714160122,25,down,up,0.8873031000002811,1.5009806844789209,,experiment,cRDM,2.0,,,,1652.0930676999997,1014,30,female,True
534,0.113672714160122,25,up,up,1.6939166000011028,0.6807918623573034,,experiment,cRDM,2.0,,,,1653.9263165000011,1014,30,female,True
535,0.113672714160122,25,up,down,1.6786949000015738,0.967022757336636,,experiment,cRDM,2.0,,,,1656.859536,1014,30,female,True
536,0.113672714160122,25,up,down,0.6268692000012379,1.458387712609958,,experiment,cRDM,2.0,,,,1660.2594134000028,1014,30,female,True
537,0.113672714160122,25,down,down,0.8118558000023768,0.9137522483315328,,experiment,cRDM,2.0,,,,1662.0593343,1014,30,female,True
538,0.113672714160122,25,down,down,0.817901599999459,0.7751600787227512,,experiment,cRDM,2.0,,,,1663.9093046000016,1014,30,female,True
539,0.113672714160122,25,up,down,0.67568989999927,0.7962786056263655,,experiment,cRDM,2.0,,,,1665.7925536000002,1014,30,female,True
540,0.113672714160122,25,down,down,0.7450669999998354,0.5170764057516366,,experiment,cRDM,2.0,,,,1667.2591606000024,1014,30,female,True
541,0.113672714160122,25,up,down,0.7141263000012259,0.9418907944950424,,experiment,cRDM,2.0,,,,1669.2090995,1014,30,female,True
542,0.113672714160122,25,up,up,1.0512137000005168,1.4230588312049306,,experiment,cRDM,2.0,,,,1671.6090098999994,1014,30,female,True
543,0.113672714160122,25,up,up,0.7559374999982538,0.5603715269694192,,experiment,cRDM,2.0,,,,1673.4922738999994,1014,30,female,True
544,0.113672714160122,25,down,down,0.6820622000013827,1.4424148727053578,,experiment,cRDM,2.0,,,,1675.9421712000003,1014,30,female,True
545,0.113672714160122,25,down,down,0.6858940999991319,1.6929442610126226,,experiment,cRDM,2.0,,,,1678.5753865000006,1014,30,female,True
546,0.113672714160122,25,up,up,1.1114984000014374,0.6478687359833433,,experiment,cRDM,2.0,,,,1680.1586914,1014,30,female,True
547,0.113672714160122,25,down,down,0.7835591999973985,1.166174851659772,,experiment,cRDM,2.0,,,,1682.7086028000012,1014,30,female,True
548,0.113672714160122,25,down,down,0.628697000000102,1.5502977042788966,,experiment,cRDM,2.0,,,,1685.3085100000026,1014,30,female,True
549,0.113672714160122,25,up,down,0.6977936000002956,1.7125773062787395,,experiment,cRDM,2.0,,,,1687.9084125000008,1014,30,female,True
550,0.113672714160122,25,up,up,1.4786552999976266,1.122324826938778,,experiment,cRDM,2.0,,,,1689.991550400002,1014,30,female,True
551,0.113672714160122,25,down,down,0.7977628999979061,0.862697793736656,,experiment,cRDM,2.0,,,,1692.5914408000026,1014,30,female,True
552,0.113672714160122,25,up,down,1.0704101000010269,1.8395251495231324,,experiment,cRDM,2.0,,,,1695.4747773000015,1014,30,female,True
553,0.113672714160122,25,down,down,0.7198460999970848,0.9433621302555923,,experiment,cRDM,2.0,,,,1697.7413612000018,1014,30,female,True
554,0.113672714160122,25,down,down,0.8285771000009845,0.7010962037731452,,experiment,cRDM,2.0,,,,1699.424635200001,1014,30,female,True
555,0.113672714160122,25,down,down,0.7076587000010477,1.517917694214208,,experiment,cRDM,2.0,,,,1702.0245515000024,1014,30,female,True
556,0.113672714160122,25,up,up,1.3293384999997215,0.7151624613784693,,experiment,cRDM,2.0,,,,1703.707854100001,1014,30,female,True
557,0.113672714160122,25,up,up,1.601115800000116,0.6878427102252125,,experiment,cRDM,2.0,,,,1705.991084600002,1014,30,female,True
558,0.113672714160122,25,down,down,0.6845935999990616,1.518866554875281,,experiment,cRDM,2.0,,,,1709.3576076999998,1014,30,female,True
559,0.113672714160122,25,down,up,1.3813626000010115,1.1765314466433936,,experiment,cRDM,2.0,,,,1711.4908675000006,1014,30,female,True
560,0.113672714160122,25,up,up,1.3625315999997838,1.8561486397350635,,experiment,cRDM,2.0,,,,1714.9906609000027,1014,30,female,True
561,0.113672714160122,25,up,down,0.8065612999998848,1.0802895307079183,,experiment,cRDM,2.0,,,,1717.6906466,1014,30,female,True
562,0.113672714160122,25,up,down,1.2923179999997956,1.3234579465272291,,experiment,cRDM,2.0,,,,1720.073890800002,1014,30,female,True
563,0.113672714160122,25,up,up,1.0661304999994172,1.0770347885874314,,experiment,cRDM,2.0,,,,1722.707152400002,1014,30,female,True
564,0.113672714160122,25,up,up,1.208837099999073,0.6002851451958059,,experiment,cRDM,2.0,,,,1724.640374300001,1014,30,female,True
565,0.113672714160122,25,down,down,0.7009858999990684,1.926506285774563,,experiment,cRDM,2.0,,,,1728.040248600002,1014,30,female,True
566,0.113672714160122,25,down,down,0.7513867999987269,1.8064390791655576,,experiment,cRDM,2.0,,,,1730.8068497000022,1014,30,female,True
567,0.113672714160122,25,up,down,0.971099200000026,1.0072423474434846,,experiment,cRDM,2.0,,,,1732.8400662999993,1014,30,female,True
568,0.113672714160122,25,down,down,0.7432212000021536,1.453244757571554,,experiment,cRDM,2.0,,,,1735.539984500003,1014,30,female,True
569,0.113672714160122,25,down,down,0.6662888999999268,1.102941951270963,,experiment,cRDM,2.0,,,,1737.639910400001,1014,30,female,True
570,0.113672714160122,25,down,down,1.4673884000003454,1.5194945879980415,,experiment,cRDM,2.0,,,,1740.0897941000003,1014,30,female,True
571,0.113672714160122,25,up,down,0.7679659999994328,0.6975349741885171,,experiment,cRDM,2.0,,,,1742.5062801000022,1014,30,female,True
572,0.113672714160122,25,down,up,0.8788856999999552,0.9179791861807752,,experiment,cRDM,2.0,,,,1744.4563280000002,1014,30,female,True
573,0.113672714160122,25,down,up,0.939326700001402,1.1678764166032998,,experiment,cRDM,2.0,,,,1746.7729215,1014,30,female,True
574,0.113672714160122,25,down,down,0.7520327999991423,0.4759967612720984,,experiment,cRDM,2.0,,,,1748.4561821000025,1014,30,female,True
575,0.113672714160122,25,up,up,1.0081083000004585,0.4792772818095644,,experiment,cRDM,2.0,,,,1749.956117400001,1014,30,female,True
576,0.113672714160122,25,up,up,0.8245139999999083,1.3591102634896006,,experiment,cRDM,2.0,,,,1752.5727000000006,1014,30,female,True
577,0.113672714160122,25,down,down,0.7422784000009415,1.3896215030413148,,experiment,cRDM,2.0,,,,1755.0559280000016,1014,30,female,True
578,0.113672714160122,25,up,down,0.9406338000007964,1.4966873541859076,,experiment,cRDM,2.0,,,,1757.5725420000017,1014,30,female,True
579,0.113672714160122,25,down,down,0.5201438000003691,1.0635008858833763,,experiment,cRDM,2.0,,,,1759.839086,1014,30,female,True
580,0.113672714160122,25,up,down,0.4475572000010288,0.4837280175418469,,experiment,cRDM,2.0,,,,1761.1057250000013,1014,30,female,True
581,0.113672714160122,25,up,down,0.6750097000003734,0.6582358643169355,,experiment,cRDM,2.0,,,,1762.4722024000002,1014,30,female,True
582,127.0,25,M,up,0.6745392000011634,1.418827704903739,,experiment,emotion,2.0,,,,1770.8386981000003,1014,30,female,True
583,117.0,25,M,down,0.5325897000002442,1.0053477689157926,,experiment,emotion,2.0,,,,1772.838623800002,1014,30,female,True
584,124.0,25,F,up,0.6723772999976063,1.9485400937445696,,experiment,emotion,2.0,,,,1775.6218315000006,1014,30,female,True
585,127.0,25,F,down,0.7404203000005509,0.5675352368802036,,experiment,emotion,2.0,,,,1777.1217894,1014,30,female,True
586,124.0,25,M,down,0.7888815000005707,1.7197384606141684,,experiment,emotion,2.0,,,,1779.8383721000027,1014,30,female,True
587,120.0,25,F,up,0.7426089999971737,0.6579397653687322,,experiment,emotion,2.0,,,,1781.5715996,1014,30,female,True
588,117.0,25,M,down,0.7023270999998203,0.6744313842730508,,experiment,emotion,2.0,,,,1783.2549015000004,1014,30,female,True
589,120.0,25,M,down,0.6638913999995566,0.5053376151191129,,experiment,emotion,2.0,,,,1784.721489800002,1014,30,female,True
590,127.0,25,F,down,0.7427916999986337,1.9728076171947988,,experiment,emotion,2.0,,,,1787.6214297000006,1014,30,female,True
591,120.0,25,F,down,0.7486451000004308,1.0148728028141951,,experiment,emotion,2.0,,,,1789.654660100001,1014,30,female,True
592,124.0,25,F,up,1.2599429000001692,0.5913114111301574,,experiment,emotion,2.0,,,,1791.2712415999997,1014,30,female,True
593,127.0,25,F,up,0.8594123000002583,0.7044851581773138,,experiment,emotion,2.0,,,,1793.4878097,1014,30,female,True
594,124.0,25,F,up,1.203733000002103,0.4323696099679402,,experiment,emotion,2.0,,,,1795.0544776000024,1014,30,female,True
595,117.0,25,F,up,1.416148099997372,1.5368015618008957,,experiment,emotion,2.0,,,,1798.071017300001,1014,30,female,True
596,120.0,25,M,down,0.6453247999997984,1.519994429344165,,experiment,emotion,2.0,,,,1801.2709030000003,1014,30,female,True
597,117.0,25,M,down,0.7057886999973562,1.2130467015241853,,experiment,emotion,2.0,,,,1803.3874157000027,1014,30,female,True
598,127.0,25,M,down,0.8070665999985067,0.3435218669369009,,experiment,emotion,2.0,,,,1804.7041336,1014,30,female,True
599,117.0,25,M,down,0.8125084999992396,1.146898954372441,,experiment,emotion,2.0,,,,1806.9207092,1014,30,female,True
600,124.0,25,F,down,0.7182780000002822,1.6635594518065997,,experiment,emotion,2.0,,,,1809.7039380000024,1014,30,female,True
601,124.0,25,M,down,1.0616807000005792,0.3877303200107903,,experiment,emotion,2.0,,,,1811.0705332,1014,30,female,True
602,120.0,25,M,down,0.9264139000006252,1.0032908260690283,,experiment,emotion,2.0,,,,1813.4037824000009,1014,30,female,True
603,120.0,25,F,down,0.6798268000020471,1.5118522391098628,,experiment,emotion,2.0,,,,1816.1203509000009,1014,30,female,True
604,117.0,25,M,down,0.7732459000035306,0.857653950528853,,experiment,emotion,2.0,,,,1817.936962300002,1014,30,female,True
605,127.0,25,F,up,0.8293459999986226,0.7553745648174605,,experiment,emotion,2.0,,,,1819.7868703000024,1014,30,female,True
606,124.0,25,F,down,0.6984279999996943,0.9444517273585672,,experiment,emotion,2.0,,,,1821.8368029000007,1014,30,female,True
607,117.0,25,M,up,0.7288447999999335,1.55424210773847,,experiment,emotion,2.0,,,,1824.3533657000007,1014,30,female,True
608,127.0,25,M,down,0.7129041999978654,1.1530984344765267,,experiment,emotion,2.0,,,,1826.503309300002,1014,30,female,True
609,127.0,25,F,down,0.8387136000019382,1.432098686601407,,experiment,emotion,2.0,,,,1828.936542800002,1014,30,female,True
610,120.0,25,M,down,0.8897037000024284,0.3644578997095328,,experiment,emotion,2.0,,,,1830.4365063000005,1014,30,female,True
611,117.0,25,F,down,0.7361256000003777,0.4611086119534155,,experiment,emotion,2.0,,,,1832.0531227000029,1014,30,female,True
612,120.0,25,F,up,0.8014874000000418,0.8570363384718109,,experiment,emotion,2.0,,,,1833.9197024999996,1014,30,female,True
613,124.0,25,F,down,0.8266438999999082,1.124636615202831,,experiment,emotion,2.0,,,,1836.1695958000016,1014,30,female,True
614,117.0,25,M,up,0.150181999997585,1.992405805388181,,experiment,emotion,2.0,,,,1839.2528349000024,1014,30,female,True
615,127.0,25,M,up,1.0622315000000526,1.0068153097438035,,experiment,emotion,2.0,,,,1840.9859875,1014,30,female,True
616,124.0,25,M,up,0.6305603999971936,0.5899498424707736,,experiment,emotion,2.0,,,,1842.9027056000011,1014,30,female,True
617,127.0,25,F,up,0.9419372999982444,1.6185800443139735,,experiment,emotion,2.0,,,,1845.4192813000009,1014,30,female,True
618,117.0,25,F,up,1.1024944999990112,1.0460552097633904,,experiment,emotion,2.0,,,,1847.685771700002,1014,30,female,True
619,124.0,25,M,up,1.3046003999988898,1.5307981578049268,,experiment,emotion,2.0,,,,1850.5856193,1014,30,female,True
620,120.0,25,F,down,0.6512217000017699,1.8202925758121185,,experiment,emotion,2.0,,,,1854.019000700002,1014,30,female,True
621,120.0,25,M,down,0.6966939999983879,1.803284906795872,,experiment,emotion,2.0,,,,1856.7355233000017,1014,30,female,True
622,124.0,25,M,down,0.9332853000014438,1.041784420996407,,experiment,emotion,2.0,,,,1858.752142100002,1014,30,female,True
623,127.0,25,M,down,1.026123199997528,0.419677676821767,,experiment,emotion,2.0,,,,1860.402076000002,1014,30,female,True
624,120.0,25,F,down,0.5165529000005336,0.4311643501030453,,experiment,emotion,2.0,,,,1862.1186631000016,1014,30,female,True
625,117.0,25,F,down,0.7039451999989979,1.8971029393165264,,experiment,emotion,2.0,,,,1864.8352541999996,1014,30,female,True
626,117.0,25,M,down,0.7017195000007632,0.8071144312286884,,experiment,emotion,2.0,,,,1866.618503400001,1014,30,female,True
627,120.0,25,F,down,1.6517739000009897,1.2132131133757356,,experiment,emotion,2.0,,,,1868.8184269000008,1014,30,female,True
628,127.0,25,F,up,0.9835620000012568,1.4496880304251345,,experiment,emotion,2.0,,,,1872.2016623000015,1014,30,female,True
629,124.0,25,M,up,0.8483710000000428,1.0018417724410624,,experiment,emotion,2.0,,,,1874.4849181000027,1014,30,female,True
630,117.0,25,M,down,1.1831020999998143,1.0486639854079722,,experiment,emotion,2.0,,,,1876.6681207,1014,30,female,True
631,127.0,25,F,up,0.9374907999990684,0.8178357982265367,,experiment,emotion,2.0,,,,1878.9347141,1014,30,female,True
632,124.0,25,M,up,0.1167647000002034,1.8241662824758995,,experiment,emotion,2.0,,,,1881.9679421,1014,30,female,True
633,124.0,25,F,down,0.6080125999978918,1.1463460147522313,,experiment,emotion,2.0,,,,1883.8012183000028,1014,30,female,True
634,117.0,25,F,down,0.7731161000010616,1.3828760636146458,,experiment,emotion,2.0,,,,1886.051135400001,1014,30,female,True
635,120.0,25,F,down,0.6148520999995526,1.705781968429179,,experiment,emotion,2.0,,,,1888.834346800002,1014,30,female,True
636,127.0,25,M,up,1.0263120999989042,1.5789178641664017,,experiment,emotion,2.0,,,,1891.3009237000008,1014,30,female,True
637,120.0,25,M,down,0.8626900000017486,1.9281047786904,,experiment,emotion,2.0,,,,1894.5174895000016,1014,30,female,True
638,120.0,25,F,down,1.0531791000030353,0.5805200321104251,,experiment,emotion,2.0,,,,1896.2340788,1014,30,female,True
639,120.0,25,F,up,0.8509137000000919,1.106818850427411,,experiment,emotion,2.0,,,,1898.6672951,1014,30,female,True
640,127.0,25,M,down,1.5359812000024249,1.81597777114432,,experiment,emotion,2.0,,,,1901.6172183000017,1014,30,female,True
641,124.0,25,M,down,0.6060953000014706,0.5550315997470554,,experiment,emotion,2.0,,,,1904.0171262000003,1014,30,female,True
642,117.0,25,M,down,0.6564614999988407,0.3580574809692151,,experiment,emotion,2.0,,,,1905.2837658000024,1014,30,female,True
643,117.0,25,M,down,1.4535579000003054,0.5206670996375933,,experiment,emotion,2.0,,,,1906.7336945000025,1014,30,female,True
644,124.0,25,M,down,0.8590101999980106,1.692093867247831,,experiment,emotion,2.0,,,,1910.1502224,1014,30,female,True
645,127.0,25,F,down,0.704708400000527,0.44165416678719,,experiment,emotion,2.0,,,,1911.7334994000007,1014,30,female,True
646,127.0,25,F,up,1.270129000000452,0.6548581766708236,,experiment,emotion,2.0,,,,1913.3500976,1014,30,female,True
647,117.0,25,M,down,0.8720595999984653,1.2913356341491884,,experiment,emotion,2.0,,,,1916.1832053,1014,30,female,True
648,127.0,25,F,up,1.7152731999995012,1.189750098027745,,experiment,emotion,2.0,,,,1918.4999393,1014,30,female,True
649,120.0,25,F,up,0.7023894999983895,1.2656366375185244,,experiment,emotion,2.0,,,,1921.7998314,1014,30,female,True
650,124.0,25,F,up,0.848805399997218,0.9381676347187522,,experiment,emotion,2.0,,,,1923.7663932,1014,30,female,True
651,120.0,25,M,up,1.0489501000010932,1.8887768945490344,,experiment,emotion,2.0,,,,1926.7662720000008,1014,30,female,True
652,117.0,25,F,down,1.7786874000012176,0.7396953678056324,,experiment,emotion,2.0,,,,1928.8495378000007,1014,30,female,True
653,124.0,25,F,up,1.629211600000417,1.261812313762841,,experiment,emotion,2.0,,,,1932.1659655000003,1014,30,female,True
654,120.0,25,F,down,0.70192550000138,1.985327020816718,,experiment,emotion,2.0,,,,1936.0493002000003,1014,30,female,True
655,124.0,25,M,down,1.3867191999997883,0.6147182435139794,,experiment,emotion,2.0,,,,1937.6325785000008,1014,30,female,True
656,117.0,25,M,down,0.706332999998267,1.02553087454576,,experiment,emotion,2.0,,,,1940.3158247000028,1014,30,female,True
657,127.0,25,F,down,0.6285448000016913,0.908155599694064,,experiment,emotion,2.0,,,,1942.215722500001,1014,30,female,True
658,124.0,25,M,up,1.4028754999999364,0.6305862543107856,,experiment,emotion,2.0,,,,1943.7323434000027,1014,30,female,True
659,127.0,25,F,down,0.9306881000011344,1.670200266068069,,experiment,emotion,2.0,,,,1947.0655377000005,1014,30,female,True
660,117.0,25,M,down,0.7497688999974343,0.3345967771053162,,experiment,emotion,2.0,,,,1948.615486900002,1014,30,female,True
661,120.0,25,M,down,1.3208169000026828,1.271924724082545,,experiment,emotion,2.0,,,,1950.9654062000009,1014,30,female,True
662,0.113672714160122,25,up,down,1.5173677999991924,0.66016986846464,,experiment,cRDM,3.0,,,,1965.1148823000003,1014,30,female,True
663,0.113672714160122,25,up,up,0.7497713999982807,1.2912952344510646,,experiment,cRDM,3.0,,,,1968.1814518000028,1014,30,female,True
664,0.113672714160122,25,down,down,0.6642447999984142,0.8088009690752818,,experiment,cRDM,3.0,,,,1969.9979770000027,1014,30,female,True
665,0.113672714160122,25,down,down,0.9436213000008138,1.8420768327490649,,experiment,cRDM,3.0,,,,1972.7645781000028,1014,30,female,True
666,0.113672714160122,25,up,up,0.668042900000728,1.8612560788910968,,experiment,cRDM,3.0,,,,1975.831181900001,1014,30,female,True
667,0.113672714160122,25,down,up,0.6982493999967119,1.3074206887909428,,experiment,cRDM,3.0,,,,1978.080973,1014,30,female,True
668,0.113672714160122,25,up,up,0.6241767000028631,1.2892882199247682,,experiment,cRDM,3.0,,,,1980.3310218000008,1014,30,female,True
669,0.113672714160122,25,up,up,0.7590288999999757,1.58203512606753,,experiment,cRDM,3.0,,,,1982.8142377000004,1014,30,female,True
670,0.113672714160122,25,down,up,1.3657108999977936,0.3020517650818883,,experiment,cRDM,3.0,,,,1984.1475566000008,1014,30,female,True
671,0.113672714160122,25,down,down,0.9431393000013486,0.9436191277287402,,experiment,cRDM,3.0,,,,1986.714085,1014,30,female,True
672,0.113672714160122,25,down,down,0.5992168000011588,0.9944272095265516,,experiment,cRDM,3.0,,,,1988.914016900002,1014,30,female,True
673,0.113672714160122,25,down,down,0.6739644000008411,1.2877912499808857,,experiment,cRDM,3.0,,,,1991.0472584000015,1014,30,female,True
674,0.113672714160122,25,down,down,0.8543948000005912,1.7869664029162422,,experiment,cRDM,3.0,,,,1993.7638518000024,1014,30,female,True
675,0.113672714160122,25,down,down,0.7098775999984355,1.5345302804761982,,experiment,cRDM,3.0,,,,1996.4304022,1014,30,female,True
676,0.113672714160122,25,up,down,0.7799781999965489,1.7799465703008557,,experiment,cRDM,3.0,,,,1999.1802455,1014,30,female,True
677,0.113672714160122,25,up,up,1.4466721000026157,0.7418521116950736,,experiment,cRDM,3.0,,,,2000.963542900001,1014,30,female,True
678,0.113672714160122,25,up,down,0.8135008000026573,1.6766972054507092,,experiment,cRDM,3.0,,,,2004.3467875999995,1014,30,female,True
679,0.113672714160122,25,up,up,0.8658622000002651,1.034214511880605,,experiment,cRDM,3.0,,,,2006.4633448999996,1014,30,female,True
680,0.113672714160122,25,down,down,0.90325490000032,0.5414120231724782,,experiment,cRDM,3.0,,,,2008.1299730000028,1014,30,female,True
681,0.113672714160122,25,up,down,0.6580579999972542,1.520219531828753,,experiment,cRDM,3.0,,,,2010.813199100001,1014,30,female,True
682,0.113672714160122,25,up,up,1.259427700002561,1.8990459202401715,,experiment,cRDM,3.0,,,,2013.6297699000024,1014,30,female,True
683,0.113672714160122,25,down,down,1.2719357000023592,1.855279554915844,,experiment,cRDM,3.0,,,,2016.9963500000013,1014,30,female,True
684,0.113672714160122,25,up,up,0.8364002999987861,0.6318160423055852,,experiment,cRDM,3.0,,,,2019.1462377000023,1014,30,female,True
685,0.113672714160122,25,down,down,0.6430946000000404,1.9569208722810807,,experiment,cRDM,3.0,,,,2022.196144200003,1014,30,female,True
686,0.113672714160122,25,down,down,0.6661559999993187,0.991558870276858,,experiment,cRDM,3.0,,,,2024.096072100001,1014,30,female,True
687,0.113672714160122,25,up,up,0.9209311000013258,0.657736968528484,,experiment,cRDM,3.0,,,,2025.6792857,1014,30,female,True
688,0.113672714160122,25,up,up,0.887972799999261,1.262167875569472,,experiment,cRDM,3.0,,,,2028.1292641,1014,30,female,True
689,0.113672714160122,25,down,down,0.6414392000006046,1.1584837531261902,,experiment,cRDM,3.0,,,,2030.445817200001,1014,30,female,True
690,0.113672714160122,25,up,down,0.5804448000017146,0.3296623404230477,,experiment,cRDM,3.0,,,,2031.6958011000024,1014,30,female,True
691,0.113672714160122,25,down,down,0.5852684999990743,1.2533226413153844,,experiment,cRDM,3.0,,,,2033.7789279000024,1014,30,female,True
692,0.113672714160122,25,down,down,0.9262830999978178,1.8974993444951,,experiment,cRDM,3.0,,,,2036.5289378000016,1014,30,female,True
693,0.113672714160122,25,down,down,0.973724499999662,1.7304360464639894,,experiment,cRDM,3.0,,,,2039.4455012,1014,30,female,True
694,0.113672714160122,25,up,down,1.2691783999980544,1.1356515736440187,,experiment,cRDM,3.0,,,,2041.8120715000005,1014,30,female,True
695,0.113672714160122,25,up,up,1.3878933000014513,0.6445804969464934,,experiment,cRDM,3.0,,,,2043.9953373000023,1014,30,female,True
696,0.113672714160122,25,up,up,0.500341799997841,1.1648813291283218,,experiment,cRDM,3.0,,,,2046.8118938000007,1014,30,female,True
697,0.113672714160122,25,down,down,0.7464494000014383,1.5286423457268004,,experiment,cRDM,3.0,,,,2049.1117864000007,1014,30,female,True
698,0.113672714160122,25,down,down,0.6061650999981794,1.888599823826829,,experiment,cRDM,3.0,,,,2051.995061400001,1014,30,female,True
699,0.113672714160122,25,up,up,1.4129745999998704,1.4203426471821778,,experiment,cRDM,3.0,,,,2054.2782860000007,1014,30,female,True
700,0.113672714160122,25,down,down,0.8057250999991084,1.556425663409094,,experiment,cRDM,3.0,,,,2057.511500600001,1014,30,female,True
701,0.113672714160122,25,up,up,0.717176300000574,1.6888563755263744,,experiment,cRDM,3.0,,,,2060.2780528000003,1014,30,female,True
702,0.113672714160122,25,up,up,1.405601200000092,1.5352050929884753,,experiment,cRDM,3.0,,,,2062.7946422000023,1014,30,female,True
703,0.113672714160122,25,up,down,0.7584095999991405,1.9492233929965164,,experiment,cRDM,3.0,,,,2066.4278199,1014,30,female,True
704,0.113672714160122,25,down,down,0.6945181000010052,1.61797980614493,,experiment,cRDM,3.0,,,,2069.0777504,1014,30,female,True
705,0.113672714160122,25,down,up,1.1959250999971118,1.5177186021597573,,experiment,cRDM,3.0,,,,2071.5443092999994,1014,30,female,True
706,0.113672714160122,25,up,down,1.998344100000395,0.8650085954940425,,experiment,cRDM,3.0,,,,2073.8608574000027,1014,30,female,True
707,0.113672714160122,25,down,down,1.1831149000026926,0.5887224822174391,,experiment,cRDM,3.0,,,,2076.694113100002,1014,30,female,True
708,0.113672714160122,25,down,down,0.7275502000011329,1.5756323500027267,,experiment,cRDM,3.0,,,,2079.7106829000004,1014,30,female,True
709,0.113672714160122,25,up,down,0.5959832000007736,1.8593874032137545,,experiment,cRDM,3.0,,,,2082.577244600001,1014,30,female,True
710,0.113672714160122,25,up,up,0.9658917000015208,0.517412756339683,,experiment,cRDM,3.0,,,,2083.9603454000026,1014,30,female,True
711,0.113672714160122,25,down,down,0.7217971999998554,0.9226240696898118,,experiment,cRDM,3.0,,,,2086.110436400002,1014,30,female,True
712,0.113672714160122,25,up,down,0.8938711999981024,0.3576248551638585,,experiment,cRDM,3.0,,,,2087.4603345,1014,30,female,True
713,0.113672714160122,25,down,down,0.777554100000998,0.5212781051513831,,experiment,cRDM,3.0,,,,2089.1436732,1014,30,female,True
714,0.113672714160122,25,down,down,0.6589500000009139,1.7336393256510148,,experiment,cRDM,3.0,,,,2091.9102518,1014,30,female,True
715,0.113672714160122,25,down,up,1.2380798999984108,0.3747871117699831,,experiment,cRDM,3.0,,,,2093.210192300001,1014,30,female,True
716,0.113672714160122,25,up,up,0.8801147999984096,0.5118316623221694,,experiment,cRDM,3.0,,,,2095.210115500002,1014,30,female,True
717,0.113672714160122,25,up,down,0.9495289999977105,0.9255490476734958,,experiment,cRDM,3.0,,,,2097.2767289000003,1014,30,female,True
718,0.113672714160122,25,down,down,0.6362800000024436,1.509545671903288,,experiment,cRDM,3.0,,,,2100.0099534,1014,30,female,True
719,0.113672714160122,25,down,up,1.1390656999974451,1.886143430519543,,experiment,cRDM,3.0,,,,2102.7931629000013,1014,30,female,True
720,0.113672714160122,25,up,up,0.7800812999994378,0.4888820100613429,,experiment,cRDM,3.0,,,,2104.693132700002,1014,30,female,True
721,0.113672714160122,25,up,up,1.0182414000009885,1.3198337338737902,,experiment,cRDM,3.0,,,,2107.042996,1014,30,female,True
722,0.113672714160122,25,up,down,1.3323618000031274,1.4883247752451525,,experiment,cRDM,3.0,,,,2109.7929017000024,1014,30,female,True
723,0.113672714160122,25,up,up,0.7351178000026266,1.9253660958438177,,experiment,cRDM,3.0,,,,2113.3261171000013,1014,30,female,True
