,stimLvl,stimTime,rand,response,rt,precedingITI,trialNumber,trialType,stimuli,block,estIntens,estThres,estSlope,trialStart,subject,age,gender,headRest
0,150.0,100,F,,,0.4646009683988579,,introTrial,emotion,,,,,238.88779449999996,1001,26,female,True
1,0.9,100,down,,,0.3655893769154504,,introTrial,cRDM,,,,,243.18777619999992,1001,26,female,True
2,200.0,25,M,up,0.7757258999999976,1.255837977873253,,tutorial,emotion,,,,,288.9359628,1001,26,female,True
3,200.0,25,F,up,1.004485599999953,0.9336842431707896,,tutorial,emotion,,,,,290.9192246,1001,26,female,True
4,200.0,25,M,up,0.55430709999996,1.5449680063768163,,tutorial,emotion,,,,,293.7693803999998,1001,26,female,True
5,0.0,25,M,down,0.5386667000000216,1.9236410329776,,tutorial,emotion,,,,,296.5690373,1001,26,female,True
6,0.0,25,M,down,0.775905400000056,1.8579214578574208,,tutorial,emotion,,,,,299.2527966,1001,26,female,True
7,200.0,25,F,up,0.9974960000001828,1.007281411998235,,tutorial,emotion,,,,,301.30216210000003,1001,26,female,True
8,0.0,25,M,down,0.8503080000000409,1.8886705135121409,,tutorial,emotion,,,,,304.4853767,1001,26,female,True
9,200.0,25,F,up,1.041786600000023,1.425191749891222,,tutorial,emotion,,,,,307.0519293,1001,26,female,True
10,0.0,25,F,down,0.8311542000001282,0.659930481696211,,tutorial,emotion,,,,,309.01853259999984,1001,26,female,True
11,0.0,25,F,down,0.6212262000001374,1.2794274380647082,,tutorial,emotion,,,,,311.4184605999999,1001,26,female,True
12,0.9,25,up,up,0.5832648000000518,1.2190362218235442,,tutorial,cRDM,,,,,321.40143969999986,1001,26,female,True
13,0.9,25,up,up,0.4820337000001018,0.4587017661191062,,tutorial,cRDM,,,,,322.7347167999999,1001,26,female,True
14,0.9,25,down,down,0.6107128000001012,0.8642669062603345,,tutorial,cRDM,,,,,324.3679938999999,1001,26,female,True
15,0.9,25,down,down,0.675188100000014,1.904493406317448,,tutorial,cRDM,,,,,327.1345415999999,1001,26,female,True
16,0.9,25,up,up,0.4995559999999841,0.6218081229781566,,tutorial,cRDM,,,,,328.7011548999999,1001,26,female,True
17,0.9,25,down,down,0.6072240999999394,0.3876932144864384,,tutorial,cRDM,,,,,329.8844692,1001,26,female,True
18,0.9,25,up,up,0.4263192999999319,1.2273465985645988,,tutorial,cRDM,,,,,331.9843704,1001,26,female,True
19,0.9,25,up,up,0.5670215000000098,0.6469105629314513,,tutorial,cRDM,,,,,333.3176447999999,1001,26,female,True
20,0.9,25,down,down,0.6717839000000367,1.4383810844865972,,tutorial,cRDM,,,,,335.60090919999993,1001,26,female,True
21,0.9,25,down,down,0.5562457000000904,1.8331565628781448,,tutorial,cRDM,,,,,338.36743849999993,1001,26,female,True
22,100.0,25,M,up,0.5098499999999149,1.1730604230961643,,psi_staircase_training,emotion,,100.0,100.0,25.00050000000001,356.0668128,1001,26,female,True
23,55.0,25,M,down,0.7106551999997919,1.1036797263419915,,psi_staircase_training,emotion,,54.7428094675419,54.7428094675419,25.00050000000011,358.05005099999994,1001,26,female,True
24,79.0,25,F,down,0.9257382999999209,1.762923616382699,,psi_staircase_training,emotion,,79.636070985635,79.636070985635,25.713269254886413,360.8999635,1001,26,female,True
25,103.0,25,F,up,0.5208211000001484,0.9626313230689624,,psi_staircase_training,emotion,,97.61123893914808,97.61123893914808,26.1463337262867,363.1498651,1001,26,female,True
26,87.0,25,M,up,0.4795739000001049,1.7211037102808897,,psi_staircase_training,emotion,,85.98876744579668,85.98876744579668,23.003056417783498,365.7331167,1001,26,female,True
27,73.0,25,F,down,0.7376885999999558,1.7597609938636694,,psi_staircase_training,emotion,,76.84494728761523,76.84494728761523,23.862671666125223,368.3330194,1001,26,female,True
28,83.0,25,M,down,1.0064249000001837,0.775503740425568,,psi_staircase_training,emotion,,83.27335240078496,83.27335240078496,20.612160618333935,370.2162784999998,1001,26,female,True
29,93.0,25,F,down,0.6647864999999911,0.6793334713796324,,psi_staircase_training,emotion,,88.5822762920035,88.5822762920035,20.399967861098503,372.2829116,1001,26,female,True
30,109.0,25,F,up,0.9538763000000472,1.5095122458748342,,psi_staircase_training,emotion,,95.67556894901224,95.67556894901224,26.326288765400918,374.8327941,1001,26,female,True
31,107.0,25,M,up,0.7555958000000373,0.507317034436728,,psi_staircase_training,emotion,,92.07487684260836,92.07487684260836,23.700331269420914,376.6660712,1001,26,female,True
32,76.0,25,F,down,0.4887573000000884,0.82986041861065,,psi_staircase_training,emotion,,89.77203586456596,89.77203586456596,21.45892762814905,378.6159717999999,1001,26,female,True
33,105.0,25,F,down,0.693788399999903,0.7407824522574895,,psi_staircase_training,emotion,,91.59603450552754,91.59603450552754,19.382101432010096,380.215905,1001,26,female,True
34,117.0,25,F,up,0.7935182999999597,0.811957012889422,,psi_staircase_training,emotion,,97.1904290465256,97.1904290465256,26.903858895043005,382.0991724999999,1001,26,female,True
35,115.0,25,M,up,0.9595312999999804,0.5467301131376869,,psi_staircase_training,emotion,,95.27916607494252,95.27916607494252,25.079443154805123,383.7991322999999,1001,26,female,True
36,75.0,25,M,down,0.4993541000001187,1.9014817811256408,,psi_staircase_training,emotion,,93.84257347228616,93.84257347228616,23.439016854116964,387.0323435999999,1001,26,female,True
37,114.0,25,F,up,0.6497736999999688,0.8587597276666343,,psi_staircase_training,emotion,,95.091215068654,95.091215068654,21.86777315131683,388.74892839999984,1001,26,female,True
38,77.0,25,F,down,0.5431737000001249,1.443944768991681,,psi_staircase_training,emotion,,94.0364297299192,94.0364297299192,20.35501180926307,391.2155063,1001,26,female,True
39,112.0,25,M,up,0.5322564999999031,1.6166735014730889,,psi_staircase_training,emotion,,95.01803218918133,95.01803218918133,18.924989128148997,393.7154286,1001,26,female,True
40,79.0,25,M,down,0.6430608999999095,1.1734735718312903,,psi_staircase_training,emotion,,94.1933845378453,94.1933845378453,17.602839335268634,395.7656041999999,1001,26,female,True
41,110.0,25,M,up,0.7204578999999285,1.4414863651043686,,psi_staircase_training,emotion,,94.99016447695408,94.99016447695408,16.377328591318115,398.2152389,1001,26,female,True
42,82.0,25,M,down,0.7937904999998864,1.1132337978791715,,psi_staircase_training,emotion,,94.31762092373287,94.31762092373287,15.279677990153694,400.4318606,1001,26,female,True
43,87.0,25,F,up,0.5430066999999781,1.6510601626554506,,psi_staircase_training,emotion,,95.0482682179805,95.0482682179805,14.267245032377929,403.2317168,1001,26,female,True
44,107.0,25,F,up,0.5886508000000958,1.2321460045694808,,psi_staircase_training,emotion,,92.70841818800878,92.70841818800878,16.318036405827826,405.3650052999999,1001,26,female,True
45,77.0,25,F,down,0.8530872999999701,0.6840481005912558,,psi_staircase_training,emotion,,92.1037539367522,92.1037539367522,15.327648837907669,406.98161099999993,1001,26,female,True
46,103.0,25,M,up,0.5774996999998621,0.9260514802475872,,psi_staircase_training,emotion,,92.58792618739508,92.58792618739508,14.412127317177362,409.09817669999984,1001,26,female,True
47,99.0,25,M,down,0.6189469999999346,1.928742844946212,,psi_staircase_training,emotion,,91.9280508896183,91.9280508896183,13.586354501535135,411.9647493999999,1001,26,female,True
48,78.0,25,F,down,0.7106597000001784,0.7344950287945043,,psi_staircase_training,emotion,,93.81992370401656,93.81992370401656,15.28117041513658,413.6980179,1001,26,female,True
49,109.0,25,F,down,0.814063699999906,0.9160219055013524,,psi_staircase_training,emotion,,94.22030106626462,94.22030106626462,14.50969173423551,415.6646231999998,1001,26,female,True
50,116.0,25,M,up,0.5338490999999976,0.8968465651674573,,psi_staircase_training,emotion,,96.31536304096812,96.31536304096812,18.33330718430089,417.7478346999999,1001,26,female,True
51,77.0,25,M,down,0.6105878999999277,1.9032282633051765,,psi_staircase_training,emotion,,95.90978755886876,95.90978755886876,17.45703441750004,420.5310935,1001,26,female,True
52,0.29,25,up,up,0.4882580999999391,1.996948458009,,psi_staircase_training,cRDM,,0.25,0.2569312402994632,0.105,428.9474098999999,1001,26,female,True
53,0.25,25,up,up,0.510906900000009,0.665503034427264,,psi_staircase_training,cRDM,,0.2191026665318312,0.2260132002683492,0.1046863203387393,430.3808001,1001,26,female,True
54,0.21,25,down,down,0.5766736999999011,0.4635209862199894,,psi_staircase_training,cRDM,,0.1900540959403307,0.1968497961554001,0.1029467298424999,431.6140039,1001,26,female,True
55,0.18,25,down,down,0.7413977000001069,1.3343240567345018,,psi_staircase_training,cRDM,,0.1635257589279754,0.1701521334256793,0.1003816477568649,433.7972814,1001,26,female,True
56,0.15,25,up,up,0.7122208000000683,1.6775284372295542,,psi_staircase_training,cRDM,,0.1401895574244936,0.1466013351187503,0.0971307628663642,436.480491,1001,26,female,True
57,0.13,25,down,up,0.6329414000001634,0.9566214812348792,,psi_staircase_training,cRDM,,0.1198760602145479,0.1260554767618333,0.0936107694196103,438.4137590999999,1001,26,female,True
58,0.21,25,up,down,0.819254600000022,0.7509144237018923,,psi_staircase_training,cRDM,,0.1822197442013377,0.1893568545454257,0.1081186849325176,440.0804381,1001,26,female,True
59,0.31,25,down,down,0.7280344000000696,0.5948992603426237,,psi_staircase_training,cRDM,,0.2578325595776454,0.2659708713261456,0.1232856886607567,441.7636559,1001,26,female,True
60,0.28,25,down,down,0.743138799999997,1.2564053133936068,,psi_staircase_training,cRDM,,0.2374850205332603,0.2455811113209631,0.1226460916056582,444.0135427,1001,26,female,True
61,0.26,25,up,up,0.5068536000001131,1.3690781820427345,,psi_staircase_training,cRDM,,0.2191550730521252,0.2271473713400003,0.1210737593806786,446.3967843999999,1001,26,female,True
62,0.25,25,down,down,0.4205802999999832,0.7585025848429643,,psi_staircase_training,cRDM,,0.2029799814349386,0.2108502760434667,0.1192255495685884,447.9300533999999,1001,26,female,True
63,0.2,25,down,down,0.4376819000001433,1.758442439340936,,psi_staircase_training,cRDM,,0.1891193598581445,0.1968473813665315,0.1170702822759534,450.38000939999984,1001,26,female,True
64,0.2,25,down,down,0.427746500000012,0.6494348487089856,,psi_staircase_training,cRDM,,0.173389421100577,0.181408777596316,0.1214836588651805,451.7299301999999,1001,26,female,True
65,0.19,25,up,up,0.4985615000000507,0.5418985170349974,,psi_staircase_training,cRDM,,0.1592036439708341,0.1673687313745874,0.12369130781117,452.9632297999999,1001,26,female,True
66,0.19,25,up,up,0.7769244999999501,1.6956380162649494,,psi_staircase_training,cRDM,,0.1465233144840412,0.1547461393688575,0.1245659615888032,455.4297695,1001,26,female,True
67,0.18,25,down,down,0.4353380000000015,1.4032069173651505,,psi_staircase_training,cRDM,,0.1358492135201888,0.1440166261121874,0.1237265316319008,457.8963449,1001,26,female,True
68,0.18,25,down,down,0.4771089000000756,1.9254028879676368,,psi_staircase_training,cRDM,,0.1266541803178604,0.1347116840925183,0.1220615445124,460.52958709999984,1001,26,female,True
69,0.17,25,up,up,0.5138086000001749,1.7861457020636469,,psi_staircase_training,cRDM,,0.1191770505901601,0.1270554005462345,0.1193475784488203,463.0628626,1001,26,female,True
70,0.12,25,up,down,0.367145199999868,1.9634766026452648,,psi_staircase_training,cRDM,,0.112604755607821,0.1203006841259469,0.1165841118602957,465.8293993,1001,26,female,True
71,0.18,25,up,up,0.4169036000000687,1.505135659460942,,psi_staircase_training,cRDM,,0.1366150686515542,0.1433860152336833,0.102571741911561,468.0293001999999,1001,26,female,True
72,0.18,25,up,up,0.5041116999998394,0.6691179389242303,,psi_staircase_training,cRDM,,0.1316049861348459,0.1380384821706203,0.0974597697627978,469.4125898,1001,26,female,True
73,0.16,25,down,down,0.4169555999999375,1.4154128664187642,,psi_staircase_training,cRDM,,0.127899867939206,0.1339733502854495,0.0920059929829512,471.6125015,1001,26,female,True
74,0.16,25,down,down,0.478150899999946,0.4491566550070532,,psi_staircase_training,cRDM,,0.1236162700747748,0.1294989085364943,0.0891149364029954,472.7624722999999,1001,26,female,True
75,0.12,25,down,up,0.8106359000000793,1.7220710666375627,,psi_staircase_training,cRDM,,0.1202828790142658,0.1259319774764068,0.0855770847492817,475.2290533,1001,26,female,True
76,0.16,25,up,up,0.7110095999998975,0.9763165989359834,,psi_staircase_training,cRDM,,0.1359318310012048,0.1401126177306994,0.0633339182643734,477.2956446999999,1001,26,female,True
77,0.16,25,up,up,0.7558208000000377,1.109576746871328,,psi_staircase_training,cRDM,,0.1334776767596583,0.1373764228426355,0.0590613398217194,479.3788831,1001,26,female,True
78,0.15,25,down,down,0.4291630000000168,0.9439343059591015,,psi_staircase_training,cRDM,,0.1317193520784589,0.1353337405339986,0.0547536618894971,481.34551149999993,1001,26,female,True
79,0.15,25,down,down,0.4899026000000503,0.7945028910752924,,psi_staircase_training,cRDM,,0.1292943652968673,0.1327962158575306,0.0530488473899993,482.82876739999983,1001,26,female,True
80,0.15,25,up,up,0.4535705999999209,1.8613799656648635,,psi_staircase_training,cRDM,,0.1273851304078923,0.1307475160685866,0.0509361209710538,485.4620808999998,1001,26,female,True
81,0.14,25,up,up,0.6500575000000026,0.64846643683654,,psi_staircase_training,cRDM,,0.1259323377015394,0.1291382427382455,0.0485656266859203,486.8286225,1001,26,female,True
82,100.0,25,M,up,0.619791700000178,0.8288001969543104,,psi_staircase,emotion,,100.0,100.0,25.00050000000001,514.3609388,1001,26,female,True
83,55.0,25,M,down,0.5004519999999957,0.7541443039744703,,psi_staircase,emotion,,54.7428094675419,54.7428094675419,25.00050000000011,516.0942178999999,1001,26,female,True
84,79.0,25,F,down,0.623848100000032,1.2753136606425954,,psi_staircase,emotion,,79.636070985635,79.636070985635,25.713269254886413,518.2107933,1001,26,female,True
85,103.0,25,F,down,0.5156486000000768,1.670799653681864,,psi_staircase,emotion,,97.61123893914808,97.61123893914808,26.1463337262867,520.8609666999998,1001,26,female,True
86,127.0,25,M,up,0.8723368000000846,0.5861378280885442,,psi_staircase,emotion,,117.15641007867752,117.15641007867752,31.432291447829705,522.3273042999999,1001,26,female,True
87,116.0,25,F,up,0.4471340000000054,1.4748013089571912,,psi_staircase,emotion,,105.03864224082596,105.03864224082596,29.694064005485792,525.0105397999998,1001,26,female,True
88,88.0,25,M,up,1.0399222999999438,1.2399956948021822,,psi_staircase,emotion,,98.16151255584974,98.16151255584974,27.875884705401127,527.0607372,1001,26,female,True
89,74.0,25,F,down,0.4699677999999494,1.105116603949351,,psi_staircase,emotion,,88.18732141252634,88.18732141252634,31.080646395593384,529.5937159,1001,26,female,True
90,76.0,25,F,up,0.5589889999998832,0.8957410993117967,,psi_staircase,emotion,,92.88252185135836,92.88252185135836,29.457244424775983,531.2936551,1001,26,female,True
91,65.0,25,M,down,0.6190905999999359,0.6358993252446428,,psi_staircase,emotion,,84.51084486048862,84.51084486048862,33.104231703733696,532.8435814,1001,26,female,True
92,106.0,25,F,up,0.5548518999999033,1.507624354610321,,psi_staircase,emotion,,87.77817366240168,87.77817366240168,31.880829427274104,535.3268185,1001,26,female,True
93,64.0,25,F,down,0.4792772000000695,1.7886761120314223,,psi_staircase,emotion,,84.90636884562544,84.90636884562544,30.69642881397165,538.0433965,1001,26,female,True
94,107.0,25,F,up,0.5956550999999308,1.2835886324278527,,psi_staircase,emotion,,87.23871846198499,87.23871846198499,29.35893538862893,540.1599974999999,1001,26,female,True
95,64.0,25,M,down,0.5130977000001167,1.195267074605946,,psi_staircase,emotion,,85.15302648438887,85.15302648438887,28.050273835805807,542.2765761999999,1001,26,female,True
96,105.0,25,M,up,0.6595618000001195,1.9251679381923463,,psi_staircase,emotion,,86.88252861696476,86.88252861696476,26.663625617831457,545.0600732999999,1001,26,female,True
97,65.0,25,F,down,0.5539668999999776,1.6566827936547874,,psi_staircase,emotion,,85.1724164157794,85.1724164157794,25.30253310286181,547.7097019,1001,26,female,True
98,102.0,25,F,up,0.5297453999999107,1.5315586472159377,,psi_staircase,emotion,,86.50552554629385,86.50552554629385,23.925703853954435,550.1429438,1001,26,female,True
99,66.0,25,M,down,0.5164235999998255,0.6252909975978824,,psi_staircase,emotion,,85.00724759387074,85.00724759387074,22.572194063922147,551.6761973999999,1001,26,female,True
100,95.0,25,M,down,0.6958517999999003,1.8877599528659923,,psi_staircase,emotion,,86.0363252199022,86.0363252199022,21.2650918995697,554.4580126999999,1001,26,female,True
101,111.0,25,M,down,0.7019586000001254,0.3509199844733632,,psi_staircase,emotion,,89.54614814193957,89.54614814193957,23.888688880306557,555.8746549999998,1001,26,female,True
102,120.0,25,M,up,0.7310734999998658,1.2195542325891884,,psi_staircase,emotion,,93.68483447749466,93.68483447749466,29.124364928004177,558.1415221,1001,26,female,True
103,119.0,25,F,up,0.4710794999998597,1.5560230125835053,,psi_staircase,emotion,,92.65070429036548,92.65070429036548,28.04236414254268,560.7925938999999,1001,26,female,True
104,67.0,25,F,down,0.7798961000000872,1.7905190356496177,,psi_staircase,emotion,,91.78134052341132,91.78134052341132,27.03500875922326,563.4257886,1001,26,female,True
105,118.0,25,F,up,0.5882971999999427,0.8857266590233037,,psi_staircase,emotion,,92.62531522203744,92.62531522203744,26.039584439318293,565.4423754,1001,26,female,True
106,68.0,25,M,down,0.6060374000001048,1.2360486979257157,,psi_staircase,emotion,,91.89021102381082,91.89021102381082,25.08078599850672,567.6256246,1001,26,female,True
107,117.0,25,M,up,0.4897443999998359,1.925820359992016,,psi_staircase,emotion,,92.6141124420014,92.6141124420014,24.144171186704373,570.5088879,1001,26,female,True
108,70.0,25,F,down,0.4814802999999301,1.5895291144406818,,psi_staircase,emotion,,91.98807750228886,91.98807750228886,23.26111987898552,572.9421688999998,1001,26,female,True
109,115.0,25,F,up,0.6532952000000023,1.3009447845618534,,psi_staircase,emotion,,92.646445472056,92.646445472056,22.394755923311514,575.0753763999999,1001,26,female,True
110,72.0,25,M,down,0.4950687000000471,1.4828818507482848,,psi_staircase,emotion,,92.07873277797384,92.07873277797384,21.590677435784023,577.5586295999999,1001,26,female,True
111,73.0,25,M,down,0.9615112999999836,1.0563350285256752,,psi_staircase,emotion,,92.68937314388673,92.68937314388673,20.806435508417557,579.4752040999999,1001,26,female,True
112,113.0,25,F,up,0.4634926999999607,0.3299670398576828,,psi_staircase,emotion,,93.23424066233147,93.23424066233147,20.09628418432056,581.125145,1001,26,female,True
113,75.0,25,M,up,0.5418766999998752,0.9863276417340516,,psi_staircase,emotion,,92.709619646543,92.709619646543,19.39589500877707,582.9417286999999,1001,26,female,True
114,113.0,25,F,up,0.5466352000000825,0.5033447858456433,,psi_staircase,emotion,,90.34431855963707,90.34431855963707,22.224541678096507,584.3250208,1001,26,female,True
115,67.0,25,M,down,0.610445000000027,1.785971362840835,,psi_staircase,emotion,,89.87716820155939,89.87716820155939,21.542188746634597,587.0082502999999,1001,26,female,True
116,111.0,25,F,up,0.5432186000000456,1.0881977289106253,,psi_staircase,emotion,,90.30859126675595,90.30859126675595,20.897206533104185,589.0584446,1001,26,female,True
117,69.0,25,M,down,0.7695599999999558,1.2438563835933163,,psi_staircase,emotion,,89.85787195465502,89.85787195465502,20.28550628805537,591.2080923999999,1001,26,female,True
118,110.0,25,F,up,0.6633085999999366,1.7657962074302735,,psi_staircase,emotion,,90.2729587248858,90.2729587248858,19.711030525900043,594.0913416999999,1001,26,female,True
119,70.0,25,M,down,0.582088499999827,1.3690682238091116,,psi_staircase,emotion,,89.85540889146006,89.85540889146006,19.17192011978658,596.4745634999999,1001,26,female,True
120,108.0,25,M,up,0.4341415000001234,0.8153344043278039,,psi_staircase,emotion,,90.2382784125962,90.2382784125962,18.66969288444035,598.2245192999999,1001,26,female,True
121,72.0,25,F,down,0.5312083999999686,1.0559485726305755,,psi_staircase,emotion,,89.8188428904931,89.8188428904931,18.188860694778977,600.0744941999999,1001,26,female,True
122,106.0,25,F,down,0.8579506999999467,1.0356280696145042,,psi_staircase,emotion,,90.20344855612171,90.20344855612171,17.743681240422717,601.9910344999998,1001,26,female,True
123,72.0,25,F,down,0.5057014999999865,0.6068273233776296,,psi_staircase,emotion,,92.02571457479908,92.02571457479908,19.57236626476792,603.7909886,1001,26,female,True
124,112.0,25,M,down,0.5650554999999713,0.9552592246958812,,psi_staircase,emotion,,92.3675928131371,92.3675928131371,19.116058638863315,605.6075586,1001,26,female,True
125,118.0,25,M,down,0.6184791000000587,1.138032426197847,,psi_staircase,emotion,,94.1826549723876,94.1826549723876,21.47920614027252,607.6741617999999,1001,26,female,True
126,124.0,25,F,down,0.6015669999999318,1.0259831835468562,,psi_staircase,emotion,,96.11114705724243,96.11114705724243,24.574428336045003,609.6740981,1001,26,female,True
127,129.0,25,F,up,0.7289871000000403,1.9633046023076604,,psi_staircase,emotion,,98.23951490999828,98.23951490999828,28.28575407031066,612.5906424999998,1001,26,female,True
128,129.0,25,F,up,0.5427551000000221,1.464788629394927,,psi_staircase,emotion,,97.84891915572332,97.84891915572332,27.64794935969618,615.1238833,1001,26,female,True
129,128.0,25,M,up,0.4711801000000832,1.3106872448371931,,psi_staircase,emotion,,97.5043468467922,97.5043468467922,27.055057056543987,617.3404452,1001,26,female,True
130,127.0,25,M,up,0.5695713000000069,1.837168328844957,,psi_staircase,emotion,,97.1858966926153,97.1858966926153,26.49445292609424,620.0070337999998,1001,26,female,True
131,68.0,25,M,down,1.3766537000001335,1.8284619972856464,,psi_staircase,emotion,,96.88972808917951,96.88972808917951,25.964918784550733,622.7569916999998,1001,26,female,True
132,0.29,25,up,up,0.4220262999999704,0.5039197266378258,,psi_staircase,cRDM,,0.25,0.2569312402994632,0.105,630.6066274,1001,26,female,True
133,0.25,25,up,up,0.499048299999913,1.561657332713078,,psi_staircase,cRDM,,0.2191026665318312,0.2260132002683492,0.1046863203387393,632.8565896,1001,26,female,True
134,0.21,25,down,down,0.4168862999999874,1.6672641536456752,,psi_staircase,cRDM,,0.1900540959403307,0.1968497961554001,0.1029467298424999,635.2897851,1001,26,female,True
135,0.18,25,down,up,0.7769419000001108,1.6774437842629897,,psi_staircase,cRDM,,0.1635257589279754,0.1701521334256793,0.1003816477568649,637.6397121,1001,26,female,True
136,0.28,25,up,up,0.957675399999971,0.9427894259166096,,psi_staircase,cRDM,,0.2462894156509761,0.253676874431043,0.111911164292932,639.6229856,1001,26,female,True
137,0.26,25,down,down,0.4551128999999037,1.8519769373986008,,psi_staircase,cRDM,,0.224020924517144,0.2312720210897802,0.1098454399547734,642.6895192,1001,26,female,True
138,0.23,25,up,up,0.4328706999999667,0.6186974352369706,,psi_staircase,cRDM,,0.2047781477371871,0.211824604656558,0.106745393979666,644.022786,1001,26,female,True
139,0.23,25,down,down,0.4868701999998848,0.360669671615647,,psi_staircase,cRDM,,0.1874201716315257,0.1943184465858974,0.1045006144520947,645.0727657999998,1001,26,female,True
140,0.21,25,down,up,1.0197134000000003,1.111791984513859,,psi_staircase,cRDM,,0.1734597158637905,0.1801271287888497,0.1010033308447589,646.9398913,1001,26,female,True
141,0.26,25,up,up,0.5976892000001044,1.5709835914609358,,psi_staircase,cRDM,,0.2258097884912943,0.2328763215733389,0.1070495238308419,649.8059423,1001,26,female,True
142,0.25,25,down,down,0.4281006000001071,0.7044596169200008,,psi_staircase,cRDM,,0.212450835613729,0.2191858551365866,0.102027489936369,651.3725181,1001,26,female,True
143,0.25,25,down,down,0.9835359000001064,1.7677963545278377,,psi_staircase,cRDM,,0.2017939937751558,0.2081851447054985,0.0968182920649778,653.8390858,1001,26,female,True
144,0.23,25,down,down,0.5279195999999047,0.3576005866167074,,psi_staircase,cRDM,,0.1938748209560492,0.1999007112534839,0.0912850303688999,655.4557302999999,1001,26,female,True
145,0.2,25,up,up,0.5553685000002133,1.827194567779484,,psi_staircase,cRDM,,0.1859863450174034,0.1918446053558967,0.0887456369950739,658.0722753999999,1001,26,female,True
146,0.19,25,up,up,0.5854451999998673,1.9725393488674232,,psi_staircase,cRDM,,0.1735581359363531,0.1800187838692573,0.0978710885276143,660.8721862999998,1001,26,female,True
147,0.19,25,down,down,0.6258978999999272,1.314027038555316,,psi_staircase,cRDM,,0.1601739738030281,0.1672905846524184,0.1078081421075319,663.0397456999999,1001,26,female,True
148,0.18,25,down,down,0.6789507000000867,1.317032343809751,,psi_staircase,cRDM,,0.1473683420222076,0.1549896280021313,0.1154533666873385,665.2386598999999,1001,26,female,True
149,0.17,25,up,up,0.6383160000000316,1.6733026098520327,,psi_staircase,cRDM,,0.1349669468861355,0.1430212750370733,0.1220134376114408,667.8552797,1001,26,female,True
150,0.17,25,up,up,0.5861204000000271,1.3701407916641553,,psi_staircase,cRDM,,0.1234307798863452,0.1318099046122844,0.1269337172297641,670.1385163,1001,26,female,True
151,0.16,25,up,up,0.8798555000000761,1.3458274341075005,,psi_staircase,cRDM,,0.1133978764595028,0.121952962690644,0.1295993235639774,672.3217817,1001,26,female,True
152,0.15,25,up,down,0.6599621000000297,1.3649814244699323,,psi_staircase,cRDM,,0.1044236278137324,0.1130612856725379,0.1308501849582116,674.8216666999999,1001,26,female,True
153,0.19,25,down,down,0.8004261000000952,1.3976028621918244,,psi_staircase,cRDM,,0.1351477218411058,0.1437851435767619,0.1308466079749267,677.1382206999999,1001,26,female,True
154,0.16,25,down,down,0.6050967999999557,1.008453056503819,,psi_staircase,cRDM,,0.1272555546514814,0.1360068239128897,0.132571261815729,679.2215174999999,1001,26,female,True
155,0.15,25,down,up,0.5998286999999891,1.5727813382302285,,psi_staircase,cRDM,,0.1186888773653088,0.127680665149673,0.1362148297515159,681.6547682999999,1001,26,female,True
156,0.19,25,up,up,0.539957700000059,0.3012151131247876,,psi_staircase,cRDM,,0.1443903132565781,0.1527521892643087,0.1266724197802969,682.8046932,1001,26,female,True
157,0.19,25,up,up,0.6217144000002008,1.932241567829512,,psi_staircase,cRDM,,0.1376537570758602,0.1460629553274021,0.1273892951713522,685.5379062,1001,26,female,True
158,0.14,25,down,down,0.6444688999999926,1.8863333623008107,,psi_staircase,cRDM,,0.1320197666839435,0.140396134303392,0.1268919503642372,688.3211604999999,1001,26,female,True
159,0.14,25,down,down,0.5541496999999254,1.2232984768292516,,psi_staircase,cRDM,,0.1238121123438879,0.1326418221054949,0.1337595415701471,690.4544463,1001,26,female,True
160,0.14,25,up,up,0.6013712000001306,1.4398543882135515,,psi_staircase,cRDM,,0.1161809903061894,0.1253526700207729,0.1389399773235156,692.7043082,1001,26,female,True
161,0.14,25,up,up,0.5617136999999275,1.901808093572808,,psi_staircase,cRDM,,0.1092137682375399,0.1186313981688593,0.1426658289231587,695.4708925999998,1001,26,female,True
162,0.14,25,down,up,0.8923792000000503,0.7510930148800863,,psi_staircase,cRDM,,0.1029125924245207,0.1124982840059464,0.1452117619017827,697.0544599,1001,26,female,True
163,0.14,25,up,up,0.4932272000000921,0.8359203112281222,,psi_staircase,cRDM,,0.1224648081338751,0.1316814304990384,0.1396208047233747,699.0374127999999,1001,26,female,True
164,0.14,25,down,down,0.6895948999999746,1.3183985868565973,,psi_staircase,cRDM,,0.1158852025354246,0.1253575467812676,0.143494685343766,701.1040292,1001,26,female,True
165,0.14,25,up,up,0.7050091999999495,1.807238846261996,,psi_staircase,cRDM,,0.1098502821620222,0.1195082925584427,0.1463073054475802,703.8706133999999,1001,26,female,True
166,0.14,25,down,up,1.318075399999998,0.6393980259655994,,psi_staircase,cRDM,,0.104334549165235,0.1141234937683126,0.1482908020665139,705.4705463999999,1001,26,female,True
167,0.14,25,up,down,1.0295611999999892,1.6411568988848877,,psi_staircase,cRDM,,0.1216106555361098,0.1310942561136074,0.1436652053045051,708.6870721999999,1001,26,female,True
168,0.2,25,down,down,0.5509461999999985,1.5783430404311372,,psi_staircase,cRDM,,0.1386568076245007,0.147582061289368,0.1352069174233708,711.5536611,1001,26,female,True
169,0.2,25,up,up,0.5087316999999985,1.7650592136637966,,psi_staircase,cRDM,,0.1349669123941038,0.1437637376175465,0.1332613801505342,714.1368811999998,1001,26,female,True
170,0.14,25,up,up,0.5757662999999411,0.834910542040513,,psi_staircase,cRDM,,0.1318287447258378,0.1404711544514626,0.1309221700567612,715.7368283999999,1001,26,female,True
171,0.14,25,down,down,0.7245505999999295,1.8879635920263296,,psi_staircase,cRDM,,0.1258313154017534,0.1348385829093985,0.1364493290437463,718.470067,1001,26,female,True
172,0.14,25,down,down,0.5129998999998406,0.3829942368033814,,psi_staircase,cRDM,,0.1202159999827433,0.1295035693349408,0.1406955667164301,719.8366424999999,1001,26,female,True
173,0.13,25,down,down,0.9333447999999862,1.198143013038956,,psi_staircase,cRDM,,0.115002347913158,0.1245012403343377,0.1438968584455378,721.803246,1001,26,female,True
174,0.13,25,up,up,0.5214508999999907,1.286293710667251,,psi_staircase,cRDM,,0.1099770364387659,0.1196617944400435,0.1467124996680466,724.3031669,1001,26,female,True
175,0.13,25,up,up,0.5822135999999318,1.9390411519765267,,psi_staircase,cRDM,,0.1052957604043629,0.1151215341789513,0.1488487199631026,727.0363906999999,1001,26,female,True
176,0.13,25,down,up,0.7189095999999608,0.3484847871510289,,psi_staircase,cRDM,,0.1009324007305253,0.1108649809715073,0.1504667101765143,728.2196928999999,1001,26,female,True
177,0.13,25,down,up,1.414083199999823,1.933650234398241,,psi_staircase,cRDM,,0.1143259982090295,0.1239927328315482,0.1464394670378202,731.1365498,1001,26,female,True
178,0.13,25,down,down,0.5941483999999946,0.704903829063962,,psi_staircase,cRDM,,0.1276469927169408,0.1369029109039535,0.1402160894222056,733.5194695,1001,26,female,True
179,0.13,25,up,up,0.692905699999983,1.5242726856565862,,psi_staircase,cRDM,,0.1228457261565395,0.1323190870754005,0.1435100867239339,735.9027182999998,1001,26,female,True
180,0.13,25,up,up,0.5844074999999975,1.5611596491422124,,psi_staircase,cRDM,,0.118285593283112,0.1279298347139776,0.1460987220886432,738.436228,1001,26,female,True
181,0.13,25,up,up,0.6287525000000187,1.8994537750791445,,psi_staircase,cRDM,,0.1139634442541524,0.1237423882070444,0.1481393041780944,741.1858694,1001,26,female,True
182,107.0,25,F,up,1.0397382000001016,1.8761673841852675,,experiment,emotion,0.0,,,,749.3188946999999,1001,26,female,True
183,87.0,25,M,up,1.039809500000047,0.623125543654375,,experiment,emotion,0.0,,,,751.2688060999999,1001,26,female,True
184,100.0,25,F,up,0.5445427999998174,0.8904630300066547,,experiment,emotion,0.0,,,,753.5020612999999,1001,26,female,True
185,107.0,25,M,up,0.6010008000000653,1.5935438195075904,,experiment,emotion,0.0,,,,755.9186431999999,1001,26,female,True
186,100.0,25,F,up,0.5090540000001056,0.5497681414406399,,experiment,emotion,0.0,,,,757.3355386999999,1001,26,female,True
187,93.0,25,F,up,0.5587318000000323,1.536695282573058,,experiment,emotion,0.0,,,,759.6518779999999,1001,26,female,True
188,87.0,25,M,up,0.6408419000001686,0.3714795178027618,,experiment,emotion,0.0,,,,760.8518277999999,1001,26,female,True
189,93.0,25,F,up,0.6318638000000192,1.9369461920209177,,experiment,emotion,0.0,,,,763.7017168,1001,26,female,True
190,107.0,25,M,up,0.4429589000001215,1.649201009633515,,experiment,emotion,0.0,,,,766.2516361,1001,26,female,True
191,93.0,25,M,up,0.4001710999998522,0.7971829662780386,,experiment,emotion,0.0,,,,767.7682245999999,1001,26,female,True
192,100.0,25,F,up,0.6494502000000466,0.9014004445826864,,experiment,emotion,0.0,,,,769.3681637999998,1001,26,female,True
193,107.0,25,M,up,0.5531780000001163,1.075194306444584,,experiment,emotion,0.0,,,,771.3514375999998,1001,26,female,True
194,100.0,25,M,up,0.7336104999999407,1.3385185769529304,,experiment,emotion,0.0,,,,773.5179926999999,1001,26,female,True
195,87.0,25,M,down,0.6403023000000303,0.7650824799741529,,experiment,emotion,0.0,,,,775.3012732,1001,26,female,True
196,93.0,25,F,down,1.0714308999999955,1.9417921200005683,,experiment,emotion,0.0,,,,778.1511836,1001,26,female,True
197,87.0,25,F,up,0.6279293000000052,1.9375721988930417,,experiment,emotion,0.0,,,,781.4177013999999,1001,26,female,True
198,107.0,25,M,up,0.4806083999999373,0.5198795683446067,,experiment,emotion,0.0,,,,782.8510243999999,1001,26,female,True
199,87.0,25,M,up,0.720041700000138,1.5695495228523069,,experiment,emotion,0.0,,,,785.167569,1001,26,female,True
200,100.0,25,F,up,0.4528046000000358,0.8131407404787969,,experiment,emotion,0.0,,,,787.0008516999999,1001,26,female,True
201,100.0,25,F,up,0.4358558999999786,0.3368804405180965,,experiment,emotion,0.0,,,,788.05081,1001,26,female,True
202,93.0,25,M,up,0.8349623000001429,1.488015192231624,,experiment,emotion,0.0,,,,790.2346531999999,1001,26,female,True
203,93.0,25,F,up,0.6146202999998422,0.9483298495379608,,experiment,emotion,0.0,,,,792.2839908999997,1001,26,female,True
204,87.0,25,M,up,0.4579942000000301,0.8829944414779474,,experiment,emotion,0.0,,,,794.0505995999999,1001,26,female,True
205,107.0,25,F,up,0.6271523000000343,1.4166428244728542,,experiment,emotion,0.0,,,,796.2005103999998,1001,26,female,True
206,100.0,25,F,up,0.4861863999999514,1.2481352219051118,,experiment,emotion,0.0,,,,798.3504417000001,1001,26,female,True
207,87.0,25,M,down,1.0479973999999856,1.9746051363225143,,experiment,emotion,0.0,,,,801.0836644999997,1001,26,female,True
208,107.0,25,M,up,0.6407023000001573,1.6087556326691803,,experiment,emotion,0.0,,,,804.0168950999998,1001,26,female,True
209,107.0,25,F,up,0.6308217999999215,0.4835155560276616,,experiment,emotion,0.0,,,,805.4168324,1001,26,female,True
210,93.0,25,M,up,0.7548937000001388,0.6907786706597823,,experiment,emotion,0.0,,,,807.0167755,1001,26,female,True
211,87.0,25,F,up,0.8279121999999006,1.2291916604736208,,experiment,emotion,0.0,,,,809.2666966999998,1001,26,female,True
212,93.0,25,M,up,0.7186221000001751,1.4750315681398436,,experiment,emotion,0.0,,,,811.8499696000001,1001,26,female,True
213,100.0,25,F,up,0.698101499999666,0.5137376492664014,,experiment,emotion,0.0,,,,813.3665282999998,1001,26,female,True
214,87.0,25,M,up,0.6834209000003284,0.4111141909205811,,experiment,emotion,0.0,,,,814.7331496999998,1001,26,female,True
215,107.0,25,F,up,0.477523900000051,0.5385935988787885,,experiment,emotion,0.0,,,,816.2330768999998,1001,26,female,True
216,100.0,25,M,up,0.5456403000002865,1.5563718276865102,,experiment,emotion,0.0,,,,818.5330017999997,1001,26,female,True
217,107.0,25,F,up,0.4969654000001355,0.5003807641236286,,experiment,emotion,0.0,,,,819.8496616,1001,26,female,True
218,87.0,25,M,up,1.8186903000000711,1.5177555097235962,,experiment,emotion,0.0,,,,822.1328587999999,1001,26,female,True
219,100.0,25,F,down,1.6978141999998115,0.7427851124571436,,experiment,emotion,0.0,,,,824.9827693999998,1001,26,female,True
220,93.0,25,M,down,0.7855730000001131,1.757110806298493,,experiment,emotion,0.0,,,,828.7159705000001,1001,26,female,True
221,93.0,25,F,down,0.96607640000002,1.6246542276851312,,experiment,emotion,0.0,,,,831.3825313,1001,26,female,True
222,100.0,25,F,down,0.5737627000003158,0.3520579176599152,,experiment,emotion,0.0,,,,832.9658231000001,1001,26,female,True
223,107.0,25,M,up,1.4018534000001637,1.4496688450222426,,experiment,emotion,0.0,,,,835.2657060999998,1001,26,female,True
224,93.0,25,F,up,0.6286350999998831,1.655620654774301,,experiment,emotion,0.0,,,,838.5989306999998,1001,26,female,True
225,87.0,25,M,up,1.9544473000000837,1.429763807204645,,experiment,emotion,0.0,,,,840.9321656999998,1001,26,female,True
226,87.0,25,M,down,1.5758762999998908,0.9442872163337348,,experiment,emotion,0.0,,,,844.0987303999998,1001,26,female,True
227,93.0,25,F,up,0.7154410999996799,0.6757522084952017,,experiment,emotion,0.0,,,,846.6153002999997,1001,26,female,True
228,107.0,25,F,up,0.6099586999998792,0.3286638330788585,,experiment,emotion,0.0,,,,847.9486227999998,1001,26,female,True
229,100.0,25,M,up,0.4733780000001388,0.4243757095169367,,experiment,emotion,0.0,,,,849.2652213999997,1001,26,female,True
230,87.0,25,F,down,0.8660460999999486,0.7356292010425027,,experiment,emotion,0.0,,,,850.7485323999997,1001,26,female,True
231,107.0,25,M,up,0.7005183000001125,1.3954758911437732,,experiment,emotion,0.0,,,,853.2650535,1001,26,female,True
232,100.0,25,M,up,0.578914000000168,0.6332984971077303,,experiment,emotion,0.0,,,,854.8816621999997,1001,26,female,True
233,100.0,25,M,up,0.3835112000001572,0.8826435516856128,,experiment,emotion,0.0,,,,856.6149244000001,1001,26,female,True
234,87.0,25,M,up,0.4296915999998418,1.1708556555209555,,experiment,emotion,0.0,,,,858.4648774999998,1001,26,female,True
235,93.0,25,M,up,0.4717548000003262,0.3932635906314556,,experiment,emotion,0.0,,,,859.5648387999997,1001,26,female,True
236,107.0,25,F,up,0.5634838000000855,1.4477545694509777,,experiment,emotion,0.0,,,,861.7480748999999,1001,26,female,True
237,93.0,25,F,up,0.7406246000000465,1.3266754460166206,,experiment,emotion,0.0,,,,863.8979827000001,1001,26,female,True
238,93.0,25,F,up,0.5069862000000285,0.6041843419776519,,experiment,emotion,0.0,,,,865.5145878999999,1001,26,female,True
239,93.0,25,M,up,0.8891054999999142,1.5241654479724032,,experiment,emotion,0.0,,,,867.8145041,1001,26,female,True
240,107.0,25,F,up,0.7701679000001604,1.6961910280077954,,experiment,emotion,0.0,,,,870.6644097000001,1001,26,female,True
241,100.0,25,F,up,0.997549600000184,1.404133184503129,,experiment,emotion,0.0,,,,873.1310390000001,1001,26,female,True
242,87.0,25,F,up,0.4664950999999746,0.742903402019911,,experiment,emotion,0.0,,,,875.1642343000001,1001,26,female,True
243,87.0,25,M,up,0.6550968000001376,0.8606635807733429,,experiment,emotion,0.0,,,,876.7474790999997,1001,26,female,True
244,100.0,25,F,up,0.4288071999999374,1.2064465505242088,,experiment,emotion,0.0,,,,878.8807699000001,1001,26,female,True
245,107.0,25,M,up,0.5176107000002048,1.9767912964538583,,experiment,emotion,0.0,,,,881.5640157999999,1001,26,female,True
246,107.0,25,M,up,1.2842977000000246,0.9263151444257685,,experiment,emotion,0.0,,,,883.2972757,1001,26,female,True
247,87.0,25,F,up,1.4407218999999714,0.6620038248278957,,experiment,emotion,0.0,,,,885.5138423000001,1001,26,female,True
248,107.0,25,M,up,0.4261194000000614,1.097020286309384,,experiment,emotion,0.0,,,,888.3304532999998,1001,26,female,True
249,93.0,25,F,up,0.7179022000000259,0.5715319591325181,,experiment,emotion,0.0,,,,889.6136914000001,1001,26,female,True
250,100.0,25,M,up,0.4419523000001391,1.411349444289033,,experiment,emotion,0.0,,,,892.0136212,1001,26,female,True
251,93.0,25,F,up,0.8669806000002609,1.036847783439704,,experiment,emotion,0.0,,,,893.7635577999997,1001,26,female,True
252,87.0,25,M,up,0.5540760000003502,0.9751260810161556,,experiment,emotion,0.0,,,,895.8634792999999,1001,26,female,True
253,100.0,25,F,up,0.4554622000000563,0.9881659688635502,,experiment,emotion,0.0,,,,897.6800796,1001,26,female,True
254,93.0,25,F,down,1.1558391999997184,0.652887490091479,,experiment,emotion,0.0,,,,899.0467265,1001,26,female,True
255,100.0,25,F,up,0.5376784999998563,1.517167510811284,,experiment,emotion,0.0,,,,901.9799286,1001,26,female,True
256,87.0,25,F,up,0.7964336000000003,1.9227617413480087,,experiment,emotion,0.0,,,,904.7131302,1001,26,female,True
257,107.0,25,F,up,0.4205704000000878,1.1753553482009629,,experiment,emotion,0.0,,,,906.9630587,1001,26,female,True
258,100.0,25,M,up,0.2668404999999438,1.4096855491536524,,experiment,emotion,0.0,,,,909.0629923,1001,26,female,True
259,107.0,25,M,up,0.383519299999989,0.799101744920123,,experiment,emotion,0.0,,,,910.5462707,1001,26,female,True
260,87.0,25,M,up,0.6809997999998814,1.501486127956082,,experiment,emotion,0.0,,,,912.7295432999996,1001,26,female,True
261,93.0,25,M,up,0.4707895000001372,0.8728842541020563,,experiment,emotion,0.0,,,,914.5627705999998,1001,26,female,True
262,0.1098675282440079,25,up,up,0.7391452000001664,0.7790627864080744,,experiment,cRDM,0.0,,,,924.812408,1001,26,female,True
263,0.1098675282440079,25,up,up,0.7169205000000147,1.193430991556388,,experiment,cRDM,0.0,,,,926.9956577,1001,26,female,True
264,0.1098675282440079,25,down,down,0.63365019999992,0.8150325624002948,,experiment,cRDM,0.0,,,,928.7789242,1001,26,female,True
265,0.1098675282440079,25,down,up,0.4557033000000956,1.5658473681581386,,experiment,cRDM,0.0,,,,931.2288576,1001,26,female,True
266,0.1098675282440079,25,up,up,0.4601529999999911,0.9619379628566588,,experiment,cRDM,0.0,,,,932.895455,1001,26,female,True
267,0.1098675282440079,25,down,down,0.6191790999996556,1.4248845293562915,,experiment,cRDM,0.0,,,,935.0453827999996,1001,26,female,True
268,0.1098675282440079,25,up,up,0.5269029999999475,1.3071786391223084,,experiment,cRDM,0.0,,,,937.2286575,1001,26,female,True
269,0.1098675282440079,25,up,up,0.4913233000002037,1.1415498533748991,,experiment,cRDM,0.0,,,,939.1452329,1001,26,female,True
270,0.1098675282440079,25,down,up,0.900034400000095,0.5335440296857895,,experiment,cRDM,0.0,,,,940.4285211,1001,26,female,True
271,0.1098675282440079,25,down,up,0.6798701000002438,1.077019552965622,,experiment,cRDM,0.0,,,,942.6617322999998,1001,26,female,True
272,0.1098675282440079,25,down,down,0.5561940000002323,1.2787176800396465,,experiment,cRDM,0.0,,,,944.8783235999996,1001,26,female,True
273,0.1098675282440079,25,down,down,0.5263009999998758,0.8298001542028788,,experiment,cRDM,0.0,,,,946.5282885,1001,26,female,True
274,0.1098675282440079,25,down,down,0.4300590000002557,0.5941567151460542,,experiment,cRDM,0.0,,,,947.9115172999998,1001,26,female,True
275,0.1098675282440079,25,down,down,0.6061140000001615,1.955137466794212,,experiment,cRDM,0.0,,,,950.5614899,1001,26,female,True
276,0.1098675282440079,25,up,down,0.8708062999999129,0.309854847165123,,experiment,cRDM,0.0,,,,951.7447664,1001,26,female,True
277,0.1098675282440079,25,up,up,0.7205298999997467,0.9485729098115931,,experiment,cRDM,0.0,,,,953.8280277,1001,26,female,True
278,0.1098675282440079,25,up,up,0.6449701999999888,1.52387578517962,,experiment,cRDM,0.0,,,,956.3445842999996,1001,26,female,True
279,0.1098675282440079,25,up,up,0.7010726999997132,1.743906852306939,,experiment,cRDM,0.0,,,,958.9944573,1001,26,female,True
280,0.1098675282440079,25,down,up,0.8928212000000713,0.6273136567575375,,experiment,cRDM,0.0,,,,960.5777329,1001,26,female,True
281,0.1098675282440079,25,up,up,0.5469284000000698,0.3424341780545095,,experiment,cRDM,0.0,,,,962.0776737,1001,26,female,True
282,0.1098675282440079,25,up,up,0.4469736999999441,1.7227087449927487,,experiment,cRDM,0.0,,,,964.6275964999998,1001,26,female,True
283,0.1098675282440079,25,down,up,0.5577353999997285,1.3338645068352144,,experiment,cRDM,0.0,,,,966.6608169999996,1001,26,female,True
284,0.1098675282440079,25,up,up,0.7341154000000643,0.9902196915826502,,experiment,cRDM,0.0,,,,968.4774357,1001,26,female,True
285,0.1098675282440079,25,down,up,1.2762305999999626,1.463259798277264,,experiment,cRDM,0.0,,,,970.9273974,1001,26,female,True
286,0.1098675282440079,25,down,up,0.6769890000000487,1.638756323654014,,experiment,cRDM,0.0,,,,974.1105716999998,1001,26,female,True
287,0.1098675282440079,25,up,up,0.6264375000000655,1.6253425550156402,,experiment,cRDM,0.0,,,,976.6771321,1001,26,female,True
288,0.1098675282440079,25,up,up,0.3338846000001467,1.7334472545072994,,experiment,cRDM,0.0,,,,979.3103482,1001,26,female,True
289,0.1098675282440079,25,down,up,0.4596082999996724,1.6462877566568568,,experiment,cRDM,0.0,,,,981.6269415999998,1001,26,female,True
290,0.1098675282440079,25,up,up,0.4169944999998733,0.8693692708931764,,experiment,cRDM,0.0,,,,983.2268897,1001,26,female,True
291,0.1098675282440079,25,down,up,0.6016703000000234,0.5306523613506314,,experiment,cRDM,0.0,,,,984.426886,1001,26,female,True
292,0.1098675282440079,25,down,down,1.1291214999996555,0.7083678598687286,,experiment,cRDM,0.0,,,,985.9934508999996,1001,26,female,True
293,0.1098675282440079,25,down,down,0.5058318000001236,1.157476148981401,,experiment,cRDM,0.0,,,,988.5267157,1001,26,female,True
294,0.1098675282440079,25,up,down,0.5902054000002863,0.6544312155407135,,experiment,cRDM,0.0,,,,989.9433409,1001,26,female,True
295,0.1098675282440079,25,up,down,0.9210266000000048,1.5725588906944223,,experiment,cRDM,0.0,,,,992.3765489999998,1001,26,female,True
296,0.1098675282440079,25,up,down,1.1160555999999815,0.3232651085520782,,experiment,cRDM,0.0,,,,993.8765032,1001,26,female,True
297,0.1098675282440079,25,down,down,0.7031171000003269,1.155681022542042,,experiment,cRDM,0.0,,,,996.4264216,1001,26,female,True
298,0.1098675282440079,25,down,down,0.6815668999997797,1.50661761151813,,experiment,cRDM,0.0,,,,998.892978,1001,26,female,True
299,0.1098675282440079,25,up,up,1.1863236999997753,1.3433617329566758,,experiment,cRDM,0.0,,,,1001.1762281,1001,26,female,True
300,0.1098675282440079,25,down,down,0.803103899999769,0.4944213946920296,,experiment,cRDM,0.0,,,,1003.1094657,1001,26,female,True
301,0.1098675282440079,25,up,up,0.5994467000000441,0.6642966724421696,,experiment,cRDM,0.0,,,,1004.8260988,1001,26,female,True
302,0.1098675282440079,25,up,up,0.9031577000000652,0.5783899459352935,,experiment,cRDM,0.0,,,,1006.2593881,1001,26,female,True
303,0.1098675282440079,25,up,up,0.6212599000000409,0.4927291279956272,,experiment,cRDM,0.0,,,,1007.9092881999998,1001,26,female,True
304,0.1098675282440079,25,down,down,0.9060062999997172,1.7511339551918828,,experiment,cRDM,0.0,,,,1010.5425822999998,1001,26,female,True
305,0.1098675282440079,25,down,down,1.0187482000001182,1.122678323676254,,experiment,cRDM,0.0,,,,1012.8257965,1001,26,female,True
306,0.1098675282440079,25,up,up,0.8125011000001905,0.7887159729843036,,experiment,cRDM,0.0,,,,1014.9090209999996,1001,26,female,True
307,0.1098675282440079,25,down,up,0.6078465000000506,0.5370043222286445,,experiment,cRDM,0.0,,,,1016.5256985999996,1001,26,female,True
308,0.1098675282440079,25,down,down,0.7682918000000427,0.8475816091387505,,experiment,cRDM,0.0,,,,1018.2422654,1001,26,female,True
309,0.1098675282440079,25,up,down,0.638684000000012,0.8332641270849475,,experiment,cRDM,0.0,,,,1020.1088693,1001,26,female,True
310,0.1098675282440079,25,up,up,0.5627984999996443,1.6523488269411746,,experiment,cRDM,0.0,,,,1022.6587822999998,1001,26,female,True
311,0.1098675282440079,25,down,up,0.6282105999998748,1.4442981901286345,,experiment,cRDM,0.0,,,,1024.9253401,1001,26,female,True
312,0.1098675282440079,25,up,up,1.1715566999996554,0.7443717829400545,,experiment,cRDM,0.0,,,,1026.5420094,1001,26,female,True
313,0.1098675282440079,25,down,up,0.6076386999998249,0.6077794036062922,,experiment,cRDM,0.0,,,,1028.5919077,1001,26,female,True
314,0.1098675282440079,25,down,down,0.7433716999998978,0.8671083258804821,,experiment,cRDM,0.0,,,,1030.3251634,1001,26,female,True
315,0.1098675282440079,25,down,down,0.5187880999997105,1.222555070793672,,experiment,cRDM,0.0,,,,1032.5417532999998,1001,26,female,True
316,0.1098675282440079,25,up,down,0.5422621999996409,1.479705421165425,,experiment,cRDM,0.0,,,,1034.8083184999998,1001,26,female,True
317,0.1098675282440079,25,up,up,1.376621299999897,1.1649154371917625,,experiment,cRDM,0.0,,,,1036.7749228,1001,26,female,True
318,0.1098675282440079,25,down,up,0.6647106000000349,1.2671130675479354,,experiment,cRDM,0.0,,,,1039.6748059,1001,26,female,True
319,0.1098675282440079,25,down,up,0.6737927000003765,0.4113114820634058,,experiment,cRDM,0.0,,,,1041.0247461,1001,26,female,True
320,0.1098675282440079,25,up,up,0.6051624000001539,0.7736795122730965,,experiment,cRDM,0.0,,,,1042.7413814,1001,26,female,True
321,0.1098675282440079,25,up,up,0.56426300000021,0.6244364106244799,,experiment,cRDM,0.0,,,,1044.2413101,1001,26,female,True
322,0.1098675282440079,25,up,up,0.5169895000003635,1.6054807245068954,,experiment,cRDM,0.0,,,,1046.6745430999997,1001,26,female,True
323,0.1098675282440079,25,up,up,0.5627277000003232,1.9218028791442792,,experiment,cRDM,0.0,,,,1049.3578080999998,1001,26,female,True
324,0.1098675282440079,25,up,up,0.4708239999999932,0.7186987290758264,,experiment,cRDM,0.0,,,,1050.9077214,1001,26,female,True
325,0.1098675282440079,25,down,up,0.4002396999999291,0.7051796001527895,,experiment,cRDM,0.0,,,,1052.3410195999998,1001,26,female,True
326,0.1098675282440079,25,down,down,0.5096394999995937,0.9870683802973764,,experiment,cRDM,0.0,,,,1053.9909325,1001,26,female,True
327,0.1098675282440079,25,up,up,0.6694062999999915,1.9166707940149696,,experiment,cRDM,0.0,,,,1056.674173,1001,26,female,True
328,0.1098675282440079,25,down,up,0.4517401999996764,0.9860122491298386,,experiment,cRDM,0.0,,,,1058.5907804,1001,26,female,True
329,0.1098675282440079,25,down,down,0.4854921000001013,0.8802775164875625,,experiment,cRDM,0.0,,,,1060.1740450999998,1001,26,female,True
330,0.1098675282440079,25,down,down,0.7265965999999935,1.0566097735225628,,experiment,cRDM,0.0,,,,1061.9739705,1001,26,female,True
331,0.1098675282440079,25,up,up,0.6238967000003868,0.5093104053740369,,experiment,cRDM,0.0,,,,1063.4906337999998,1001,26,female,True
332,0.1098675282440079,25,down,down,0.7316829999999754,0.8025975731692223,,experiment,cRDM,0.0,,,,1065.1738726,1001,26,female,True
333,0.1098675282440079,25,down,down,0.6430694000000585,1.363613096156979,,experiment,cRDM,0.0,,,,1067.5404797999995,1001,26,female,True
334,0.1098675282440079,25,down,down,0.6028357999998661,1.3157122592315529,,experiment,cRDM,0.0,,,,1069.7736779,1001,26,female,True
335,0.1098675282440079,25,up,down,0.9541683000002196,0.391937116362202,,experiment,cRDM,0.0,,,,1071.0403513,1001,26,female,True
336,0.1098675282440079,25,up,up,0.6083579999999529,1.71662620172383,,experiment,cRDM,0.0,,,,1073.9901923,1001,26,female,True
337,0.1098675282440079,25,down,up,1.2870928000002095,1.312153864393257,,experiment,cRDM,0.0,,,,1076.1734424999995,1001,26,female,True
338,0.1098675282440079,25,up,up,0.6625487999999677,1.4627691593263863,,experiment,cRDM,0.0,,,,1079.1900067,1001,26,female,True
339,0.1098675282440079,25,down,down,0.7022469999997156,0.662785232274973,,experiment,cRDM,0.0,,,,1080.773285,1001,26,female,True
340,0.1098675282440079,25,up,up,1.016609199999948,0.6050128352109603,,experiment,cRDM,0.0,,,,1082.3399231,1001,26,female,True
341,0.1098675282440079,25,up,up,0.7097373999999945,0.9801325031194564,,experiment,cRDM,0.0,,,,1084.5897975,1001,26,female,True
342,107.0,25,M,up,0.939627599999767,1.1840662317304484,,experiment,emotion,1.0,,,,1092.7728682,1001,26,female,True
343,87.0,25,M,down,0.6746554999999717,0.7335053333987125,,experiment,emotion,1.0,,,,1094.7228451999997,1001,26,female,True
344,100.0,25,F,down,0.5064947000000757,0.4231634136573277,,experiment,emotion,1.0,,,,1096.1060646999997,1001,26,female,True
345,107.0,25,F,down,0.6999329000000216,0.8877382126572371,,experiment,emotion,1.0,,,,1097.7726584999998,1001,26,female,True
346,100.0,25,M,up,1.2005760000001828,1.658407876197945,,experiment,emotion,1.0,,,,1100.4059154999998,1001,26,female,True
347,93.0,25,F,down,0.4940458999999464,0.4921093777285081,,experiment,emotion,1.0,,,,1102.3724893,1001,26,female,True
348,87.0,25,M,down,0.6647442000003139,1.6778778504812475,,experiment,emotion,1.0,,,,1104.8057640999998,1001,26,female,True
349,93.0,25,M,down,0.7385266000001138,1.0016973725438831,,experiment,emotion,1.0,,,,1106.7390032,1001,26,female,True
350,107.0,25,F,down,0.6905940999999984,1.052537163457049,,experiment,emotion,1.0,,,,1108.7889398,1001,26,female,True
351,93.0,25,F,down,0.5754210000000057,1.8734201239214272,,experiment,emotion,1.0,,,,1111.6221428,1001,26,female,True
352,100.0,25,F,down,0.4561315999999351,1.1898491017916113,,experiment,emotion,1.0,,,,1113.6554204,1001,26,female,True
353,107.0,25,F,up,1.1508485999997902,1.5179334518130871,,experiment,emotion,1.0,,,,1115.8886713999998,1001,26,female,True
354,100.0,25,F,down,0.477665700000216,0.6637772041393502,,experiment,emotion,1.0,,,,1117.9719217,1001,26,female,True
355,87.0,25,F,down,0.4723484999999527,0.67975336785566,,experiment,emotion,1.0,,,,1119.4051791,1001,26,female,True
356,93.0,25,M,down,0.542131000000154,1.977085053853337,,experiment,emotion,1.0,,,,1122.138413,1001,26,female,True
357,87.0,25,M,down,0.3835518000000775,1.4732000140910415,,experiment,emotion,1.0,,,,1124.4216966,1001,26,female,True
358,107.0,25,M,up,1.1199116999996477,1.1241958629270026,,experiment,emotion,1.0,,,,1126.2216382999998,1001,26,female,True
359,87.0,25,M,up,0.5807056000003286,1.7846200930240528,,experiment,emotion,1.0,,,,1129.4048081999997,1001,26,female,True
360,100.0,25,F,down,0.8845228000000134,1.1015726565913129,,experiment,emotion,1.0,,,,1131.388075,1001,26,female,True
361,100.0,25,M,up,0.6619104999999763,1.119871799339996,,experiment,emotion,1.0,,,,1133.6546548,1001,26,female,True
362,93.0,25,M,down,0.7676303000002918,1.6756022542554738,,experiment,emotion,1.0,,,,1136.2879219999998,1001,26,female,True
363,93.0,25,F,down,0.6466924999999719,1.0062063620913777,,experiment,emotion,1.0,,,,1138.3378615999998,1001,26,female,True
364,87.0,25,M,down,0.5254737000000205,1.7561950852520114,,experiment,emotion,1.0,,,,1141.0210457,1001,26,female,True
365,107.0,25,F,up,2.1501564999998664,0.3741574266730764,,experiment,emotion,1.0,,,,1142.204353,1001,26,female,True
366,100.0,25,F,down,0.4909615999999914,1.30773706411022,,experiment,emotion,1.0,,,,1145.9375429999998,1001,26,female,True
367,87.0,25,M,down,0.5253875000003063,0.5590166141084542,,experiment,emotion,1.0,,,,1147.2541577999998,1001,26,female,True
368,107.0,25,M,down,0.4001930999997967,0.4590419853159939,,experiment,emotion,1.0,,,,1148.5040969999998,1001,26,female,True
369,107.0,25,F,down,0.5138855000000149,1.3346252337679263,,experiment,emotion,1.0,,,,1150.5206806,1001,26,female,True
370,93.0,25,M,down,0.7649663000001965,1.7053464762958594,,experiment,emotion,1.0,,,,1153.0206061,1001,26,female,True
371,87.0,25,F,down,0.702950200000032,1.7716575924045108,,experiment,emotion,1.0,,,,1155.8205313,1001,26,female,True
372,93.0,25,F,down,0.5257683999998335,0.9641565074106246,,experiment,emotion,1.0,,,,1157.7537664999998,1001,26,female,True
373,100.0,25,F,down,0.7122205999999096,1.1118242568814354,,experiment,emotion,1.0,,,,1159.6703448,1001,26,female,True
374,87.0,25,M,down,0.4962084000003415,0.8181965828977065,,experiment,emotion,1.0,,,,1161.4703149999998,1001,26,female,True
375,107.0,25,M,down,0.688950499999919,0.9454763692981932,,experiment,emotion,1.0,,,,1163.2035647,1001,26,female,True
376,100.0,25,M,down,1.1100636000001032,1.59491490260324,,experiment,emotion,1.0,,,,1165.7534653,1001,26,female,True
377,107.0,25,F,down,0.7584676999999829,1.9520910270395744,,experiment,emotion,1.0,,,,1169.0700097,1001,26,female,True
378,87.0,25,F,down,0.547871700000087,0.5854606425893978,,experiment,emotion,1.0,,,,1170.6866079999998,1001,26,female,True
379,100.0,25,M,up,0.6310281000000941,1.5270532009649267,,experiment,emotion,1.0,,,,1173.0365186,1001,26,female,True
380,93.0,25,F,up,0.7726966999998695,0.8201295102181974,,experiment,emotion,1.0,,,,1174.769806,1001,26,female,True
381,93.0,25,M,down,0.7024883999997655,0.4841072029736633,,experiment,emotion,1.0,,,,1176.3030737,1001,26,female,True
382,100.0,25,M,down,0.7261723000001439,1.169126462551835,,experiment,emotion,1.0,,,,1178.4363422,1001,26,female,True
383,107.0,25,M,up,1.2058530999997856,1.1853733686004793,,experiment,emotion,1.0,,,,1180.6196134,1001,26,female,True
384,93.0,25,F,up,0.7180002999998578,0.933037803728154,,experiment,emotion,1.0,,,,1183.0195308999998,1001,26,female,True
385,87.0,25,F,up,0.5307613999998466,0.3378128833071864,,experiment,emotion,1.0,,,,1184.352776,1001,26,female,True
386,87.0,25,M,up,0.5572171000003436,0.5722103203093106,,experiment,emotion,1.0,,,,1185.7192967999997,1001,26,female,True
387,93.0,25,F,up,0.4562307000001055,0.6707917748469634,,experiment,emotion,1.0,,,,1187.2192861,1001,26,female,True
388,107.0,25,F,up,0.4802488000000267,0.9808687145226664,,experiment,emotion,1.0,,,,1188.9192615,1001,26,female,True
389,100.0,25,M,up,0.5942611000000397,0.4887187287219818,,experiment,emotion,1.0,,,,1190.1692443,1001,26,female,True
390,87.0,25,M,up,0.5293849999998201,1.8868018076542876,,experiment,emotion,1.0,,,,1192.9191251,1001,26,female,True
391,107.0,25,F,up,0.6761546000002454,1.5787528204488166,,experiment,emotion,1.0,,,,1195.3023585,1001,26,female,True
392,100.0,25,M,up,0.4515394999998534,1.4119602089178571,,experiment,emotion,1.0,,,,1197.6689731999998,1001,26,female,True
393,100.0,25,F,up,0.456955999999991,1.9888847965676328,,experiment,emotion,1.0,,,,1200.3855339999998,1001,26,female,True
394,87.0,25,F,down,1.1650669000000562,0.6225744786832779,,experiment,emotion,1.0,,,,1201.7354580999995,1001,26,female,True
395,93.0,25,F,down,0.980771900000036,0.9387359050662925,,experiment,emotion,1.0,,,,1204.1187505,1001,26,female,True
396,107.0,25,M,down,0.6618980000002921,0.4262447153953344,,experiment,emotion,1.0,,,,1205.8186475999998,1001,26,female,True
397,93.0,25,M,down,0.4235781000002134,0.4506843724884279,,experiment,emotion,1.0,,,,1207.2019315,1001,26,female,True
398,93.0,25,F,down,0.5267165999998724,1.9745217425651256,,experiment,emotion,1.0,,,,1209.8518419,1001,26,female,True
399,93.0,25,F,down,0.7890921000002891,1.5793615344573049,,experiment,emotion,1.0,,,,1212.2184387999998,1001,26,female,True
400,107.0,25,M,down,0.6278260999997656,1.174006816734846,,experiment,emotion,1.0,,,,1214.4516686999998,1001,26,female,True
401,100.0,25,M,down,0.4672513999998955,1.785132544212643,,experiment,emotion,1.0,,,,1217.1682469999998,1001,26,female,True
402,87.0,25,M,down,0.629106899999897,1.987982634730792,,experiment,emotion,1.0,,,,1219.9014479999998,1001,26,female,True
403,87.0,25,M,down,0.5494054000000688,0.7224859021158305,,experiment,emotion,1.0,,,,1221.5181022999998,1001,26,female,True
404,100.0,25,M,down,0.5461626000001161,0.4575136545738358,,experiment,emotion,1.0,,,,1222.8013556,1001,26,female,True
405,107.0,25,F,down,0.8981948999999076,0.4946328096005472,,experiment,emotion,1.0,,,,1224.1013114999998,1001,26,female,True
406,107.0,25,F,down,1.3879497999996602,1.711573970047643,,experiment,emotion,1.0,,,,1226.9845462,1001,26,female,True
407,87.0,25,M,up,1.9200676999998905,1.1481903833142348,,experiment,emotion,1.0,,,,1229.7844862,1001,26,female,True
408,107.0,25,F,down,1.350522799999908,0.584935560950654,,experiment,emotion,1.0,,,,1232.5509906999998,1001,26,female,True
409,93.0,25,F,down,0.8396413000000393,1.0892197419395349,,experiment,emotion,1.0,,,,1235.2508943,1001,26,female,True
410,100.0,25,F,up,0.6913259000002654,1.862205950079224,,experiment,emotion,1.0,,,,1238.2341479999998,1001,26,female,True
411,93.0,25,M,down,1.3518018999998276,1.8195702054260512,,experiment,emotion,1.0,,,,1241.0006934,1001,26,female,True
412,87.0,25,F,,,0.6522417906167252,,experiment,emotion,1.0,,,,1243.2839619999995,1001,26,female,True
413,100.0,25,F,up,0.6847319000003154,1.870239259966776,,experiment,emotion,1.0,,,,1247.8337501999997,1001,26,female,True
414,93.0,25,F,up,0.571103800000401,0.4651512077715254,,experiment,emotion,1.0,,,,1249.2503928999995,1001,26,female,True
415,100.0,25,M,up,0.4994571000001997,0.3136757227384975,,experiment,emotion,1.0,,,,1250.4170621,1001,26,female,True
416,87.0,25,M,down,0.7365537000000586,0.9765832399720328,,experiment,emotion,1.0,,,,1252.1669403999997,1001,26,female,True
417,107.0,25,F,up,0.7268656000001101,0.5545958468878298,,experiment,emotion,1.0,,,,1253.7335995,1001,26,female,True
418,100.0,25,M,up,1.1804167000000234,1.627835336728023,,experiment,emotion,1.0,,,,1256.3501217,1001,26,female,True
419,107.0,25,F,up,0.4168942999999672,0.4518481758887646,,experiment,emotion,1.0,,,,1258.2667067999998,1001,26,female,True
420,87.0,25,M,up,0.400162100000216,0.9702519176404396,,experiment,emotion,1.0,,,,1259.9333212999998,1001,26,female,True
421,93.0,25,M,up,1.35096539999995,1.7938449764951323,,experiment,emotion,1.0,,,,1262.4165409,1001,26,female,True
422,0.1098675282440079,25,up,up,0.8129033000000163,1.8082009372918053,,experiment,cRDM,1.0,,,,1280.432599,1001,26,female,True
423,0.1098675282440079,25,up,up,0.5854307999998127,1.9250853572596105,,experiment,cRDM,1.0,,,,1283.4490966,1001,26,female,True
424,0.1098675282440079,25,down,up,0.4767416000004232,0.3374971500217339,,experiment,cRDM,1.0,,,,1284.6157535999998,1001,26,female,True
425,0.1098675282440079,25,down,down,1.1795397999999295,1.4358154786137234,,experiment,cRDM,1.0,,,,1286.7989903,1001,26,female,True
426,0.1098675282440079,25,up,up,0.8492691000001287,1.9902225246207,,experiment,cRDM,1.0,,,,1290.2322247,1001,26,female,True
427,0.1098675282440079,25,down,up,0.6800875000003543,1.0713381568596247,,experiment,cRDM,1.0,,,,1292.4154354,1001,26,female,True
428,0.1098675282440079,25,up,up,0.8730743000000984,0.4634743846241813,,experiment,cRDM,1.0,,,,1293.815438,1001,26,female,True
429,0.1098675282440079,25,up,up,0.786863500000436,0.5078908332718041,,experiment,cRDM,1.0,,,,1295.4486564,1001,26,female,True
430,0.1098675282440079,25,down,up,0.5385993999998391,0.8899536510501644,,experiment,cRDM,1.0,,,,1297.3819029,1001,26,female,True
431,0.1098675282440079,25,down,up,0.5462807999997494,0.7836241322589548,,experiment,cRDM,1.0,,,,1298.9651858999998,1001,26,female,True
432,0.1098675282440079,25,down,up,1.1117091000000985,0.5702146456431557,,experiment,cRDM,1.0,,,,1300.331832,1001,26,female,True
433,0.1098675282440079,25,down,down,0.774434299999939,1.065112247137833,,experiment,cRDM,1.0,,,,1302.7650544,1001,26,female,True
434,0.1098675282440079,25,down,down,1.2242326000000503,1.7375763554502806,,experiment,cRDM,1.0,,,,1305.5482888,1001,26,female,True
435,0.1098675282440079,25,down,down,0.905311200000142,0.563283155306306,,experiment,cRDM,1.0,,,,1307.5981829,1001,26,female,True
436,0.1098675282440079,25,up,up,0.8140108000002328,1.3666457250706563,,experiment,cRDM,1.0,,,,1310.1314774999998,1001,26,female,True
437,0.1098675282440079,25,up,up,0.6584459999999126,1.1447578065095565,,experiment,cRDM,1.0,,,,1312.3480259,1001,26,female,True
438,0.1098675282440079,25,up,up,0.6832943000003979,1.614528693417318,,experiment,cRDM,1.0,,,,1314.8812508,1001,26,female,True
439,0.1098675282440079,25,up,up,0.6696538999999575,0.4641344095047356,,experiment,cRDM,1.0,,,,1316.2978554,1001,26,female,True
440,0.1098675282440079,25,down,up,0.7740342999995846,1.443104552149567,,experiment,cRDM,1.0,,,,1318.66447,1001,26,female,True
441,0.1098675282440079,25,up,up,0.6184474000001501,0.7622358902073708,,experiment,cRDM,1.0,,,,1320.4810467,1001,26,female,True
442,0.1098675282440079,25,up,up,0.5275659999997515,1.7265310207579787,,experiment,cRDM,1.0,,,,1323.080937,1001,26,female,True
443,0.1098675282440079,25,down,up,0.6472321999999622,1.456686672267186,,experiment,cRDM,1.0,,,,1325.3142495999998,1001,26,female,True
444,0.1098675282440079,25,up,up,0.5676989999997204,1.198023239119536,,experiment,cRDM,1.0,,,,1327.4308094,1001,26,female,True
445,0.1098675282440079,25,down,up,0.7004070000002685,1.8551020410582972,,experiment,cRDM,1.0,,,,1330.1140637,1001,26,female,True
446,0.1098675282440079,25,down,up,0.8692310000001271,0.9248434346813896,,experiment,cRDM,1.0,,,,1331.9973110999997,1001,26,female,True
447,0.1098675282440079,25,up,up,0.6719272999998793,0.5407892667572879,,experiment,cRDM,1.0,,,,1333.6805668999998,1001,26,female,True
448,0.1098675282440079,25,up,up,0.6539512999997896,0.8079309584678667,,experiment,cRDM,1.0,,,,1335.4305521999995,1001,26,female,True
449,0.1098675282440079,25,down,up,0.543010299999878,0.4295622827145521,,experiment,cRDM,1.0,,,,1336.7804389,1001,26,female,True
450,0.1098675282440079,25,up,up,0.6664660000001277,1.1554567234699378,,experiment,cRDM,1.0,,,,1338.7470597999998,1001,26,female,True
451,0.1098675282440079,25,down,up,0.7048491999998987,0.7830707862926121,,experiment,cRDM,1.0,,,,1340.4636509999998,1001,26,female,True
452,0.1098675282440079,25,down,up,0.5985919999998259,0.5568491575153054,,experiment,cRDM,1.0,,,,1341.9969143,1001,26,female,True
453,0.1098675282440079,25,down,down,0.6176393999999163,1.391393382511036,,experiment,cRDM,1.0,,,,1344.2468502,1001,26,female,True
454,0.1098675282440079,25,up,up,0.8270163000001958,1.2795471134721446,,experiment,cRDM,1.0,,,,1346.413472,1001,26,female,True
455,0.1098675282440079,25,up,up,0.7114316000001963,0.5666008943215523,,experiment,cRDM,1.0,,,,1348.0800341,1001,26,female,True
456,0.1098675282440079,25,up,up,0.7781371000000945,0.5549676770631751,,experiment,cRDM,1.0,,,,1349.6133601999998,1001,26,female,True
457,0.1098675282440079,25,down,down,1.3372494000000188,1.1041859680817256,,experiment,cRDM,1.0,,,,1351.7632268999998,1001,26,female,True
458,0.1098675282440079,25,down,up,0.6857234999997672,1.4256705732782498,,experiment,cRDM,1.0,,,,1354.7797807999998,1001,26,female,True
459,0.1098675282440079,25,up,down,0.8631428000003325,1.3814271493763124,,experiment,cRDM,1.0,,,,1357.0963510999998,1001,26,female,True
460,0.1098675282440079,25,down,down,0.7278611000001547,0.9876119236205048,,experiment,cRDM,1.0,,,,1359.2296519999998,1001,26,female,True
461,0.1098675282440079,25,up,up,0.4169159000002764,1.254357314307756,,experiment,cRDM,1.0,,,,1361.4628734,1001,26,female,True
462,0.1098675282440079,25,up,up,0.4740234999999302,1.3846026001171166,,experiment,cRDM,1.0,,,,1363.5294551999998,1001,26,female,True
463,0.1098675282440079,25,up,up,0.7844264999998813,0.577504085836767,,experiment,cRDM,1.0,,,,1364.8460652,1001,26,female,True
464,0.1098675282440079,25,down,down,0.8199724999999489,1.68052097059891,,experiment,cRDM,1.0,,,,1367.5626218999998,1001,26,female,True
465,0.1098675282440079,25,down,up,1.0115404999996829,0.4413699811897411,,experiment,cRDM,1.0,,,,1369.0959356,1001,26,female,True
466,0.1098675282440079,25,up,up,0.6526242999998431,0.9947498976748635,,experiment,cRDM,1.0,,,,1371.3458580999998,1001,26,female,True
467,0.1098675282440079,25,down,down,0.7353484000000208,0.8572333469613045,,experiment,cRDM,1.0,,,,1373.1291321,1001,26,female,True
468,0.1098675282440079,25,down,down,0.5818205999999009,0.7856760128240938,,experiment,cRDM,1.0,,,,1374.8956875,1001,26,female,True
469,0.1098675282440079,25,up,down,0.5844240999999784,0.5530341054997533,,experiment,cRDM,1.0,,,,1376.2789906,1001,26,female,True
470,0.1098675282440079,25,up,up,0.8941727000001265,0.3398872226498418,,experiment,cRDM,1.0,,,,1377.4622899999997,1001,26,female,True
471,0.1098675282440079,25,down,up,0.9216369000000668,1.2628976363647948,,experiment,cRDM,1.0,,,,1379.878856,1001,26,female,True
472,0.1098675282440079,25,up,up,1.1556899000001977,0.7244170768616713,,experiment,cRDM,1.0,,,,1381.7787913,1001,26,female,True
473,0.1098675282440079,25,down,down,0.6047613000000638,0.7161081517273942,,experiment,cRDM,1.0,,,,1383.9287309999995,1001,26,female,True
474,0.1098675282440079,25,down,down,0.5898185999999441,0.98147899175369,,experiment,cRDM,1.0,,,,1385.7786322,1001,26,female,True
475,0.1098675282440079,25,down,down,0.5709318999997777,1.4942734044536912,,experiment,cRDM,1.0,,,,1388.1285403999998,1001,26,female,True
476,0.1098675282440079,25,up,up,0.650715400000081,1.5014297218725747,,experiment,cRDM,1.0,,,,1390.4618008,1001,26,female,True
477,0.1098675282440079,25,up,up,0.5977797000000464,1.3836228854296213,,experiment,cRDM,1.0,,,,1392.7617073,1001,26,female,True
478,0.1098675282440079,25,down,down,0.5687944000001153,0.6410326738412684,,experiment,cRDM,1.0,,,,1394.2616793999998,1001,26,female,True
479,0.1098675282440079,25,down,down,0.5838614999997844,0.5653977666923746,,experiment,cRDM,1.0,,,,1395.6616118999998,1001,26,female,True
480,0.1098675282440079,25,up,down,0.5776641000002201,1.5881190902966251,,experiment,cRDM,1.0,,,,1398.0948316,1001,26,female,True
481,0.1098675282440079,25,up,down,0.6221793999998226,1.6149290159249496,,experiment,cRDM,1.0,,,,1400.5614018,1001,26,female,True
482,0.1098675282440079,25,up,down,0.639820200000031,1.550795363884814,,experiment,cRDM,1.0,,,,1402.994646,1001,26,female,True
483,0.1098675282440079,25,up,up,0.5893103000003066,1.8679708154610248,,experiment,cRDM,1.0,,,,1405.7612333,1001,26,female,True
484,0.1098675282440079,25,up,down,0.5233668999999281,1.0546598504112348,,experiment,cRDM,1.0,,,,1407.6611590999998,1001,26,female,True
485,0.1098675282440079,25,down,down,0.5547381000001224,0.950782490012236,,experiment,cRDM,1.0,,,,1409.377761,1001,26,female,True
486,0.1098675282440079,25,down,up,0.6760770999999295,0.4478284666913387,,experiment,cRDM,1.0,,,,1410.6443959,1001,26,female,True
487,0.1098675282440079,25,up,up,0.892789300000004,0.3267694850918559,,experiment,cRDM,1.0,,,,1411.9276767,1001,26,female,True
488,0.1098675282440079,25,down,down,1.2788996999997837,1.1950683457718072,,experiment,cRDM,1.0,,,,1414.2776068,1001,26,female,True
489,0.1098675282440079,25,down,up,0.6726925000002666,1.9523142884143876,,experiment,cRDM,1.0,,,,1417.7607864,1001,26,female,True
490,0.1098675282440079,25,down,down,0.5214599999999336,1.996796202974559,,experiment,cRDM,1.0,,,,1420.6940005,1001,26,female,True
491,0.1098675282440079,25,up,down,0.5179560999999921,1.9727412556326327,,experiment,cRDM,1.0,,,,1423.4605620999998,1001,26,female,True
492,0.1098675282440079,25,down,down,0.5695888000000195,0.5687669714449695,,experiment,cRDM,1.0,,,,1424.7938769,1001,26,female,True
493,0.1098675282440079,25,down,down,0.4002596999998786,0.3634662921350846,,experiment,cRDM,1.0,,,,1425.9771603000002,1001,26,female,True
494,0.1098675282440079,25,down,up,1.1367286999998214,1.9812551339909648,,experiment,cRDM,1.0,,,,1428.6437132999995,1001,26,female,True
495,0.1098675282440079,25,up,down,0.5188176000001476,0.3686925764342659,,experiment,cRDM,1.0,,,,1430.3936428999998,1001,26,female,True
496,0.1098675282440079,25,up,up,1.2993428999998289,1.63418356310793,,experiment,cRDM,1.0,,,,1432.8102616,1001,26,female,True
497,0.1098675282440079,25,down,down,0.5936550000001262,0.8184101784269115,,experiment,cRDM,1.0,,,,1435.1768042,1001,26,female,True
498,0.1098675282440079,25,up,up,0.8997309000001223,1.7975615551923216,,experiment,cRDM,1.0,,,,1437.8267387999997,1001,26,female,True
499,0.1098675282440079,25,down,down,0.6644661000000269,1.3662092164018265,,experiment,cRDM,1.0,,,,1440.359949,1001,26,female,True
500,0.1098675282440079,25,up,up,0.5906513999998424,1.764833568623105,,experiment,cRDM,1.0,,,,1443.0598604,1001,26,female,True
501,0.1098675282440079,25,up,up,0.6873456999996961,0.3747680523480488,,experiment,cRDM,1.0,,,,1444.2931173,1001,26,female,True
502,107.0,25,M,up,0.6836650000000191,1.0505180138641548,,experiment,emotion,2.0,,,,1471.5588065999998,1001,26,female,True
503,87.0,25,M,down,0.509749699999702,1.693526365930088,,experiment,emotion,2.0,,,,1474.2087049999998,1001,26,female,True
504,100.0,25,F,down,0.4837862999997924,0.3553355592798282,,experiment,emotion,2.0,,,,1475.358664,1001,26,female,True
505,107.0,25,F,up,0.6652260000000751,1.761012662948481,,experiment,emotion,2.0,,,,1477.8752343999995,1001,26,female,True
506,100.0,25,M,down,0.600619800000004,1.576149075011037,,experiment,emotion,2.0,,,,1480.3917862,1001,26,female,True
507,93.0,25,F,down,0.5897217000001547,1.2250384777452383,,experiment,emotion,2.0,,,,1482.4917021,1001,26,female,True
508,87.0,25,M,down,0.3835443000002669,0.9801865129818002,,experiment,emotion,2.0,,,,1484.3249908,1001,26,female,True
509,93.0,25,M,down,0.4465337000001455,0.9601119965407136,,experiment,emotion,2.0,,,,1485.9749363999997,1001,26,female,True
510,107.0,25,F,down,0.5869158999998945,1.0490739828942544,,experiment,emotion,2.0,,,,1487.7415316,1001,26,female,True
511,93.0,25,F,down,0.4796399000001656,1.1799059916761048,,experiment,emotion,2.0,,,,1489.7747991999995,1001,26,female,True
512,100.0,25,F,down,0.5787356999999247,1.6065264111155264,,experiment,emotion,2.0,,,,1492.1247147,1001,26,female,True
513,107.0,25,F,up,0.5702045000002727,1.9113202925505932,,experiment,emotion,2.0,,,,1494.8912601,1001,26,female,True
514,100.0,25,F,down,0.756225699999959,1.053746232131048,,experiment,emotion,2.0,,,,1496.7912061,1001,26,female,True
515,87.0,25,F,down,0.4973512999999911,1.5023674707165082,,experiment,emotion,2.0,,,,1499.341095,1001,26,female,True
516,93.0,25,M,down,0.517449100000249,1.921176423199369,,experiment,emotion,2.0,,,,1502.0409933999997,1001,26,female,True
517,87.0,25,M,down,0.488521899999796,1.356861618791522,,experiment,emotion,2.0,,,,1504.1909319999995,1001,26,female,True
518,107.0,25,M,down,0.5615901000001031,0.4840241399824124,,experiment,emotion,2.0,,,,1505.4408845,1001,26,female,True
519,87.0,25,M,down,0.6086334999999963,1.6714253917850408,,experiment,emotion,2.0,,,,1507.9407955,1001,26,female,True
520,100.0,25,F,down,0.6003918000001249,0.786685296884209,,experiment,emotion,2.0,,,,1509.6240549,1001,26,female,True
521,100.0,25,M,down,0.5756593999999495,1.328745016731368,,experiment,emotion,2.0,,,,1511.8239805,1001,26,female,True
522,93.0,25,M,down,0.697611500000221,1.712017153142626,,experiment,emotion,2.0,,,,1514.3739007,1001,26,female,True
523,93.0,25,F,down,0.4809591000002911,0.5584316798353605,,experiment,emotion,2.0,,,,1515.8905005999998,1001,26,female,True
524,87.0,25,M,down,0.7020310999996582,1.6958281658257348,,experiment,emotion,2.0,,,,1518.3404002999998,1001,26,female,True
525,107.0,25,F,down,0.6454803000001448,1.5227059555741995,,experiment,emotion,2.0,,,,1520.8569679,1001,26,female,True
526,100.0,25,F,down,0.5892353000003823,1.4728349399127427,,experiment,emotion,2.0,,,,1523.2402104,1001,26,female,True
527,87.0,25,M,down,0.7010145999997803,0.973752980183763,,experiment,emotion,2.0,,,,1525.0734768999998,1001,26,female,True
528,107.0,25,M,down,0.9155938999997488,0.9390174443328632,,experiment,emotion,2.0,,,,1526.9900609,1001,26,female,True
529,107.0,25,F,down,1.6894412000001466,0.6541170400126168,,experiment,emotion,2.0,,,,1528.8400189,1001,26,female,True
530,93.0,25,M,down,0.5001840999998421,0.3176284103036156,,experiment,emotion,2.0,,,,1531.1232595999998,1001,26,female,True
531,87.0,25,F,down,0.5739060000000791,1.166122795535301,,experiment,emotion,2.0,,,,1533.0565338999995,1001,26,female,True
532,93.0,25,F,down,0.4719756000004054,0.343965718694196,,experiment,emotion,2.0,,,,1534.2565063,1001,26,female,True
533,100.0,25,F,down,0.4946789000000535,0.9318957517659654,,experiment,emotion,2.0,,,,1535.9397441,1001,26,female,True
534,87.0,25,M,down,0.5364845000003697,0.7760178267813456,,experiment,emotion,2.0,,,,1537.4730044,1001,26,female,True
535,107.0,25,M,up,0.5881426000000829,1.163179628797825,,experiment,emotion,2.0,,,,1539.4562834,1001,26,female,True
536,100.0,25,M,up,0.4326006000001143,1.156783043751803,,experiment,emotion,2.0,,,,1541.4728706,1001,26,female,True
537,107.0,25,F,up,0.3668535000001611,0.8400763479546289,,experiment,emotion,2.0,,,,1543.0061485999995,1001,26,female,True
538,87.0,25,F,down,0.8920265000001564,1.142918635179869,,experiment,emotion,2.0,,,,1544.8394185,1001,26,female,True
539,100.0,25,M,down,0.4810964000002968,0.5769161812467054,,experiment,emotion,2.0,,,,1546.5893795999998,1001,26,female,True
540,93.0,25,F,down,0.4002658000003976,1.1928044858370304,,experiment,emotion,2.0,,,,1548.5559336,1001,26,female,True
541,93.0,25,M,down,0.6468999999997322,1.2235165268753443,,experiment,emotion,2.0,,,,1550.4725378,1001,26,female,True
542,100.0,25,M,down,0.6826773000002504,1.2183123187629952,,experiment,emotion,2.0,,,,1552.6057651999995,1001,26,female,True
543,107.0,25,M,down,0.6510957000000417,1.917344886824728,,experiment,emotion,2.0,,,,1555.472355,1001,26,female,True
544,93.0,25,F,down,1.439161499999955,0.379055822482354,,experiment,emotion,2.0,,,,1556.7722944,1001,26,female,True
545,87.0,25,F,down,0.6029085999998642,1.6990805883580098,,experiment,emotion,2.0,,,,1560.2054949,1001,26,female,True
546,87.0,25,M,down,0.5587282000001323,1.7087343123344207,,experiment,emotion,2.0,,,,1562.7887589999998,1001,26,female,True
547,93.0,25,F,down,0.8813924999999472,0.5589234192891755,,experiment,emotion,2.0,,,,1564.1720282,1001,26,female,True
548,107.0,25,F,down,0.6974635000001399,0.449243777759197,,experiment,emotion,2.0,,,,1565.7719777999998,1001,26,female,True
549,100.0,25,M,down,1.0088549000001876,0.9820990652614028,,experiment,emotion,2.0,,,,1567.7385788,1001,26,female,True
550,87.0,25,M,down,0.416928199999802,0.3844775150512201,,experiment,emotion,2.0,,,,1569.3885013,1001,26,female,True
551,107.0,25,F,up,0.7654922000001534,1.8821453159727948,,experiment,emotion,2.0,,,,1571.9550861,1001,26,female,True
552,100.0,25,M,up,0.5741017000000284,0.5961797586017392,,experiment,emotion,2.0,,,,1573.5883308999998,1001,26,female,True
553,100.0,25,F,down,0.6622087000000647,1.1376688391401433,,experiment,emotion,2.0,,,,1575.5882531999998,1001,26,female,True
554,87.0,25,F,down,0.579896700000063,1.2940991433898432,,experiment,emotion,2.0,,,,1577.8215302,1001,26,female,True
555,93.0,25,F,down,0.8417070999998941,1.024516859985121,,experiment,emotion,2.0,,,,1579.7047514999997,1001,26,female,True
556,107.0,25,M,down,0.577086700000109,1.961481309909192,,experiment,emotion,2.0,,,,1582.7713464,1001,26,female,True
557,93.0,25,M,down,0.9218558999996276,0.7445239313053815,,experiment,emotion,2.0,,,,1584.3546199999998,1001,26,female,True
558,93.0,25,F,down,0.5359337999998388,1.8137812380487093,,experiment,emotion,2.0,,,,1587.354498,1001,26,female,True
559,93.0,25,F,down,0.4760949999999866,1.6984876272396308,,experiment,emotion,2.0,,,,1589.8544230999998,1001,26,female,True
560,107.0,25,M,down,0.4628067000003284,1.9773071431780411,,experiment,emotion,2.0,,,,1592.5876301,1001,26,female,True
561,100.0,25,M,down,0.4168813000001137,1.9551956045517684,,experiment,emotion,2.0,,,,1595.2875277,1001,26,female,True
562,87.0,25,M,down,0.4329999999999927,1.847034335569398,,experiment,emotion,2.0,,,,1597.8374493999995,1001,26,female,True
563,87.0,25,M,down,0.300180299999738,1.5246543471268563,,experiment,emotion,2.0,,,,1600.0540373,1001,26,female,True
564,100.0,25,M,down,0.42612360000021,1.299050816517792,,experiment,emotion,2.0,,,,1602.0373056,1001,26,female,True
565,107.0,25,F,up,0.9131478999997852,0.4133807566456827,,experiment,emotion,2.0,,,,1603.137262,1001,26,female,True
566,107.0,25,F,down,0.4995773999999073,0.8300163317872051,,experiment,emotion,2.0,,,,1605.1538515,1001,26,female,True
567,87.0,25,M,down,0.5792973000002348,1.6156889250360489,,experiment,emotion,2.0,,,,1607.5370842,1001,26,female,True
568,107.0,25,F,down,0.4170825000001059,0.930686643694175,,experiment,emotion,2.0,,,,1609.3203837,1001,26,female,True
569,93.0,25,F,down,0.9914715999998408,0.6644343870163334,,experiment,emotion,2.0,,,,1610.6869896,1001,26,female,True
570,100.0,25,F,down,0.4613958999998431,0.3656959760191904,,experiment,emotion,2.0,,,,1612.3202481,1001,26,female,True
571,93.0,25,M,down,0.4449201999996148,1.2544675392136593,,experiment,emotion,2.0,,,,1614.3035065,1001,26,female,True
572,87.0,25,F,down,0.3001601999999366,1.8982908403368888,,experiment,emotion,2.0,,,,1616.9200758,1001,26,female,True
573,100.0,25,F,down,0.5774314999998751,1.751419560115824,,experiment,emotion,2.0,,,,1619.369996,1001,26,female,True
574,93.0,25,F,down,0.4915396000001237,0.9077207213192235,,experiment,emotion,2.0,,,,1621.119908,1001,26,female,True
575,100.0,25,M,down,0.4539372999997795,1.5566310439764364,,experiment,emotion,2.0,,,,1623.4364973,1001,26,female,True
576,87.0,25,M,down,0.4939984000002368,1.779531260250638,,experiment,emotion,2.0,,,,1625.9364072,1001,26,female,True
577,107.0,25,F,down,1.3041587000002437,1.7249596563077365,,experiment,emotion,2.0,,,,1628.4362905,1001,26,female,True
578,100.0,25,M,down,0.6695282000000589,0.7364080318874264,,experiment,emotion,2.0,,,,1630.7529056,1001,26,female,True
579,107.0,25,F,down,0.4278926000001775,0.4341529608298244,,experiment,emotion,2.0,,,,1632.1195093,1001,26,female,True
580,87.0,25,M,down,0.5089634000000842,1.0093287675551292,,experiment,emotion,2.0,,,,1633.8194579999997,1001,26,female,True
581,93.0,25,M,down,0.6507222000000183,1.4297683220445203,,experiment,emotion,2.0,,,,1636.0526965,1001,26,female,True
582,0.1098675282440079,25,up,up,0.6034178999998403,0.3283690181431833,,experiment,cRDM,2.0,,,,1645.0690308,1001,26,female,True
583,0.1098675282440079,25,up,down,0.6101145000002361,0.7645500594501058,,experiment,cRDM,2.0,,,,1646.7023217999997,1001,26,female,True
584,0.1098675282440079,25,down,up,0.3671856999999363,1.1956418835996314,,experiment,cRDM,2.0,,,,1648.7688669,1001,26,female,True
585,0.1098675282440079,25,down,down,0.3339048999996521,1.9000455539826544,,experiment,cRDM,2.0,,,,1651.3687853999998,1001,26,female,True
586,0.1098675282440079,25,up,up,0.6450128999999833,0.6408333845348442,,experiment,cRDM,2.0,,,,1652.6853942,1001,26,female,True
587,0.1098675282440079,25,down,down,0.4474236999999448,1.2730091648332644,,experiment,cRDM,2.0,,,,1654.8519982,1001,26,female,True
588,0.1098675282440079,25,up,up,0.6457851000000119,0.9410811096125782,,experiment,cRDM,2.0,,,,1656.5186318,1001,26,female,True
589,0.1098675282440079,25,up,up,0.5048723999998401,0.352110235836606,,experiment,cRDM,2.0,,,,1657.7685441,1001,26,female,True
590,0.1098675282440079,25,down,up,0.2837942000001021,1.4123326904322482,,experiment,cRDM,2.0,,,,1659.9518101,1001,26,female,True
591,0.1098675282440079,25,down,down,0.4183275999998841,0.4007895373453324,,experiment,cRDM,2.0,,,,1661.0350824999998,1001,26,female,True
592,0.1098675282440079,25,down,up,0.6834465000001728,1.8603772613128209,,experiment,cRDM,2.0,,,,1663.5850193999995,1001,26,female,True
593,0.1098675282440079,25,down,down,0.4788668999999572,1.3283870059791352,,experiment,cRDM,2.0,,,,1665.8515755,1001,26,female,True
594,0.1098675282440079,25,down,up,1.0279153999999835,0.9561618480728548,,experiment,cRDM,2.0,,,,1667.5515214,1001,26,female,True
595,0.1098675282440079,25,down,down,0.4869887999998354,0.9101256489234112,,experiment,cRDM,2.0,,,,1669.7514334999998,1001,26,female,True
596,0.1098675282440079,25,up,up,0.6524466999999277,1.3566944511492172,,experiment,cRDM,2.0,,,,1671.8679771,1001,26,female,True
597,0.1098675282440079,25,up,down,1.273151400000188,1.87701165761036,,experiment,cRDM,2.0,,,,1674.6512615,1001,26,female,True
598,0.1098675282440079,25,up,down,0.6176377000001594,1.8829340065164524,,experiment,cRDM,2.0,,,,1678.0677749999998,1001,26,female,True
599,0.1098675282440079,25,up,down,0.9463582999997016,1.309115573104634,,experiment,cRDM,2.0,,,,1680.2510538999998,1001,26,female,True
600,0.1098675282440079,25,down,up,0.6015078999998877,1.787128555917028,,experiment,cRDM,2.0,,,,1683.2509297999998,1001,26,female,True
601,0.1098675282440079,25,up,up,0.6915094000000863,1.9044902066014584,,experiment,cRDM,2.0,,,,1686.0008661,1001,26,female,True
602,0.1098675282440079,25,up,up,0.7323526000000129,1.7751327571723845,,experiment,cRDM,2.0,,,,1688.7340665999998,1001,26,female,True
603,0.1098675282440079,25,down,down,0.4897800000003371,0.914056506717372,,experiment,cRDM,2.0,,,,1690.6506704,1001,26,female,True
604,0.1098675282440079,25,up,up,0.568429500000093,0.7792396298641688,,experiment,cRDM,2.0,,,,1692.1839764,1001,26,female,True
605,0.1098675282440079,25,down,down,0.5535268000003271,1.36970593339951,,experiment,cRDM,2.0,,,,1694.3838914,1001,26,female,True
606,0.1098675282440079,25,down,down,0.6062790000000859,0.8114826482934283,,experiment,cRDM,2.0,,,,1696.0171359999997,1001,26,female,True
607,0.1098675282440079,25,up,up,0.5298352999998315,1.353509704180816,,experiment,cRDM,2.0,,,,1698.2336835,1001,26,female,True
608,0.1098675282440079,25,up,down,1.1590956999998523,1.312635784767438,,experiment,cRDM,2.0,,,,1700.3503141999995,1001,26,female,True
609,0.1098675282440079,25,down,up,0.9798015000001216,0.7988383589379076,,experiment,cRDM,2.0,,,,1702.583602,1001,26,female,True
610,0.1098675282440079,25,up,down,0.5100172000002203,1.5689979231618816,,experiment,cRDM,2.0,,,,1705.3834481,1001,26,female,True
611,0.1098675282440079,25,down,up,1.120003099999849,0.571973196947516,,experiment,cRDM,2.0,,,,1706.7334039,1001,26,female,True
612,0.1098675282440079,25,down,up,0.6697878999998466,1.159914379289713,,experiment,cRDM,2.0,,,,1709.2666183999995,1001,26,female,True
613,0.1098675282440079,25,down,down,0.416928800000278,0.7571939885775152,,experiment,cRDM,2.0,,,,1710.9499190999998,1001,26,female,True
614,0.1098675282440079,25,up,up,0.7192345000003115,0.3047622385226924,,experiment,cRDM,2.0,,,,1711.9331921,1001,26,female,True
615,0.1098675282440079,25,up,up,0.5903514000001451,1.9291647973524475,,experiment,cRDM,2.0,,,,1714.8331058,1001,26,female,True
616,0.1098675282440079,25,up,up,0.4513710000001083,0.7557670078358079,,experiment,cRDM,2.0,,,,1716.4330549,1001,26,female,True
617,0.1098675282440079,25,down,up,0.6790944999997919,1.4052675630676317,,experiment,cRDM,2.0,,,,1718.5662894999998,1001,26,female,True
618,0.1098675282440079,25,down,down,0.5545297999997274,0.7201611098017734,,experiment,cRDM,2.0,,,,1720.2329004,1001,26,female,True
619,0.1098675282440079,25,up,up,0.5489513999996234,1.955615758194109,,experiment,cRDM,2.0,,,,1722.9994906999998,1001,26,female,True
620,0.1098675282440079,25,down,down,0.5360348999997768,1.8763271537024908,,experiment,cRDM,2.0,,,,1725.6993792,1001,26,female,True
621,0.1098675282440079,25,up,down,1.2598047999999835,1.1375635932957968,,experiment,cRDM,2.0,,,,1727.63262,1001,26,female,True
622,0.1098675282440079,25,up,up,0.5878666999997222,0.6264749661259614,,experiment,cRDM,2.0,,,,1729.7825468,1001,26,female,True
623,0.1098675282440079,25,up,up,0.6962991000000329,1.6176745701112485,,experiment,cRDM,2.0,,,,1732.2491180999998,1001,26,female,True
624,0.1098675282440079,25,down,up,0.730383399999937,1.4753712706239512,,experiment,cRDM,2.0,,,,1734.6990325999998,1001,26,female,True
625,0.1098675282440079,25,down,up,0.4957764999999199,0.8805240549150875,,experiment,cRDM,2.0,,,,1736.5656192,1001,26,female,True
626,0.1098675282440079,25,up,up,0.5788422999999057,1.8446620861302,,experiment,cRDM,2.0,,,,1739.1655573,1001,26,female,True
627,0.1098675282440079,25,down,down,0.5005650000002788,0.4896162917897103,,experiment,cRDM,2.0,,,,1740.4988382999998,1001,26,female,True
628,0.1098675282440079,25,down,down,0.5563978000000134,1.9620804091452344,,experiment,cRDM,2.0,,,,1743.2320247,1001,26,female,True
629,0.1098675282440079,25,up,up,0.5800826999998208,1.6717217684872203,,experiment,cRDM,2.0,,,,1745.7153198999997,1001,26,female,True
630,0.1098675282440079,25,up,up,0.9095882000001438,1.7198565547025095,,experiment,cRDM,2.0,,,,1748.281842,1001,26,female,True
631,0.1098675282440079,25,down,down,0.761315800000375,1.9450496557978083,,experiment,cRDM,2.0,,,,1751.4150802,1001,26,female,True
632,0.1098675282440079,25,up,down,0.6854270999997425,1.5715875210216383,,experiment,cRDM,2.0,,,,1754.0149905,1001,26,female,True
633,0.1098675282440079,25,down,down,0.5108193999999457,0.3169192131494247,,experiment,cRDM,2.0,,,,1755.2816279,1001,26,female,True
634,0.1098675282440079,25,down,down,0.4169541999999637,0.6543864178291363,,experiment,cRDM,2.0,,,,1756.7148830999995,1001,26,female,True
635,0.1098675282440079,25,down,down,0.6872334999998202,1.2524103244310367,,experiment,cRDM,2.0,,,,1758.6481338,1001,26,female,True
636,0.1098675282440079,25,up,up,0.6033263000003899,1.1564640810102649,,experiment,cRDM,2.0,,,,1760.7480813999998,1001,26,female,True
637,0.1098675282440079,25,up,down,0.5614980999998807,1.337604970103185,,experiment,cRDM,2.0,,,,1762.9479708,1001,26,female,True
638,0.1098675282440079,25,down,down,0.5354667999999947,1.2386028046941917,,experiment,cRDM,2.0,,,,1764.9979267,1001,26,female,True
639,0.1098675282440079,25,down,down,0.4170220999999401,0.824711240411639,,experiment,cRDM,2.0,,,,1766.6144923999998,1001,26,female,True
640,0.1098675282440079,25,up,up,0.9903565999998136,1.3748455012866798,,experiment,cRDM,2.0,,,,1768.6810453,1001,26,female,True
641,0.1098675282440079,25,up,down,0.4466855999999097,0.5677530112426972,,experiment,cRDM,2.0,,,,1770.4977072,1001,26,female,True
642,0.1098675282440079,25,up,up,0.5776378999998997,0.5893113863579412,,experiment,cRDM,2.0,,,,1771.7976883999995,1001,26,female,True
643,0.1098675282440079,25,up,up,0.5684600999998111,0.3904701969714769,,experiment,cRDM,2.0,,,,1773.030944,1001,26,female,True
644,0.1098675282440079,25,up,up,0.5518802999999934,1.7797780639912852,,experiment,cRDM,2.0,,,,1775.6474964,1001,26,female,True
645,0.1098675282440079,25,down,down,0.46725189999961,1.0675627852062168,,experiment,cRDM,2.0,,,,1777.5141087999998,1001,26,female,True
646,0.1098675282440079,25,down,down,0.4343570000000909,0.6210833195707858,,experiment,cRDM,2.0,,,,1778.8640395999998,1001,26,female,True
647,0.1098675282440079,25,up,up,0.5443900000000212,0.3955253508239771,,experiment,cRDM,2.0,,,,1779.9639996,1001,26,female,True
648,0.1098675282440079,25,down,up,0.5768176000001404,1.558982904608803,,experiment,cRDM,2.0,,,,1782.3306117,1001,26,female,True
649,0.1098675282440079,25,down,up,0.8685374000001502,1.4022478530043407,,experiment,cRDM,2.0,,,,1784.5638585999998,1001,26,female,True
650,0.1098675282440079,25,down,down,0.5889563000000635,0.6275702360680551,,experiment,cRDM,2.0,,,,1786.3304504,1001,26,female,True
651,0.1098675282440079,25,up,up,0.527685499999734,0.439632827227468,,experiment,cRDM,2.0,,,,1787.6137357,1001,26,female,True
652,0.1098675282440079,25,down,down,0.5386852999999974,0.5071334389078082,,experiment,cRDM,2.0,,,,1788.9136888,1001,26,female,True
653,0.1098675282440079,25,down,up,0.980819700000211,1.7572220752726089,,experiment,cRDM,2.0,,,,1791.4635636,1001,26,female,True
654,0.1098675282440079,25,down,up,0.5631746000003659,0.5415989244881273,,experiment,cRDM,2.0,,,,1793.2302039,1001,26,female,True
655,0.1098675282440079,25,up,up,0.641603799999757,1.7343463093353584,,experiment,cRDM,2.0,,,,1795.7967685,1001,26,female,True
656,0.1098675282440079,25,up,up,0.6243589999999131,1.4225311746702256,,experiment,cRDM,2.0,,,,1798.1300335999997,1001,26,female,True
657,0.1098675282440079,25,down,down,0.4921000000003914,0.5953885661345891,,experiment,cRDM,2.0,,,,1799.6132851,1001,26,female,True
658,0.1098675282440079,25,up,up,0.6662275000003319,1.9897960011525964,,experiment,cRDM,2.0,,,,1802.363158,1001,26,female,True
659,0.1098675282440079,25,down,down,0.7635925999998108,0.436262120516069,,experiment,cRDM,2.0,,,,1803.729795,1001,26,female,True
660,0.1098675282440079,25,up,up,0.5076704000002792,1.530851268530358,,experiment,cRDM,2.0,,,,1806.2797134,1001,26,female,True
661,0.1098675282440079,25,up,up,0.4407771999999568,1.4876820895213998,,experiment,cRDM,2.0,,,,1808.52961,1001,26,female,True
662,107.0,25,M,up,0.6504236999999193,1.8634355325814604,,experiment,emotion,3.0,,,,1826.3289706,1001,26,female,True
663,87.0,25,M,down,0.5614869999999428,0.9146029993548616,,experiment,emotion,3.0,,,,1828.178897,1001,26,female,True
664,100.0,25,F,down,0.722202400000242,1.5292073362299723,,experiment,emotion,3.0,,,,1830.5621349,1001,26,female,True
665,107.0,25,F,down,0.52297340000041,0.7926275271306338,,experiment,emotion,3.0,,,,1832.3454155,1001,26,female,True
666,100.0,25,M,down,0.508416500000294,0.9718902594164872,,experiment,emotion,3.0,,,,1834.1120156,1001,26,female,True
667,93.0,25,F,down,0.4001940000002832,0.3599849167214076,,experiment,emotion,3.0,,,,1835.2619546,1001,26,female,True
668,87.0,25,M,down,0.4635067999997773,1.8988435432560409,,experiment,emotion,3.0,,,,1837.8618743,1001,26,female,True
669,93.0,25,M,down,0.4175878000000921,0.3114286799222349,,experiment,emotion,3.0,,,,1838.911848,1001,26,female,True
670,107.0,25,F,down,0.4001973000004,1.6458520401285668,,experiment,emotion,3.0,,,,1841.2450791,1001,26,female,True
671,93.0,25,F,down,0.4513806999998451,1.7740806761445802,,experiment,emotion,3.0,,,,1843.6949999,1001,26,female,True
672,100.0,25,F,down,0.4313838000002761,0.3340885354225668,,experiment,emotion,3.0,,,,1844.7449867,1001,26,female,True
673,107.0,25,F,down,0.4001600000001417,0.9118348971785007,,experiment,emotion,3.0,,,,1846.3449118,1001,26,female,True
674,100.0,25,F,down,0.7638812000000144,1.2248523929827686,,experiment,emotion,3.0,,,,1848.2614903,1001,26,female,True
675,87.0,25,F,down,0.5116670000002159,1.6519556711336787,,experiment,emotion,3.0,,,,1850.9447116,1001,26,female,True
676,93.0,25,M,down,0.4427533000002768,1.565382239452447,,experiment,emotion,3.0,,,,1853.2946481,1001,26,female,True
677,87.0,25,M,down,0.5644830999999613,1.1642209459312562,,experiment,emotion,3.0,,,,1855.1779056,1001,26,female,True
678,107.0,25,M,down,0.4778455000000576,0.782691175724044,,experiment,emotion,3.0,,,,1856.7945277,1001,26,female,True
679,87.0,25,M,down,0.5029177000001255,1.1973036202881402,,experiment,emotion,3.0,,,,1858.7444331,1001,26,female,True
680,100.0,25,F,down,0.5946883000001435,1.646657561133497,,experiment,emotion,3.0,,,,1861.1776879,1001,26,female,True
681,100.0,25,M,down,0.5564619000001585,1.7083662680418876,,experiment,emotion,3.0,,,,1863.7609029,1001,26,female,True
682,93.0,25,M,down,0.6092299000001731,0.7334733052242581,,experiment,emotion,3.0,,,,1865.3442022,1001,26,female,True
683,93.0,25,F,down,0.4446290999999291,1.844257734045475,,experiment,emotion,3.0,,,,1868.0607443,1001,26,female,True
684,87.0,25,M,down,0.4701230999999097,1.5876695472792035,,experiment,emotion,3.0,,,,1870.3773124,1001,26,female,True
685,107.0,25,F,down,0.5018363999997746,0.3853627091438331,,experiment,emotion,3.0,,,,1871.5106208,1001,26,female,True
686,100.0,25,F,down,1.448850699999639,1.5831146374523888,,experiment,emotion,3.0,,,,1873.8605242,1001,26,female,True
687,87.0,25,M,down,0.4292854999998781,0.6394713662929363,,experiment,emotion,3.0,,,,1876.2271142,1001,26,female,True
688,107.0,25,M,down,0.4553541999998742,1.0017048654707832,,experiment,emotion,3.0,,,,1877.9270489,1001,26,female,True
689,107.0,25,F,down,0.4413853999999446,1.0748835143913449,,experiment,emotion,3.0,,,,1879.7269893,1001,26,female,True
690,93.0,25,M,down,0.4281040999999277,0.9052476694043256,,experiment,emotion,3.0,,,,1881.3602587,1001,26,female,True
691,87.0,25,F,down,0.7458400000000438,1.9428345395280304,,experiment,emotion,3.0,,,,1883.9935299,1001,26,female,True
692,93.0,25,F,up,0.8533154000001559,1.7162947616919224,,experiment,emotion,3.0,,,,1886.7100535,1001,26,female,True
693,100.0,25,F,up,0.4754363000001831,1.862313727858335,,experiment,emotion,3.0,,,,1889.7099633,1001,26,female,True
694,87.0,25,M,down,0.6438419999999496,1.4625744774230995,,experiment,emotion,3.0,,,,1891.9265342,1001,26,female,True
695,107.0,25,M,down,0.6049524000000019,1.8226853151021256,,experiment,emotion,3.0,,,,1894.6764143,1001,26,female,True
696,100.0,25,M,up,0.7246968999997989,1.307872432035612,,experiment,emotion,3.0,,,,1896.8596708,1001,26,female,True
697,107.0,25,F,down,0.4637507000002188,1.4120262891698452,,experiment,emotion,3.0,,,,1899.2595938,1001,26,female,True
698,87.0,25,F,down,0.6468252999998185,0.6125536286318463,,experiment,emotion,3.0,,,,1900.6095497,1001,26,female,True
699,100.0,25,M,down,0.7731874000000971,0.651277121796612,,experiment,emotion,3.0,,,,1902.1761893,1001,26,female,True
700,93.0,25,F,up,0.4743264999997336,0.8525629688565322,,experiment,emotion,3.0,,,,1904.0760653,1001,26,female,True
701,93.0,25,M,down,0.9842994999999064,0.7684395490296272,,experiment,emotion,3.0,,,,1905.5760647,1001,26,female,True
702,100.0,25,M,down,0.6787779999999657,1.0795916996514827,,experiment,emotion,3.0,,,,1907.8926255,1001,26,female,True
703,107.0,25,M,down,0.8305328000001282,1.6276635317383408,,experiment,emotion,3.0,,,,1910.4758706,1001,26,female,True
704,93.0,25,F,down,0.4572127999999793,1.136499945431512,,experiment,emotion,3.0,,,,1912.7091005,1001,26,female,True
705,87.0,25,F,down,1.3273606000002474,1.8641835192113083,,experiment,emotion,3.0,,,,1915.3090026,1001,26,female,True
706,87.0,25,M,down,0.4790862999998353,0.3099212171451615,,experiment,emotion,3.0,,,,1917.242264,1001,26,female,True
707,93.0,25,F,down,0.6140964999999596,0.7928479417444865,,experiment,emotion,3.0,,,,1918.7922305,1001,26,female,True
708,107.0,25,F,down,0.5182407000002058,1.0605896222999125,,experiment,emotion,3.0,,,,1920.7421226,1001,26,female,True
709,100.0,25,M,down,0.5269499999999425,0.3870029851234576,,experiment,emotion,3.0,,,,1921.9254206,1001,26,female,True
710,87.0,25,M,down,0.573721100000057,1.6308864981173838,,experiment,emotion,3.0,,,,1924.3586509,1001,26,female,True
711,107.0,25,F,down,0.562066699999832,0.4753442964943817,,experiment,emotion,3.0,,,,1925.675276,1001,26,female,True
712,100.0,25,M,down,0.5431343000000197,0.8205221855926421,,experiment,emotion,3.0,,,,1927.3252338,1001,26,female,True
713,100.0,25,F,down,0.613569600000119,0.9458334212399024,,experiment,emotion,3.0,,,,1929.0918287,1001,26,female,True
714,87.0,25,F,down,0.8925850999999057,0.9679426333391938,,experiment,emotion,3.0,,,,1930.941772,1001,26,female,True
715,93.0,25,F,down,0.5507262000000992,1.823753891842665,,experiment,emotion,3.0,,,,1933.9416416,1001,26,female,True
716,107.0,25,M,down,1.6024376999998822,1.4095168754925562,,experiment,emotion,3.0,,,,1936.1748797,1001,26,female,True
717,93.0,25,M,up,0.7783684000000903,1.8092045945371749,,experiment,emotion,3.0,,,,1939.8580818,1001,26,female,True
718,93.0,25,F,down,0.4757011000001512,1.0757633464581629,,experiment,emotion,3.0,,,,1941.9746794,1001,26,female,True
719,93.0,25,F,down,0.4880722000002606,0.7920066858240242,,experiment,emotion,3.0,,,,1943.4912848,1001,26,female,True
720,107.0,25,M,down,0.4595985999999357,0.9592581144025814,,experiment,emotion,3.0,,,,1945.2079011,1001,26,female,True
721,100.0,25,M,down,0.5275526999998874,0.5572369145843439,,experiment,emotion,3.0,,,,1946.5078333,1001,26,female,True
722,87.0,25,M,down,0.6112746999997398,1.910924731697128,,experiment,emotion,3.0,,,,1949.2410827,1001,26,female,True
723,87.0,25,M,down,0.4996880999997302,1.2453241754779094,,experiment,emotion,3.0,,,,1951.3576712,1001,26,female,True
724,100.0,25,M,down,0.772784799999954,1.371586739049692,,experiment,emotion,3.0,,,,1953.507579,1001,26,female,True
725,107.0,25,F,down,0.5469391000001451,1.817668932694747,,experiment,emotion,3.0,,,,1956.3574581,1001,26,female,True
726,107.0,25,F,down,0.4169673999999759,0.461967981586755,,experiment,emotion,3.0,,,,1957.6407606,1001,26,female,True
727,87.0,25,M,down,0.5040011000000959,0.8690547706177172,,experiment,emotion,3.0,,,,1959.2073804,1001,26,female,True
728,107.0,25,F,up,0.8426915000000008,0.9035999570602316,,experiment,emotion,3.0,,,,1960.8906556,1001,26,female,True
729,93.0,25,F,down,0.4614372999999432,0.3147726600645164,,experiment,emotion,3.0,,,,1962.3239222,1001,26,female,True
730,100.0,25,F,down,0.4731808999999884,1.0954786905072629,,experiment,emotion,3.0,,,,1964.1571773,1001,26,female,True
731,93.0,25,M,down,0.8177196999999978,0.4590411820549399,,experiment,emotion,3.0,,,,1965.3738142,1001,26,female,True
732,87.0,25,F,down,0.9563232999998944,1.5399841321084415,,experiment,emotion,3.0,,,,1968.0070435,1001,26,female,True
733,100.0,25,F,down,0.6676243000001705,0.5514500463928038,,experiment,emotion,3.0,,,,1969.806975,1001,26,female,True
734,93.0,25,F,down,0.954168899999786,0.8341309744611203,,experiment,emotion,3.0,,,,1971.5902105,1001,26,female,True
735,100.0,25,M,down,0.6189566999996714,1.5672846919578307,,experiment,emotion,3.0,,,,1974.3734262,1001,26,female,True
736,87.0,25,M,down,0.7606676999998854,1.9450150510480668,,experiment,emotion,3.0,,,,1977.2067018,1001,26,female,True
737,107.0,25,F,down,0.7794714999999997,1.988355718182382,,experiment,emotion,3.0,,,,1980.2399212,1001,26,female,True
738,100.0,25,M,down,0.9728703999999198,0.980236517113233,,experiment,emotion,3.0,,,,1982.2565024,1001,26,female,True
739,107.0,25,F,down,0.4998995000000832,0.7546720567030155,,experiment,emotion,3.0,,,,1984.2564525,1001,26,female,True
740,87.0,25,M,down,1.2306601000000228,1.6564207635046868,,experiment,emotion,3.0,,,,1986.6896976,1001,26,female,True
741,93.0,25,M,up,0.665805999999975,1.5208592758606885,,experiment,emotion,3.0,,,,1989.7395701,1001,26,female,True
742,0.1098675282440079,25,up,up,0.8277863999996953,1.98429689618761,,experiment,cRDM,3.0,,,,1998.1725712,1001,26,female,True
743,0.1098675282440079,25,up,down,0.6391481999999087,0.7737425835441754,,experiment,cRDM,3.0,,,,2000.0392207,1001,26,female,True
744,0.1098675282440079,25,down,down,0.4942078999997648,1.1597599196151889,,experiment,cRDM,3.0,,,,2002.0891398,1001,26,female,True
745,0.1098675282440079,25,down,up,0.6653508000003967,1.0480663038756135,,experiment,cRDM,3.0,,,,2003.8890626,1001,26,female,True
746,0.1098675282440079,25,up,up,0.4590680999999676,1.9129252002715904,,experiment,cRDM,3.0,,,,2006.7222818,1001,26,female,True
747,0.1098675282440079,25,down,down,0.425481000000218,1.1356664834834658,,experiment,cRDM,3.0,,,,2008.5888979,1001,26,female,True
748,0.1098675282440079,25,up,up,0.5685433000003286,1.1462609877013126,,experiment,cRDM,3.0,,,,2010.4388139,1001,26,female,True
