,stimLvl,stimTime,rand,response,rt,precedingITI,trialNumber,trialType,stimuli,block,estIntens,estThres,estSlope,trialStart,subject,age,gender,headRest
0,0.9,100,down,,,0.8954539266179291,,introTrial,cRDM,,,,,260.0509552000003,1008,20,female,True
1,150.0,100,F,,,1.6390878114660288,,introTrial,emotion,,,,,265.6673875999986,1008,20,female,True
2,200.0,25,M,up,0.4629918000027828,1.9679250104050747,,tutorial,emotion,,,,,313.5156123000015,1008,20,female,True
3,200.0,25,F,up,0.5539666000004217,0.8223532301202023,,tutorial,emotion,,,,,315.0656063999995,1008,20,female,True
4,200.0,25,F,up,0.383514400000422,0.5690402834807129,,tutorial,emotion,,,,,316.48214440000083,1008,20,female,True
5,0.0,25,F,down,0.3668422000009741,0.6545079974108206,,tutorial,emotion,,,,,317.8654549999992,1008,20,female,True
6,0.0,25,M,down,0.3668234999968263,1.2385630198960678,,tutorial,emotion,,,,,319.81541110000035,1008,20,female,True
7,200.0,25,F,up,0.3834951999997429,0.8242234841572673,,tutorial,emotion,,,,,321.3486563000006,1008,20,female,True
8,0.0,25,M,down,0.4276666000005207,1.6347577616050533,,tutorial,emotion,,,,,323.6819170000017,1008,20,female,True
9,200.0,25,M,up,0.3668537999983527,0.7748604835399757,,tutorial,emotion,,,,,325.1651767000003,1008,20,female,True
10,0.0,25,M,down,0.4497832000015478,1.5541469289548504,,tutorial,emotion,,,,,327.43177339999966,1008,20,female,True
11,0.0,25,F,down,0.45656020000024,0.3426103269958564,,tutorial,emotion,,,,,328.5150570000005,1008,20,female,True
12,0.9,25,up,up,0.4320480999995197,0.6541941092957967,,tutorial,cRDM,,,,,333.5315316999986,1008,20,female,True
13,0.9,25,up,up,0.4370553999979165,1.5853960572720884,,tutorial,cRDM,,,,,335.83144510000056,1008,20,female,True
14,0.9,25,down,down,0.4002773000029265,1.719123608969857,,tutorial,cRDM,,,,,338.2646671000002,1008,20,female,True
15,0.9,25,down,down,0.4298827999991772,0.4506924551817275,,tutorial,cRDM,,,,,339.4146550000005,1008,20,female,True
16,0.9,25,up,up,0.5139596000008169,1.8006202239805196,,tutorial,cRDM,,,,,341.9146225000004,1008,20,female,True
17,0.9,25,down,down,0.5187697999972443,1.1951263473278175,,tutorial,cRDM,,,,,343.8978105999995,1008,20,female,True
18,0.9,25,up,up,0.6211402000008093,1.60684024453275,,tutorial,cRDM,,,,,346.3144018999992,1008,20,female,True
19,0.9,25,up,up,0.283984199999395,0.587682373504545,,tutorial,cRDM,,,,,347.79753250000067,1008,20,female,True
20,0.9,25,down,down,0.4002360999984375,0.3822838996307207,,tutorial,cRDM,,,,,348.86431209999864,1008,20,female,True
21,0.9,25,down,down,0.4807006000010005,1.5587853375342131,,tutorial,cRDM,,,,,351.1308797999991,1008,20,female,True
22,100.0,25,M,up,0.7004796000001079,1.9995360098074744,,psi_staircase_training,emotion,,100.0,100.0,25.00050000000001,361.2971762000016,1008,20,female,True
23,55.0,25,M,down,0.459785600000032,0.7977838811556148,,psi_staircase_training,emotion,,54.7428094675419,54.7428094675419,25.00050000000011,363.1637821000004,1008,20,female,True
24,79.0,25,F,up,0.4630557999989833,1.4169434616376897,,psi_staircase_training,emotion,,79.636070985635,79.636070985635,25.713269254886413,365.4135489,1008,20,female,True
25,63.0,25,F,down,0.6909387999985483,0.5629636765983161,,psi_staircase_training,emotion,,62.16401670338348,62.16401670338348,25.292325986283885,366.81359710000106,1008,20,female,True
26,73.0,25,M,down,0.4167713999995612,0.9200204817247276,,psi_staircase_training,emotion,,73.53930944190891,73.53930944190891,23.64975108561003,368.7635604999996,1008,20,female,True
27,87.0,25,F,down,0.507407000000967,1.8209624115371863,,psi_staircase_training,emotion,,82.48355301883353,82.48355301883353,24.57617413513036,371.38015670000095,1008,20,female,True
28,106.0,25,M,down,0.9101206999985152,0.3927952703352402,,psi_staircase_training,emotion,,93.47321971198342,93.47321971198342,30.11570117720217,372.6634457,1008,20,female,True
29,122.0,25,F,up,0.5185762999972212,0.87827180763952,,psi_staircase_training,emotion,,106.38438652375147,106.38438652375147,35.11755585279654,374.8300202999999,1008,20,female,True
30,117.0,25,F,up,0.448961899997812,1.2973719292337969,,psi_staircase_training,emotion,,99.83666875700578,99.83666875700578,33.624951265145846,376.9966090000016,1008,20,female,True
31,113.0,25,M,up,0.4390496000014536,1.8378655359751888,,psi_staircase_training,emotion,,95.38058249628054,95.38058249628054,32.2167824305347,379.64649740000095,1008,20,female,True
32,74.0,25,F,down,0.5934732999994594,1.0920543101282538,,psi_staircase_training,emotion,,91.93529307222585,91.93529307222585,30.97015401731504,381.563105199999,1008,20,female,True
33,115.0,25,F,up,0.5275086000001465,0.4413615630723488,,psi_staircase_training,emotion,,94.7803779169802,94.7803779169802,29.793246610682463,382.9630533999989,1008,20,female,True
34,73.0,25,F,down,0.4167742999998154,0.5900003491881449,,psi_staircase_training,emotion,,92.4129293759774,92.4129293759774,28.443664633500468,384.4463266999992,1008,20,female,True
35,115.0,25,M,up,0.5273254000021552,1.2082752015277969,,psi_staircase_training,emotion,,94.45542143348356,94.45542143348356,27.163729567019807,386.3962434999994,1008,20,female,True
36,74.0,25,M,down,0.5410690999997314,1.3775925555582105,,psi_staircase_training,emotion,,92.69504627729988,92.69504627729988,25.79527070688094,388.6295089999985,1008,20,female,True
37,113.0,25,F,up,0.6788014000012481,1.253813437450754,,psi_staircase_training,emotion,,94.29863298489974,94.29863298489974,24.503300022019115,390.7627529999991,1008,20,female,True
38,77.0,25,F,down,0.5287112000005436,1.181381624740054,,psi_staircase_training,emotion,,92.8646758071757,92.8646758071757,23.17521720828103,392.99582089999967,1008,20,female,True
39,110.0,25,M,up,0.4769125999991956,1.3268653026610355,,psi_staircase_training,emotion,,94.2797459961788,94.2797459961788,21.94477260561659,395.2126585000005,1008,20,female,True
40,91.0,25,M,down,0.4833544000030088,0.7488353432336694,,psi_staircase_training,emotion,,93.01436233864746,93.01436233864746,20.72356389273468,396.7962239000008,1008,20,female,True
41,84.0,25,M,down,0.737906500002282,0.8264098484275701,,psi_staircase_training,emotion,,95.30340508591009,95.30340508591009,20.29135633944928,398.49567190000016,1008,20,female,True
42,114.0,25,M,up,0.471470299999055,1.5337898690450755,,psi_staircase_training,emotion,,96.5758552194468,96.5758552194468,19.188963607730656,401.1290448,1008,20,female,True
43,90.0,25,F,down,0.4700000999982876,0.940416184568834,,psi_staircase_training,emotion,,95.79537560507237,95.79537560507237,18.030577421831296,402.8955462999984,1008,20,female,True
44,93.0,25,F,up,0.589459300001181,0.8053315308624167,,psi_staircase_training,emotion,,97.28684856199315,97.28684856199315,17.11036841648024,404.5121063000006,1008,20,female,True
45,112.0,25,F,up,0.5883586999989348,0.695759857266232,,psi_staircase_training,emotion,,94.89050165254248,94.89050165254248,18.45508667426954,406.1621871999996,1008,20,female,True
46,79.0,25,M,down,0.6624066999975184,1.3641414076974705,,psi_staircase_training,emotion,,94.27310854773872,94.27310854773872,17.472789384368895,408.4621360000019,1008,20,female,True
47,110.0,25,M,up,0.6948314000001119,0.3373144382546831,,psi_staircase_training,emotion,,94.90006250179852,94.90006250179852,16.551531649199504,409.8287171000011,1008,20,female,True
48,82.0,25,F,down,0.7499531999965257,0.4099357428253084,,psi_staircase_training,emotion,,94.34565856544808,94.34565856544808,15.713640200959135,411.2956406000012,1008,20,female,True
49,85.0,25,F,down,0.5823686000003363,1.013209754785787,,psi_staircase_training,emotion,,94.96997309747108,94.96997309747108,14.913953096403638,413.4452566,1008,20,female,True
50,96.0,25,M,up,0.5280889999994542,1.7771001626588872,,psi_staircase_training,emotion,,95.62073171227598,95.62073171227598,14.20334103915792,416.1784799999987,1008,20,female,True
51,99.0,25,M,up,0.6567845999998099,1.7805461359744823,,psi_staircase_training,emotion,,94.33913900954168,94.33913900954168,13.985400902943384,418.8617274999997,1008,20,female,True
52,0.29,25,up,up,0.5980104000009305,1.799568457920791,,psi_staircase_training,cRDM,,0.25,0.2569312402994632,0.105,424.5615127000019,1008,20,female,True
53,0.25,25,up,up,0.4584728000008908,1.8336522376236548,,psi_staircase_training,cRDM,,0.2191026665318312,0.2260132002683492,0.1046863203387393,427.2780886000001,1008,20,female,True
54,0.21,25,down,down,0.6121782000009262,0.3053476291903531,,psi_staircase_training,cRDM,,0.1900540959403307,0.1968497961554001,0.1029467298424999,428.3114028999989,1008,20,female,True
55,0.18,25,down,up,0.5995707000001858,1.6376144679778089,,psi_staircase_training,cRDM,,0.1635257589279754,0.1701521334256793,0.1003816477568649,430.8279562999997,1008,20,female,True
56,0.28,25,up,up,0.6236830000016198,1.3182523352564004,,psi_staircase_training,cRDM,,0.2462894156509761,0.253676874431043,0.111911164292932,433.0278767000018,1008,20,female,True
57,0.26,25,down,down,0.4847923000015726,0.592522342881872,,psi_staircase_training,cRDM,,0.224020924517144,0.2312720210897802,0.1098454399547734,434.5278135000008,1008,20,female,True
58,0.23,25,up,up,0.4384620000018913,0.6710298116362765,,psi_staircase_training,cRDM,,0.2047781477371871,0.211824604656558,0.106745393979666,435.9610949999988,1008,20,female,True
59,0.23,25,down,down,0.4635476000003109,1.3835765317309583,,psi_staircase_training,cRDM,,0.1874201716315257,0.1943184465858974,0.1045006144520947,438.0609957999986,1008,20,female,True
60,0.21,25,down,down,0.4475410000013653,0.4262114914883805,,psi_staircase_training,cRDM,,0.1734597158637905,0.1801271287888497,0.1010033308447589,439.21098500000153,1008,20,female,True
61,0.17,25,up,up,0.5040681000027689,1.8558933457344948,,psi_staircase_training,cRDM,,0.1604596670362223,0.167027966793554,0.0995018849040958,441.79447359999904,1008,20,female,True
62,0.17,25,down,down,0.4700903999982984,1.2103187759544365,,psi_staircase_training,cRDM,,0.1444495168362478,0.1514653128703286,0.1062809182413607,443.7774494000005,1008,20,female,True
63,0.16,25,down,up,0.5700873999994656,0.8021539450570203,,psi_staircase_training,cRDM,,0.129450188150751,0.1367437410700543,0.1104886028242535,445.3274347000006,1008,20,female,True
64,0.22,25,down,down,0.4262116999998397,1.3198467125657358,,psi_staircase_training,cRDM,,0.17396020279296,0.1807572427427678,0.1029670252213135,447.4773228000013,1008,20,female,True
65,0.19,25,up,up,0.512905800002045,0.489324224891049,,psi_staircase_training,cRDM,,0.1655563016517874,0.1720733007365464,0.0987247410759487,448.6606326000001,1008,20,female,True
66,0.16,25,up,up,0.4463586999991094,1.3172103154761226,,psi_staircase_training,cRDM,,0.1551367065662806,0.1618351803618357,0.1014738658805038,450.77720879999833,1008,20,female,True
67,0.16,25,down,up,0.4344990999998117,1.310797941365042,,psi_staircase_training,cRDM,,0.1425517484317743,0.1498959077305909,0.1112552289430025,452.7940696000005,1008,20,female,True
68,0.21,25,down,down,0.4167822000017622,1.2539689704737031,,psi_staircase_training,cRDM,,0.1740457498739683,0.1800948263783671,0.0916362736711136,454.7437424999989,1008,20,female,True
69,0.2,25,up,up,0.4825832999995327,0.7520195269169488,,psi_staircase_training,cRDM,,0.1680826395665373,0.173829461428732,0.0870574773720039,456.19395259999874,1008,20,female,True
70,0.19,25,up,up,0.446639600002527,1.6722648906562685,,psi_staircase_training,cRDM,,0.162528825324998,0.1680907935787693,0.084257166309933,458.62691020000057,1008,20,female,True
71,0.16,25,up,up,0.4168155999977898,1.376011952755482,,psi_staircase_training,cRDM,,0.1565495146048565,0.1621149522710415,0.0843097237581961,460.7434996000011,1008,20,female,True
72,0.16,25,up,up,0.4245028000004822,1.762906483092042,,psi_staircase_training,cRDM,,0.1464735688440548,0.1528435427494219,0.0964974854666825,463.2100805000009,1008,20,female,True
73,0.15,25,down,down,0.5923452999995789,0.6026489091615895,,psi_staircase_training,cRDM,,0.1361223734017433,0.1432116719664053,0.1073943936624387,464.4932165999999,1008,20,female,True
74,0.15,25,down,up,0.4002602000000479,0.8516396473427412,,psi_staircase_training,cRDM,,0.1255523819949334,0.1333286766882337,0.1178015632872754,466.21003049999854,1008,20,female,True
75,0.16,25,down,down,0.4863728000018454,1.2530937430888154,,psi_staircase_training,cRDM,,0.1521138708623854,0.158458103240895,0.0961075321245312,468.1432538000008,1008,20,female,True
76,0.15,25,up,up,0.582734799998434,1.8421491974740687,,psi_staircase_training,cRDM,,0.1430745976895091,0.1501150986487104,0.1066551683070905,470.7598147999997,1008,20,female,True
77,0.15,25,up,down,0.589789199999359,1.0272192430056066,,psi_staircase_training,cRDM,,0.1336691671741608,0.1414179689701901,0.1173850787781925,472.65974800000185,1008,20,female,True
78,0.2,25,down,up,0.400248099998862,1.8408785586422736,,psi_staircase_training,cRDM,,0.156306991950639,0.1626097909796882,0.095479866439116,475.3596491999997,1008,20,female,True
79,0.23,25,down,down,0.8909583999993629,0.6152481275385151,,psi_staircase_training,cRDM,,0.1731746247482541,0.1812222883938297,0.1219124783266955,476.65961160000006,1008,20,female,True
80,0.23,25,up,up,0.4690327999996952,0.5309325481189685,,psi_staircase_training,cRDM,,0.168531664388838,0.17626424221949,0.1171393051083994,478.3595381999985,1008,20,female,True
81,0.18,25,up,up,0.503393099999812,1.2650432690352438,,psi_staircase_training,cRDM,,0.1649611125323802,0.1723642834685956,0.1121491846650902,480.3761634000002,1008,20,female,True
82,100.0,25,M,up,0.4005042999997386,1.0049009626850725,,psi_staircase,emotion,,100.0,100.0,25.00050000000001,503.6918908000007,1008,20,female,True
83,55.0,25,M,down,0.4656433999989531,0.4831887434172665,,psi_staircase,emotion,,54.7428094675419,54.7428094675419,25.00050000000011,504.9418836000005,1008,20,female,True
84,79.0,25,F,down,0.4563636000020779,1.1509700822158508,,psi_staircase,emotion,,79.636070985635,79.636070985635,25.713269254886413,506.9251747999988,1008,20,female,True
85,103.0,25,F,up,0.6164886000005936,1.5163746475427076,,psi_staircase,emotion,,97.61123893914808,97.61123893914808,26.1463337262867,509.2750487000012,1008,20,female,True
86,87.0,25,M,down,0.5499240000026475,1.6265798501943896,,psi_staircase,emotion,,85.98876744579668,85.98876744579668,23.003056417783498,511.89162990000113,1008,20,female,True
87,95.0,25,F,down,0.3668656000008923,0.7648302480954047,,psi_staircase,emotion,,95.05640406123077,95.05640406123077,22.150603223582728,513.5748877000005,1008,20,female,True
88,108.0,25,M,up,0.6209941999986768,0.560409301346195,,psi_staircase,emotion,,102.67895770092096,102.67895770092096,23.933073614491192,514.9415475999995,1008,20,female,True
89,105.0,25,F,up,0.5474850999999035,0.3768560443753622,,psi_staircase,emotion,,97.15511396427232,97.15511396427232,20.021669804154147,516.3081310000016,1008,20,female,True
90,92.0,25,F,down,0.3835347999993246,0.7404775558442414,,psi_staircase,emotion,,94.35050340433408,94.35050340433408,16.907117635955494,517.9747392999998,1008,20,female,True
91,97.0,25,M,up,0.8052585999976145,1.1042751816316974,,psi_staircase,emotion,,97.3372187693312,97.3372187693312,13.849209143469048,519.8413146999992,1008,20,female,True
92,90.0,25,F,down,0.6506098999998358,0.8948378099434884,,psi_staircase,emotion,,94.50437421722592,94.50437421722592,14.319062567856996,521.9079652,1008,20,female,True
93,99.0,25,F,up,0.7984102000009443,0.4615255219262277,,psi_staircase,emotion,,96.20389002940608,96.20389002940608,11.34697851235802,523.391148499999,1008,20,female,True
94,94.0,25,F,up,1.2354408000028343,1.2178677348127025,,psi_staircase,emotion,,95.02868210239124,95.02868210239124,9.006440529278338,525.7411235,1008,20,female,True
95,86.0,25,M,down,0.6448607999991509,1.1214072673710571,,psi_staircase,emotion,,92.5967571504136,92.5967571504136,13.319930655406107,528.4577011000001,1008,20,female,True
96,88.0,25,M,down,0.6135782999990624,0.3513339056562692,,psi_staircase,emotion,,93.87658957778692,93.87658957778692,10.66637682248261,529.7909559,1008,20,female,True
97,100.0,25,F,down,0.4783317000001261,1.0612378850407531,,psi_staircase,emotion,,94.63293729962037,94.63293729962037,8.665323424103173,531.8242591999988,1008,20,female,True
98,108.0,25,F,up,0.4670942000011564,1.576646845530305,,psi_staircase,emotion,,96.9207901808159,96.9207901808159,15.578554585546602,534.2574787999984,1008,20,female,True
99,107.0,25,M,up,0.540497800000594,0.5907922132283354,,psi_staircase,emotion,,96.02299402653416,96.02299402653416,13.340881328759842,535.6740663000019,1008,20,female,True
100,86.0,25,M,up,0.5061808999998902,0.4591687660080304,,psi_staircase,emotion,,95.48023995178322,95.48023995178322,11.580924129670478,537.0073833999995,1008,20,female,True
101,77.0,25,M,down,0.3501772000017809,0.6449303716067893,,psi_staircase,emotion,,92.8497834852026,92.8497834852026,19.42768178000984,538.5073441999994,1008,20,female,True
102,78.0,25,M,down,0.4001509999980044,1.0476789191365496,,psi_staircase,emotion,,93.68712134047512,93.68712134047512,17.518359619310484,540.3239434999996,1008,20,female,True
103,109.0,25,F,up,0.5679875999994692,0.4423533420845935,,psi_staircase,emotion,,94.27760851277624,94.27760851277624,15.8871594641892,541.5405318000012,1008,20,female,True
104,80.0,25,F,down,0.5824118999989878,1.053111187760071,,psi_staircase,emotion,,93.80469201080976,93.80469201080976,14.436306953352467,543.5071459999999,1008,20,female,True
105,108.0,25,F,up,0.473490699998365,0.867872975756913,,psi_staircase,emotion,,94.25268081637464,94.25268081637464,13.148593939612727,545.3070693000009,1008,20,female,True
106,82.0,25,M,down,0.5839340999991691,1.7870605961243229,,psi_staircase,emotion,,93.92090572783712,93.92090572783712,12.071020632644242,547.9236364999997,1008,20,female,True
107,83.0,25,M,up,0.4167474999994738,1.974811016654452,,psi_staircase,emotion,,94.28138316947128,94.28138316947128,11.10703379468783,550.8401995999993,1008,20,female,True
108,76.0,25,F,up,0.4680908000009367,1.295200916962626,,psi_staircase,emotion,,92.60248115277813,92.60248115277813,15.752119473123456,552.9234768999995,1008,20,female,True
109,68.0,25,F,down,0.4398399000019708,1.494756290617182,,psi_staircase,emotion,,90.45266970606528,90.45266970606528,22.478193364666456,555.2566962000019,1008,20,female,True
110,69.0,25,M,down,0.3834977999977127,1.323179360785146,,psi_staircase,emotion,,90.96590883605822,90.96590883605822,21.191262047037245,557.3732762,1008,20,female,True
111,113.0,25,M,up,0.4666228000023693,0.5684360604218359,,psi_staircase,emotion,,91.37609075667775,91.37609075667775,20.03124142095628,558.7399366999998,1008,20,female,True
112,71.0,25,F,down,0.5821424999994633,1.370165269952537,,psi_staircase,emotion,,90.9987758618082,90.9987758618082,18.94754808277264,560.9564011000002,1008,20,female,True
113,111.0,25,M,up,0.5528257000005397,1.1400060919006538,,psi_staircase,emotion,,91.3492458436875,91.3492458436875,17.948970103673105,563.0397524,1008,20,female,True
114,72.0,25,F,down,0.4459301999995659,1.675759668766832,,psi_staircase,emotion,,91.02893884751197,91.02893884751197,17.034984673577696,565.6396534000014,1008,20,female,True
115,109.0,25,M,up,0.592267100000754,1.5448168593555187,,psi_staircase,emotion,,91.3197809923523,91.3197809923523,16.219030016451747,568.0062279999984,1008,20,female,True
116,74.0,25,F,down,0.548104699999385,1.80268718110915,,psi_staircase,emotion,,91.03771874150364,91.03771874150364,15.466312994732183,570.7394577000014,1008,20,female,True
117,108.0,25,M,up,0.5288835999999719,0.4945786220173751,,psi_staircase,emotion,,91.30532072060052,91.30532072060052,14.79338388042527,572.1227252999997,1008,20,female,True
118,76.0,25,F,down,0.4707114000011643,0.9035310431394252,,psi_staircase,emotion,,91.06416508726292,91.06416508726292,14.19113746708648,573.9060372999993,1008,20,female,True
119,106.0,25,M,up,0.5458796999992046,1.1721645216244876,,psi_staircase,emotion,,91.3219660187462,91.3219660187462,13.635479675591451,575.9226072999991,1008,20,female,True
120,77.0,25,M,down,0.4933445000024221,0.8059843008803074,,psi_staircase,emotion,,91.08918519451028,91.08918519451028,13.138083106735952,577.6392363000014,1008,20,female,True
121,78.0,25,F,down,0.528672500000539,0.3246380395037365,,psi_staircase,emotion,,91.3264603216386,91.3264603216386,12.68284201242284,578.8058378999995,1008,20,female,True
122,105.0,25,F,down,0.7106473999992886,0.9882058371747328,,psi_staircase,emotion,,91.5503012861831,91.5503012861831,12.27588738190996,580.6889259000018,1008,20,female,True
123,110.0,25,F,up,0.6685763999994379,1.6743661026352823,,psi_staircase,emotion,,92.85005552848092,92.85005552848092,14.603005405033022,583.438994600001,1008,20,female,True
124,109.0,25,M,up,0.5839457000001858,1.1315606916117955,,psi_staircase,emotion,,92.63602379174912,92.63602379174912,14.125532684895417,585.6055889000017,1008,20,female,True
125,78.0,25,M,down,0.4850107000020216,0.5774154878143642,,psi_staircase,emotion,,92.44085565870292,92.44085565870292,13.702929542416344,587.1055216999994,1008,20,female,True
126,108.0,25,F,down,0.4980657000014616,0.3847693470018088,,psi_staircase,emotion,,92.65734064582756,92.65734064582756,13.30830230291406,588.3054712999983,1008,20,female,True
127,112.0,25,F,up,0.5081614999980957,1.3448597955603718,,psi_staircase,emotion,,93.87166711091596,93.87166711091596,15.664305353319444,590.5054219000012,1008,20,female,True
128,77.0,25,F,down,0.4800417000005836,0.8937303838094071,,psi_staircase,emotion,,93.6711439394978,93.6711439394978,15.202882758048125,592.2885209000015,1008,20,female,True
129,111.0,25,M,up,0.5350476999992679,0.5475913583287433,,psi_staircase,emotion,,93.8651332015928,93.8651332015928,14.79112289914117,593.6884678999995,1008,20,female,True
130,78.0,25,M,down,0.5007146999996621,0.73466614565854,,psi_staircase,emotion,,93.68121973035792,93.68121973035792,14.405986903574934,595.2888190999984,1008,20,female,True
131,110.0,25,M,up,0.5563847000012174,0.6039186360629273,,psi_staircase,emotion,,93.8698517642436,93.8698517642436,14.054299655383192,596.7551778999987,1008,20,female,True
132,0.29,25,up,up,0.4545054999980493,0.8708141150567912,,psi_staircase,cRDM,,0.25,0.2569312402994632,0.105,602.1880627999999,1008,20,female,True
133,0.25,25,up,up,0.5860441000004357,1.402696974135344,,psi_staircase,cRDM,,0.2191026665318312,0.2260132002683492,0.1046863203387393,604.3215544999985,1008,20,female,True
134,0.21,25,down,down,0.6953667000016139,0.620338150913981,,psi_staircase,cRDM,,0.1900540959403307,0.1968497961554001,0.1029467298424999,605.7881617999992,1008,20,female,True
135,0.18,25,down,down,0.9437856000004105,0.3884860740753089,,psi_staircase,cRDM,,0.1635257589279754,0.1701521334256793,0.1003816477568649,607.1547615999989,1008,20,female,True
136,0.15,25,up,up,0.6628504000000248,1.3906943095790365,,psi_staircase,cRDM,,0.1401895574244936,0.1466013351187503,0.0971307628663642,609.7547196000014,1008,20,female,True
137,0.13,25,down,down,0.6978424999979325,0.5928614607468106,,psi_staircase,cRDM,,0.1198760602145479,0.1260554767618333,0.0936107694196103,611.2877367000001,1008,20,female,True
138,0.11,25,up,up,0.6623685999984446,1.2141769451832094,,psi_staircase,cRDM,,0.1025773523696548,0.1084910344569865,0.0895852101993795,613.471205400001,1008,20,female,True
139,0.09,25,down,down,0.5224228000006406,0.8101199101491352,,psi_staircase,cRDM,,0.087844325958594,0.0934818215320969,0.0854013148647635,615.2211601000017,1008,20,female,True
140,0.08,25,down,up,0.9475023999984842,0.4935997307273191,,psi_staircase,cRDM,,0.0751852092118086,0.0805556301471181,0.0813554535472043,616.4880292000016,1008,20,female,True
141,0.13,25,up,up,0.6999346000011428,1.0754480892937286,,psi_staircase,cRDM,,0.1145374077699418,0.1210371210567565,0.0984628819128368,618.7876152999997,1008,20,female,True
142,0.13,25,down,down,1.0873171999992337,1.912932657295446,,psi_staircase,cRDM,,0.1023941484636293,0.108577482786431,0.0936701190325844,621.6542570999991,1008,20,female,True
143,0.12,25,down,up,0.6010466000007,0.5412344729411718,,psi_staircase,cRDM,,0.093157405715179,0.098965388034743,0.0879839851464166,623.5375114000017,1008,20,female,True
144,0.16,25,down,up,0.7677977000021201,0.978164593424671,,psi_staircase,cRDM,,0.1290085181734406,0.136602985232638,0.1150470921167567,625.3707667000017,1008,20,female,True
145,0.24,25,up,up,0.6811705000000075,0.4440362487236419,,psi_staircase,cRDM,,0.1788603424188762,0.1876178768364819,0.1326661714382919,626.8373896999983,1008,20,female,True
146,0.22,25,up,up,0.7025472999994236,0.7295806758596876,,psi_staircase,cRDM,,0.16336081276155,0.1719962849680989,0.1308170749408079,628.5040098999998,1008,20,female,True
147,0.2,25,down,up,1.587328500001604,1.3645824456623918,,psi_staircase,cRDM,,0.1503833373960209,0.1588660607734993,0.1285031128850356,630.8372409000003,1008,20,female,True
148,0.26,25,down,down,0.567376899998635,1.1427798540944043,,psi_staircase,cRDM,,0.1990476274998963,0.2081380084305483,0.1377083979893715,633.8371477000001,1008,20,female,True
149,0.25,25,up,up,0.5737807000004977,0.5827569249461126,,psi_staircase,cRDM,,0.1850781251139168,0.1940463527800409,0.1358579221407097,635.2537536999989,1008,20,female,True
150,0.24,25,up,up,0.5758662000007462,0.367507604470415,,psi_staircase,cRDM,,0.1736360066582784,0.1824376675479729,0.1333346347102536,636.4537060000002,1008,20,female,True
151,0.19,25,up,up,0.6252242999980808,1.0818902676725966,,psi_staircase,cRDM,,0.1641735271288374,0.1727931520845906,0.1305770080463322,638.3702871999994,1008,20,female,True
152,0.18,25,up,up,0.6404055999992124,1.92627004261466,,psi_staircase,cRDM,,0.1523971094327324,0.161289629412107,0.1347110412412964,641.187125299999,1008,20,female,True
153,0.18,25,down,up,0.5494722000003094,0.5893287158135068,,psi_staircase,cRDM,,0.1415558720559937,0.1506686431235906,0.1380475817829841,642.6701223000018,1008,20,female,True
154,0.24,25,down,down,0.8605683000023419,1.6143896034331855,,psi_staircase,cRDM,,0.1745986191276165,0.1833024013196611,0.1318518895147021,645.0869901000005,1008,20,female,True
155,0.18,25,down,down,0.6442567000012787,1.6405428893206684,,psi_staircase,cRDM,,0.167375709673228,0.1758539783131288,0.1284356289390968,647.8532860999985,1008,20,female,True
156,0.18,25,up,up,0.6183612999993784,0.896891524862258,,psi_staircase,cRDM,,0.1568056558011647,0.1657051082399673,0.1348160597096362,649.6532193999992,1008,20,female,True
157,0.18,25,up,up,0.6202584999991814,1.840331233148844,,psi_staircase,cRDM,,0.1471022582485308,0.1563038931089707,0.1393937619535431,652.3863802000014,1008,20,female,True
158,0.18,25,down,down,0.6708601000027556,1.6942779422812375,,psi_staircase,cRDM,,0.1384084555392968,0.1478107205688849,0.1424330690400683,654.9696872999994,1008,20,female,True
159,0.16,25,down,down,0.5689858000005188,0.6759444539519541,,psi_staircase,cRDM,,0.1307259235577205,0.1402481583978853,0.1442504681730221,656.5696104999988,1008,20,female,True
160,0.16,25,up,up,0.5786914999989676,1.698268753656743,,psi_staircase,cRDM,,0.1232953313475686,0.1329583243074467,0.1463827853242603,659.1029092999997,1008,20,female,True
161,0.16,25,up,up,0.6104199000001245,1.4954011304452277,,psi_staircase,cRDM,,0.1166491694802829,0.1263944540543277,0.1476294048489322,661.4361269000001,1008,20,female,True
162,0.16,25,down,up,0.6742358999981661,1.0785949299953104,,psi_staircase,cRDM,,0.110710759208134,0.1204940977494151,0.1482058769357717,663.3863074000001,1008,20,female,True
163,0.19,25,up,up,0.6395821000005526,1.408815084081842,,psi_staircase,cRDM,,0.1313976831829466,0.1411621544633951,0.1479200605015075,665.7359557000018,1008,20,female,True
164,0.15,25,down,down,0.6353435999990324,0.6260489146070547,,psi_staircase,cRDM,,0.12586652388718,0.1356248643268951,0.1478271855975669,667.2692400000014,1008,20,female,True
165,0.15,25,up,up,0.5758072999997239,0.512870456789666,,psi_staircase,cRDM,,0.1196908621364958,0.1295646898410485,0.1495766795241999,668.6857197999998,1008,20,female,True
166,0.16,25,down,down,0.616426100001263,0.4806013661256861,,psi_staircase,cRDM,,0.1140420137006655,0.1239916242128103,0.1507246984145243,669.986052799999,1008,20,female,True
167,0.15,25,up,up,0.5678203999996185,0.4767677990907085,,psi_staircase,cRDM,,0.1090902497489584,0.1190640715672314,0.151091470742944,671.3357426000002,1008,20,female,True
168,0.15,25,down,down,0.9021665000000212,0.8862902528986896,,psi_staircase,cRDM,,0.1043419678783952,0.1143412794232525,0.1514776096121386,673.0523591000019,1008,20,female,True
169,0.18,25,up,up,0.4936354000019491,1.7560316000772236,,psi_staircase,cRDM,,0.0999715208908472,0.1099787121004231,0.1515969771076661,675.9688974000019,1008,20,female,True
170,0.15,25,up,up,0.5553925999993226,0.9222606490368864,,psi_staircase,cRDM,,0.096599781993414,0.1065538126929514,0.1507916589664861,677.6521790000006,1008,20,female,True
171,0.15,25,down,up,0.7007001999991189,0.3592903789440262,,psi_staircase,cRDM,,0.092834523827894,0.1027769493626206,0.1506158546006743,678.8188217999996,1008,20,female,True
172,0.2,25,down,down,0.4924963999983447,1.886633517549036,,psi_staircase,cRDM,,0.1073564511614793,0.1173906502950101,0.1520061148510923,681.6520582999983,1008,20,female,True
173,0.14,25,down,down,0.5305743000026268,0.3961315907941235,,psi_staircase,cRDM,,0.1043855327175241,0.1143520339025734,0.150980571905899,682.8019950000016,1008,20,female,True
174,0.14,25,up,up,0.472917300001427,0.918852353273957,,psi_staircase,cRDM,,0.1002922832716114,0.110297551212303,0.1515678418845127,684.5186111000003,1008,20,female,True
175,0.2,25,up,up,0.4986581000011938,0.9930132183764582,,psi_staircase,cRDM,,0.0964624364847514,0.1064925510294029,0.1519442382151956,686.2518745999987,1008,20,female,True
176,0.14,25,down,up,0.5945713000000978,0.5852293853443767,,psi_staircase,cRDM,,0.0940832793173015,0.1040434740578397,0.150885036814768,687.5849889000019,1008,20,female,True
177,0.14,25,down,up,0.5814528000009886,1.5890911610872045,,psi_staircase,cRDM,,0.1070656984613584,0.1169767696846626,0.1501408742858808,690.0350771999983,1008,20,female,True
178,0.2,25,down,down,0.5145793000010599,1.9564748286492213,,psi_staircase,cRDM,,0.1203084137490558,0.1300557680005055,0.1476607579860537,692.8349554000015,1008,20,female,True
179,0.14,25,up,up,0.6623342000020784,0.4739403734178982,,psi_staircase,cRDM,,0.1175302868956357,0.1271981615247027,0.1464567367734516,694.0851833000015,1008,20,female,True
180,0.14,25,up,up,0.574823999999353,0.3734801533718404,,psi_staircase,cRDM,,0.1133918087861046,0.1231570675803323,0.1479319903933071,695.3847457000011,1008,20,female,True
181,0.13,25,up,up,0.5462168999983987,0.7195380577533363,,psi_staircase,cRDM,,0.1094950471472838,0.1193334931964843,0.1490406897660225,696.951475599999,1008,20,female,True
182,99.0,25,F,down,0.8728654000005918,1.0330379787197264,,experiment,emotion,0.0,,,,710.3176791000005,1008,20,female,True
183,88.0,25,M,down,0.705671200001234,1.1672529434831675,,experiment,emotion,0.0,,,,712.650899799999,1008,20,female,True
184,95.0,25,F,up,0.9593943999971088,1.274615765331757,,experiment,emotion,0.0,,,,714.9341553000013,1008,20,female,True
185,99.0,25,M,up,0.6555246000025363,0.4226899427942095,,experiment,emotion,0.0,,,,716.5840390000012,1008,20,female,True
186,95.0,25,F,up,0.5402257000023383,0.3104537153649706,,experiment,emotion,0.0,,,,717.8173788999993,1008,20,female,True
187,91.0,25,F,down,0.7692973999983224,1.6084406132680966,,experiment,emotion,0.0,,,,720.2672730999984,1008,20,female,True
188,88.0,25,M,down,1.4284220000008645,1.707375033357352,,experiment,emotion,0.0,,,,723.0171344000009,1008,20,female,True
189,91.0,25,F,down,0.6497922999988077,0.6076789110949954,,experiment,emotion,0.0,,,,725.3337935999989,1008,20,female,True
190,99.0,25,M,up,1.516210099998716,0.4820286027427556,,experiment,emotion,0.0,,,,726.7504208999999,1008,20,female,True
191,91.0,25,M,down,0.6546533000000636,1.8373732556937123,,experiment,emotion,0.0,,,,730.3669097999991,1008,20,female,True
192,95.0,25,F,down,0.8866654999983439,1.2429620451325605,,experiment,emotion,0.0,,,,732.5668454000006,1008,20,female,True
193,99.0,25,M,up,0.6188141999991785,0.9893722084282144,,experiment,emotion,0.0,,,,734.7167549000005,1008,20,female,True
194,95.0,25,M,down,0.7445163000011235,0.4488710633101815,,experiment,emotion,0.0,,,,736.0500286999995,1008,20,female,True
195,88.0,25,M,down,0.8285848999985319,1.3176358066878353,,experiment,emotion,0.0,,,,738.3999957999986,1008,20,female,True
196,91.0,25,F,down,0.6453494999987015,1.4371241665370993,,experiment,emotion,0.0,,,,740.9331759999986,1008,20,female,True
197,88.0,25,F,down,1.048460799996974,1.592269009221047,,experiment,emotion,0.0,,,,743.4330981999992,1008,20,female,True
198,99.0,25,M,down,0.6861853000009432,1.570346085480258,,experiment,emotion,0.0,,,,746.3163467000013,1008,20,female,True
199,88.0,25,M,down,0.9376436000020476,0.463012425867648,,experiment,emotion,0.0,,,,747.7329137000015,1008,20,female,True
200,95.0,25,F,down,1.488079199996719,1.894236334388671,,experiment,emotion,0.0,,,,750.8494761000002,1008,20,female,True
201,95.0,25,F,up,1.3281534000016109,0.6317561335505597,,experiment,emotion,0.0,,,,753.2494130000014,1008,20,female,True
202,91.0,25,M,down,1.0541260999998483,0.3946650147318132,,experiment,emotion,0.0,,,,755.2824245000011,1008,20,female,True
203,91.0,25,F,down,1.0692789999993693,0.8075441259746183,,experiment,emotion,0.0,,,,757.3992728999983,1008,20,female,True
204,88.0,25,M,down,1.3524046000020462,1.1781409674417678,,experiment,emotion,0.0,,,,759.9491501000011,1008,20,female,True
205,99.0,25,F,down,0.7440753000009863,0.7282506588975457,,experiment,emotion,0.0,,,,762.3324255000007,1008,20,female,True
206,95.0,25,F,down,0.9988808999987668,0.802333944546807,,experiment,emotion,0.0,,,,764.1656795000017,1008,20,female,True
207,88.0,25,M,up,0.868299300000217,1.9054439312075304,,experiment,emotion,0.0,,,,767.3322258000007,1008,20,female,True
208,99.0,25,M,down,1.1531011999977636,1.655589735068548,,experiment,emotion,0.0,,,,770.1154258999995,1008,20,female,True
209,99.0,25,F,down,0.6808894999994664,1.6025812890126443,,experiment,emotion,0.0,,,,773.148670300001,1008,20,female,True
210,91.0,25,M,down,0.73939160000009,1.2514332559042038,,experiment,emotion,0.0,,,,775.3821725000016,1008,20,female,True
211,88.0,25,F,down,0.5119305000007444,0.5848812446888458,,experiment,emotion,0.0,,,,776.9816692999993,1008,20,female,True
212,91.0,25,M,down,0.5290144999999029,0.4907221261576266,,experiment,emotion,0.0,,,,778.2484817000004,1008,20,female,True
213,95.0,25,F,down,0.539217200002895,1.990913687186963,,experiment,emotion,0.0,,,,781.0653039999997,1008,20,female,True
214,88.0,25,M,down,0.4858566999973845,0.3606250246989502,,experiment,emotion,0.0,,,,782.2316926999993,1008,20,female,True
215,99.0,25,F,down,0.9378714000013132,0.7633428374385083,,experiment,emotion,0.0,,,,783.7316062999998,1008,20,female,True
216,95.0,25,M,down,0.6890149000028032,0.904291018342751,,experiment,emotion,0.0,,,,785.8315469000008,1008,20,female,True
217,99.0,25,F,down,0.6049731000020984,1.0721405423373125,,experiment,emotion,0.0,,,,787.8646437999996,1008,20,female,True
218,88.0,25,M,down,0.7961857999980566,1.795585572223369,,experiment,emotion,0.0,,,,790.5313773999987,1008,20,female,True
219,95.0,25,F,up,0.8462304000022414,0.6361295805935023,,experiment,emotion,0.0,,,,792.2313084999987,1008,20,female,True
220,91.0,25,M,down,0.7263376999981119,0.9461798102921406,,experiment,emotion,0.0,,,,794.3312215000005,1008,20,female,True
221,91.0,25,F,down,0.8317601999988256,0.5403455708925046,,experiment,emotion,0.0,,,,795.8647587999985,1008,20,female,True
222,95.0,25,F,up,0.7254417000003741,0.6558471036394573,,experiment,emotion,0.0,,,,797.6311090000017,1008,20,female,True
223,99.0,25,M,up,0.6698302000004333,0.4220828454217802,,experiment,emotion,0.0,,,,799.0477142000018,1008,20,female,True
224,91.0,25,F,up,1.5237731999986863,0.6914095053432637,,experiment,emotion,0.0,,,,800.6808122000002,1008,20,female,True
225,88.0,25,M,down,1.152019500001188,1.6802442228745456,,experiment,emotion,0.0,,,,804.1975438000009,1008,20,female,True
226,88.0,25,M,down,0.7237676000004285,0.8143704514476444,,experiment,emotion,0.0,,,,806.4307896999999,1008,20,female,True
227,91.0,25,F,down,0.6157985999998346,1.2135564789775544,,experiment,emotion,0.0,,,,808.6307319000007,1008,20,female,True
228,99.0,25,F,up,0.6652407000001404,1.7933175983131873,,experiment,emotion,0.0,,,,811.2972751000016,1008,20,female,True
229,95.0,25,M,down,0.6756134999995993,1.061870996461932,,experiment,emotion,0.0,,,,813.3138671000015,1008,20,female,True
230,88.0,25,F,down,0.6304073000028438,1.6303559866811002,,experiment,emotion,0.0,,,,815.8971152999984,1008,20,female,True
231,99.0,25,M,up,0.9508227000005718,0.3565640955387196,,experiment,emotion,0.0,,,,817.163738700001,1008,20,female,True
232,95.0,25,M,up,1.0065295999993396,1.560021689759986,,experiment,emotion,0.0,,,,819.9469761,1008,20,female,True
233,95.0,25,M,up,1.1733874999990803,1.3352822554387542,,experiment,emotion,0.0,,,,822.5801480000009,1008,20,female,True
234,88.0,25,M,up,0.757436100000632,1.2053441381628789,,experiment,emotion,0.0,,,,825.2300863000019,1008,20,female,True
235,91.0,25,M,down,0.6106027999994694,1.5874302734959138,,experiment,emotion,0.0,,,,827.8799399000018,1008,20,female,True
236,99.0,25,F,up,1.1905766999989282,0.554577697943442,,experiment,emotion,0.0,,,,829.3299503999988,1008,20,female,True
237,91.0,25,F,down,1.8350229999996368,0.909559843058291,,experiment,emotion,0.0,,,,831.6965234000018,1008,20,female,True
238,91.0,25,F,up,0.6067762000020593,1.037968571912669,,experiment,emotion,0.0,,,,834.8297633000002,1008,20,female,True
239,91.0,25,M,down,1.406311499998992,1.6852330108674132,,experiment,emotion,0.0,,,,837.3962939999983,1008,20,female,True
240,99.0,25,F,down,0.5993263999989722,1.3728077576473807,,experiment,emotion,0.0,,,,840.4462195999986,1008,20,female,True
241,95.0,25,F,down,0.5077923000026203,1.2693733859755536,,experiment,emotion,0.0,,,,842.6127726000013,1008,20,female,True
242,88.0,25,F,down,0.5388497999992978,1.1529746296766874,,experiment,emotion,0.0,,,,844.5626900999996,1008,20,female,True
243,88.0,25,M,down,0.7062105000004522,0.868596242422637,,experiment,emotion,0.0,,,,846.2293132999985,1008,20,female,True
244,95.0,25,F,down,0.4466485000011744,1.045794849667321,,experiment,emotion,0.0,,,,848.2458895000018,1008,20,female,True
245,99.0,25,M,down,1.1563165000006848,0.7650280491632238,,experiment,emotion,0.0,,,,849.7291905999991,1008,20,female,True
246,99.0,25,M,down,0.4913597000013396,0.7560220995913685,,experiment,emotion,0.0,,,,851.9291082999989,1008,20,female,True
247,88.0,25,F,down,0.9675232000008692,1.0519416706156228,,experiment,emotion,0.0,,,,853.7290299000015,1008,20,female,True
248,99.0,25,M,down,0.5085597000033886,1.1669794106628946,,experiment,emotion,0.0,,,,856.1289800000013,1008,20,female,True
249,91.0,25,F,down,0.8029951999997138,1.251630993963722,,experiment,emotion,0.0,,,,858.1955376000005,1008,20,female,True
250,95.0,25,M,down,0.7705834000007599,1.5753285668111905,,experiment,emotion,0.0,,,,860.8619379000011,1008,20,female,True
251,91.0,25,F,down,0.5381721000012476,1.8010578053234871,,experiment,emotion,0.0,,,,863.6953532000007,1008,20,female,True
252,88.0,25,M,down,0.3834984999994049,1.6725037638502491,,experiment,emotion,0.0,,,,866.1952396999986,1008,20,female,True
253,95.0,25,F,down,0.3836069999997562,1.9830629249181184,,experiment,emotion,0.0,,,,868.8617129000013,1008,20,female,True
254,91.0,25,F,down,0.333638999996765,0.950876246143986,,experiment,emotion,0.0,,,,870.4950949999984,1008,20,female,True
255,95.0,25,F,down,0.3001782999999705,0.6067395376203011,,experiment,emotion,0.0,,,,871.7950601000011,1008,20,female,True
256,88.0,25,F,down,0.2501628999998502,0.8152457726157694,,experiment,emotion,0.0,,,,873.2950124999988,1008,20,female,True
257,99.0,25,F,down,0.3001894000008178,0.659102996319538,,experiment,emotion,0.0,,,,874.6615820000006,1008,20,female,True
258,95.0,25,M,up,0.5326246000004176,0.8553309308500388,,experiment,emotion,0.0,,,,876.1948967999997,1008,20,female,True
259,99.0,25,M,up,2.1811275000000023,1.771449114544479,,experiment,emotion,0.0,,,,878.7614444999999,1008,20,female,True
260,88.0,25,M,up,0.633858400000463,0.7378957506850256,,experiment,emotion,0.0,,,,881.9446671000005,1008,20,female,True
261,91.0,25,M,down,0.8859515999974974,1.0633576079873788,,experiment,emotion,0.0,,,,883.9445954000003,1008,20,female,True
262,0.1056518002870117,25,up,up,0.774084299999231,0.4549089372241252,,experiment,cRDM,0.0,,,,888.7944344999996,1008,20,female,True
263,0.1056518002870117,25,up,up,0.522561499998119,1.7132829561646756,,experiment,cRDM,0.0,,,,891.560960499999,1008,20,female,True
264,0.1056518002870117,25,down,down,0.428641599999537,1.20795393284008,,experiment,cRDM,0.0,,,,893.5608840999994,1008,20,female,True
265,0.1056518002870117,25,down,up,0.4830436000011104,1.5723936944412866,,experiment,cRDM,0.0,,,,895.8274818999998,1008,20,female,True
266,0.1056518002870117,25,up,up,0.6762926000010339,1.0118749257901214,,experiment,cRDM,0.0,,,,897.5772261999991,1008,20,female,True
267,0.1056518002870117,25,down,up,0.6685577999996895,1.5090528648859496,,experiment,cRDM,0.0,,,,900.0439785999988,1008,20,female,True
268,0.1056518002870117,25,up,up,0.7234314999986964,1.2936784252600773,,experiment,cRDM,0.0,,,,902.2771314999992,1008,20,female,True
269,0.1056518002870117,25,up,down,1.347472500001459,1.2178495158650098,,experiment,cRDM,0.0,,,,904.4770715999985,1008,20,female,True
270,0.1056518002870117,25,down,down,0.9996941999997944,0.5215406839465475,,experiment,cRDM,0.0,,,,906.5937965000012,1008,20,female,True
271,0.1056518002870117,25,down,up,0.617878600001859,1.426993787487647,,experiment,cRDM,0.0,,,,909.2936746999984,1008,20,female,True
272,0.1056518002870117,25,down,down,0.7172514000012598,0.5508546117151143,,experiment,cRDM,0.0,,,,910.710270300002,1008,20,female,True
273,0.1056518002870117,25,down,up,0.6469708000004175,1.4514043891848685,,experiment,cRDM,0.0,,,,913.1435173999998,1008,20,female,True
274,0.1056518002870117,25,down,up,0.6554633999985526,1.9395102400696511,,experiment,cRDM,0.0,,,,916.0100571000004,1008,20,female,True
275,0.1056518002870117,25,down,up,0.7935456000013801,1.8884292566965888,,experiment,cRDM,0.0,,,,918.8099718000012,1008,20,female,True
276,0.1056518002870117,25,up,down,0.5636410000006435,0.6049494493101796,,experiment,cRDM,0.0,,,,920.4598920999996,1008,20,female,True
277,0.1056518002870117,25,up,up,0.5166795999975875,0.9330617957781112,,experiment,cRDM,0.0,,,,922.2098403000018,1008,20,female,True
278,0.1056518002870117,25,up,up,0.7834254000008514,0.9572907805868875,,experiment,cRDM,0.0,,,,923.9431184999994,1008,20,female,True
279,0.1056518002870117,25,up,down,1.055458999999246,0.5929323767835544,,experiment,cRDM,0.0,,,,925.5930512999984,1008,20,female,True
280,0.1056518002870117,25,down,up,1.108564000001934,0.8837232858703543,,experiment,cRDM,0.0,,,,927.7929736000006,1008,20,female,True
281,0.1056518002870117,25,up,up,0.6896765000019514,1.6845803157190782,,experiment,cRDM,0.0,,,,930.8428404000006,1008,20,female,True
282,0.1056518002870117,25,up,down,0.6992042999991099,1.864888785062922,,experiment,cRDM,0.0,,,,933.6592678999988,1008,20,female,True
283,0.1056518002870117,25,down,up,0.6325240999976813,0.7056306833218755,,experiment,cRDM,0.0,,,,935.3260185,1008,20,female,True
284,0.1056518002870117,25,up,up,0.546563600000809,1.8465107783363512,,experiment,cRDM,0.0,,,,938.075953300002,1008,20,female,True
285,0.1056518002870117,25,down,down,0.682412199999817,1.283945237284287,,experiment,cRDM,0.0,,,,940.159120100001,1008,20,female,True
286,0.1056518002870117,25,down,up,0.5564311999987694,1.5991047336154889,,experiment,cRDM,0.0,,,,942.7091215,1008,20,female,True
287,0.1056518002870117,25,up,up,0.6207987000016146,0.8551793514655543,,experiment,cRDM,0.0,,,,944.3757198999992,1008,20,female,True
288,0.1056518002870117,25,up,down,1.595243700001447,1.1790559373267535,,experiment,cRDM,0.0,,,,946.4422703000018,1008,20,female,True
289,0.1056518002870117,25,down,up,0.6490449000011722,1.4260250674481851,,experiment,cRDM,0.0,,,,949.7254992999988,1008,20,female,True
290,0.1056518002870117,25,up,up,0.5704177999978128,1.1650688936764992,,experiment,cRDM,0.0,,,,951.7921023000016,1008,20,female,True
291,0.1056518002870117,25,down,down,0.4975274999997054,1.679618090281202,,experiment,cRDM,0.0,,,,954.2919992999996,1008,20,female,True
292,0.1056518002870117,25,down,up,0.675378299998556,0.5188223374987861,,experiment,cRDM,0.0,,,,955.5751349999992,1008,20,female,True
293,0.1056518002870117,25,down,down,0.7596154999991995,1.3751034319579003,,experiment,cRDM,0.0,,,,957.8919133999988,1008,20,female,True
294,0.1056518002870117,25,up,up,0.6007190999989689,0.8389347536316638,,experiment,cRDM,0.0,,,,959.7418006000008,1008,20,female,True
295,0.1056518002870117,25,up,down,0.777109599999676,0.3431378734340869,,experiment,cRDM,0.0,,,,960.9584276999994,1008,20,female,True
296,0.1056518002870117,25,up,up,0.5009135000000242,1.3265762011134108,,experiment,cRDM,0.0,,,,963.3416607,1008,20,female,True
297,0.1056518002870117,25,down,up,0.5209624000017357,1.8896326126164475,,experiment,cRDM,0.0,,,,965.991584800002,1008,20,female,True
298,0.1056518002870117,25,down,up,0.5780349000015121,0.9192088164429804,,experiment,cRDM,0.0,,,,967.6915197999988,1008,20,female,True
299,0.1056518002870117,25,up,up,0.6274013000002014,1.4152556924842807,,experiment,cRDM,0.0,,,,969.9580677000012,1008,20,female,True
300,0.1056518002870117,25,down,down,0.540172100001655,0.4392150576239896,,experiment,cRDM,0.0,,,,971.2913885000016,1008,20,female,True
301,0.1056518002870117,25,up,up,0.6131896000006236,1.4068786262903323,,experiment,cRDM,0.0,,,,973.491322599999,1008,20,female,True
302,0.1056518002870117,25,up,up,0.6346793999982765,1.88982001357646,,experiment,cRDM,0.0,,,,976.257835299999,1008,20,female,True
303,0.1056518002870117,25,up,up,0.5617917999989004,0.5104193007143735,,experiment,cRDM,0.0,,,,977.6577808000002,1008,20,female,True
304,0.1056518002870117,25,down,up,0.4284420000003592,1.512821866885196,,experiment,cRDM,0.0,,,,979.9910778000012,1008,20,female,True
305,0.1056518002870117,25,down,up,0.5124947000003885,1.113492437509093,,experiment,cRDM,0.0,,,,981.791027700001,1008,20,female,True
306,0.1056518002870117,25,up,up,0.4167746000020997,0.6868625770702205,,experiment,cRDM,0.0,,,,983.2575768999995,1008,20,female,True
307,0.1056518002870117,25,down,up,0.8833400000003166,0.4495101600186613,,experiment,cRDM,0.0,,,,984.3741719999998,1008,20,female,True
308,0.1056518002870117,25,down,down,0.9836109999996552,1.0594802270043755,,experiment,cRDM,0.0,,,,986.573928400001,1008,20,female,True
309,0.1056518002870117,25,up,up,0.9653505999995105,1.7388306105538125,,experiment,cRDM,0.0,,,,989.5572285999988,1008,20,female,True
310,0.1056518002870117,25,up,up,0.8619092000008095,1.3675297909429225,,experiment,cRDM,0.0,,,,992.1406042999988,1008,20,female,True
311,0.1056518002870117,25,down,down,0.6673221999990346,0.9831929342549944,,experiment,cRDM,0.0,,,,994.2572003999994,1008,20,female,True
312,0.1056518002870117,25,up,down,0.6244063999984064,0.4705504063097153,,experiment,cRDM,0.0,,,,995.6571226999986,1008,20,female,True
313,0.1056518002870117,25,down,down,0.5439295999967726,1.1390420106465913,,experiment,cRDM,0.0,,,,997.6735891999996,1008,20,female,True
314,0.1056518002870117,25,down,up,0.793188799998461,0.7445027419038872,,experiment,cRDM,0.0,,,,999.2403285,1008,20,female,True
315,0.1056518002870117,25,down,up,0.8637736000018776,1.5470039215380378,,experiment,cRDM,0.0,,,,1001.8567707000002,1008,20,female,True
316,0.1056518002870117,25,up,up,0.9180377999982738,1.3328846382271535,,experiment,cRDM,0.0,,,,1004.3234763,1008,20,female,True
317,0.1056518002870117,25,up,down,0.6434040999993158,1.0958631632293476,,experiment,cRDM,0.0,,,,1006.5900924000016,1008,20,female,True
318,0.1056518002870117,25,down,down,0.5819152000003669,0.7782393951558955,,experiment,cRDM,0.0,,,,1008.2566902,1008,20,female,True
319,0.1056518002870117,25,down,down,0.6082249999999476,0.6758600456720781,,experiment,cRDM,0.0,,,,1009.7732882000018,1008,20,female,True
320,0.1056518002870117,25,up,down,0.6280091000007815,1.7693603562663318,,experiment,cRDM,0.0,,,,1012.4065039000016,1008,20,female,True
321,0.1056518002870117,25,up,up,0.5804023000018788,0.3281206629759142,,experiment,cRDM,0.0,,,,1013.6231455999988,1008,20,female,True
322,0.1056518002870117,25,up,down,0.6663227999997616,1.088302072791962,,experiment,cRDM,0.0,,,,1015.5562343999992,1008,20,female,True
323,0.1056518002870117,25,up,down,0.496521400000347,1.0305467636133905,,experiment,cRDM,0.0,,,,1017.5229892999996,1008,20,female,True
324,0.1056518002870117,25,up,down,0.5033867999991344,1.7814401593692717,,experiment,cRDM,0.0,,,,1020.0561151000002,1008,20,female,True
325,0.1056518002870117,25,down,down,0.5374040000024252,0.4313966348619333,,experiment,cRDM,0.0,,,,1021.2561081999992,1008,20,female,True
326,0.1056518002870117,25,down,down,0.5274002000005567,1.557550274399501,,experiment,cRDM,0.0,,,,1023.6061096000012,1008,20,female,True
327,0.1056518002870117,25,up,down,0.5714547999996284,0.6074706134433809,,experiment,cRDM,0.0,,,,1025.0060672,1008,20,female,True
328,0.1056518002870117,25,down,down,0.4936901000000944,1.206292274248409,,experiment,cRDM,0.0,,,,1027.055823300001,1008,20,female,True
329,0.1056518002870117,25,down,down,0.523890600001323,1.0605955443196118,,experiment,cRDM,0.0,,,,1028.8726035,1008,20,female,True
330,0.1056518002870117,25,down,down,0.6663421999983257,1.7282012940503362,,experiment,cRDM,0.0,,,,1031.3891421000008,1008,20,female,True
331,0.1056518002870117,25,up,down,0.4169870000005176,1.0517534942010485,,experiment,cRDM,0.0,,,,1033.3722577000008,1008,20,female,True
332,0.1056518002870117,25,down,down,0.5092081999973743,1.5702499250343054,,experiment,cRDM,0.0,,,,1035.6223327000007,1008,20,female,True
333,0.1056518002870117,25,down,down,0.4490519999999378,1.16361361860667,,experiment,cRDM,0.0,,,,1037.5554445000016,1008,20,female,True
334,0.1056518002870117,25,down,down,0.4663086000000476,1.6103802445021358,,experiment,cRDM,0.0,,,,1039.8722020999994,1008,20,female,True
335,0.1056518002870117,25,up,up,0.4777745999999752,1.0467682061538492,,experiment,cRDM,0.0,,,,1041.6387590999984,1008,20,female,True
336,0.1056518002870117,25,up,up,0.6691410000021278,1.4223105907450966,,experiment,cRDM,0.0,,,,1043.8053999000003,1008,20,female,True
337,0.1056518002870117,25,down,down,0.5585191000027407,0.328857812073047,,experiment,cRDM,0.0,,,,1045.0720026000015,1008,20,female,True
338,0.1056518002870117,25,up,up,0.4736465999994834,1.850034209675268,,experiment,cRDM,0.0,,,,1047.7218949999988,1008,20,female,True
339,0.1056518002870117,25,down,down,0.383870300000126,1.4516497388838905,,experiment,cRDM,0.0,,,,1049.9218053000004,1008,20,female,True
340,0.1056518002870117,25,up,up,0.5474536000001535,1.7036511755697803,,experiment,cRDM,0.0,,,,1052.3050765000007,1008,20,female,True
341,0.1056518002870117,25,up,up,0.5735987000007299,1.7475269271691924,,experiment,cRDM,0.0,,,,1054.8549539000014,1008,20,female,True
342,99.0,25,M,up,0.6197754000022542,1.5088979883392497,,experiment,emotion,1.0,,,,1060.4547392999991,1008,20,female,True
343,88.0,25,M,up,0.752261699999508,0.7127936171509197,,experiment,emotion,1.0,,,,1062.0712480000002,1008,20,female,True
344,95.0,25,F,up,0.6244870000009541,1.4585631739888087,,experiment,emotion,1.0,,,,1064.5710470000013,1008,20,female,True
345,99.0,25,F,up,0.7786469999991823,0.8205869969751651,,experiment,emotion,1.0,,,,1066.2878625000012,1008,20,female,True
346,95.0,25,M,up,0.5677663999995275,1.3899684657035245,,experiment,emotion,1.0,,,,1068.7377936000012,1008,20,female,True
347,91.0,25,F,down,0.5861026000020502,0.5793721113514843,,experiment,emotion,1.0,,,,1070.2043951000014,1008,20,female,True
348,88.0,25,M,down,0.8652542000018002,1.5498366456800814,,experiment,emotion,1.0,,,,1072.6043025,1008,20,female,True
349,91.0,25,M,up,0.6276685999982874,1.9216731535762157,,experiment,emotion,1.0,,,,1075.6708432000014,1008,20,female,True
350,99.0,25,F,up,0.581069199997728,0.7882962834508478,,experiment,emotion,1.0,,,,1077.3874380000016,1008,20,female,True
351,91.0,25,F,up,0.7688070999975025,1.1782401136922491,,experiment,emotion,1.0,,,,1079.4207083,1008,20,female,True
352,95.0,25,F,up,0.4861590000000433,1.6875868151859774,,experiment,emotion,1.0,,,,1082.187310199999,1008,20,female,True
353,99.0,25,F,up,0.4970624999987194,0.9240686460430608,,experiment,emotion,1.0,,,,1083.8704710999991,1008,20,female,True
354,95.0,25,F,up,0.4287171000032685,1.10272598656998,,experiment,emotion,1.0,,,,1085.7538081999992,1008,20,female,True
355,88.0,25,F,down,1.0914291000008234,0.8882044077873166,,experiment,emotion,1.0,,,,1087.387108999999,1008,20,female,True
356,91.0,25,M,up,1.5654825999990862,0.4905025925716676,,experiment,emotion,1.0,,,,1089.2370265999998,1008,20,female,True
357,88.0,25,M,down,0.8572505000011006,0.6997649607275327,,experiment,emotion,1.0,,,,1091.7702586999983,1008,20,female,True
358,99.0,25,M,up,1.43635539999741,1.6124547711406954,,experiment,emotion,1.0,,,,1094.5201635000012,1008,20,female,True
359,88.0,25,M,down,1.163093300001492,0.3849350078586537,,experiment,emotion,1.0,,,,1096.6034158000002,1008,20,female,True
360,95.0,25,F,up,0.6162390999998024,1.379247988322184,,experiment,emotion,1.0,,,,1099.4533051,1008,20,female,True
361,95.0,25,M,up,0.6859532999988005,0.4968631591855884,,experiment,emotion,1.0,,,,1100.836598599999,1008,20,female,True
362,91.0,25,M,up,0.5869619999975839,0.4636649148104593,,experiment,emotion,1.0,,,,1102.2365348999992,1008,20,female,True
363,91.0,25,F,up,0.7563618000021961,0.7969887521026089,,experiment,emotion,1.0,,,,1103.9031474000003,1008,20,female,True
364,88.0,25,M,down,0.5494247999995423,1.3745963251679685,,experiment,emotion,1.0,,,,1106.3030953000016,1008,20,female,True
365,99.0,25,F,up,0.557817700002488,1.094148586905234,,experiment,emotion,1.0,,,,1108.219694899999,1008,20,female,True
366,95.0,25,F,up,0.7377919999998994,1.6159262742516751,,experiment,emotion,1.0,,,,1110.6527241000003,1008,20,female,True
367,88.0,25,M,down,0.7348564000021724,0.6845516055026607,,experiment,emotion,1.0,,,,1112.3526633,1008,20,female,True
368,99.0,25,M,up,0.6510869000012462,0.7707025327933736,,experiment,emotion,1.0,,,,1114.1194294000015,1008,20,female,True
369,99.0,25,F,up,0.6709291000006488,0.9073161232261427,,experiment,emotion,1.0,,,,1115.9525766000006,1008,20,female,True
370,91.0,25,M,up,0.4735332999989623,1.0675410772951293,,experiment,emotion,1.0,,,,1117.9859877999988,1008,20,female,True
371,88.0,25,F,up,0.4282684999998309,0.7837937966036752,,experiment,emotion,1.0,,,,1119.519239199999,1008,20,female,True
372,91.0,25,F,up,0.4867295999974885,0.8670680387824172,,experiment,emotion,1.0,,,,1121.0858684000011,1008,20,female,True
373,95.0,25,F,down,0.9630458999999972,1.7487992739808216,,experiment,emotion,1.0,,,,1123.6024316000005,1008,20,female,True
374,88.0,25,M,down,0.5624968000010995,0.6825406223493413,,experiment,emotion,1.0,,,,1125.5190193999988,1008,20,female,True
375,99.0,25,M,down,0.5732906000012008,1.0446370186705176,,experiment,emotion,1.0,,,,1127.4022884000003,1008,20,female,True
376,95.0,25,M,down,0.4167764999983774,0.4313575325729478,,experiment,emotion,1.0,,,,1128.6689082000012,1008,20,female,True
377,99.0,25,F,down,0.416791399999056,0.5547162139217319,,experiment,emotion,1.0,,,,1129.9188624000017,1008,20,female,True
378,88.0,25,F,up,2.074363600000652,0.3017963489291936,,experiment,emotion,1.0,,,,1130.9021470000007,1008,20,female,True
379,95.0,25,M,up,0.6678940999991028,1.9117255277450265,,experiment,emotion,1.0,,,,1135.1686551999992,1008,20,female,True
380,91.0,25,F,up,0.6199187999991409,0.7386338961128297,,experiment,emotion,1.0,,,,1136.868628600001,1008,20,female,True
381,91.0,25,M,down,0.4167746999992232,0.4081283349540178,,experiment,emotion,1.0,,,,1138.1685497,1008,20,female,True
382,95.0,25,M,down,0.4416839000004984,0.8431744911190702,,experiment,emotion,1.0,,,,1139.701852999999,1008,20,female,True
383,99.0,25,M,up,0.9364427999971668,1.0084938050695471,,experiment,emotion,1.0,,,,1141.4350808000015,1008,20,female,True
384,91.0,25,F,up,0.9272305000013148,1.0974328507123048,,experiment,emotion,1.0,,,,1143.7183431999983,1008,20,female,True
385,88.0,25,F,down,1.2349594000006618,1.3173800672289706,,experiment,emotion,1.0,,,,1146.2515682999983,1008,20,female,True
386,88.0,25,M,up,0.9843370000016876,1.5737255171491789,,experiment,emotion,1.0,,,,1149.3181829999994,1008,20,female,True
387,91.0,25,F,up,0.5830941000021994,0.6682152494145379,,experiment,emotion,1.0,,,,1151.2514054999992,1008,20,female,True
388,99.0,25,F,up,0.6443046999993385,1.915845892477292,,experiment,emotion,1.0,,,,1154.0512869000013,1008,20,female,True
389,95.0,25,M,up,0.6926205999989179,1.976883060095996,,experiment,emotion,1.0,,,,1156.9678913999996,1008,20,female,True
390,88.0,25,M,down,0.681096799999068,1.804519610343181,,experiment,emotion,1.0,,,,1159.7343938999984,1008,20,female,True
391,99.0,25,F,up,0.8951531000020623,1.0141091663126132,,experiment,emotion,1.0,,,,1161.6843556999993,1008,20,female,True
392,95.0,25,M,down,0.7399217999991379,1.7753449190165005,,experiment,emotion,1.0,,,,1164.6175924999989,1008,20,female,True
393,95.0,25,F,down,0.7820121000004292,0.4862589365138069,,experiment,emotion,1.0,,,,1166.117530399999,1008,20,female,True
394,88.0,25,F,down,0.7541116000029433,0.7947740519839163,,experiment,emotion,1.0,,,,1167.9673719999992,1008,20,female,True
395,91.0,25,F,down,0.6855395999991742,1.9512876565514308,,experiment,emotion,1.0,,,,1170.9840102999988,1008,20,female,True
396,99.0,25,M,down,0.6789567000014358,0.527366425057313,,experiment,emotion,1.0,,,,1172.450617800001,1008,20,female,True
397,91.0,25,M,up,1.079425799998717,0.6596925117633958,,experiment,emotion,1.0,,,,1174.0670984999997,1008,20,female,True
398,91.0,25,F,down,0.7120852999978524,1.7931140364663751,,experiment,emotion,1.0,,,,1177.2004416000018,1008,20,female,True
399,91.0,25,F,down,0.5337198999986867,1.5790892179454326,,experiment,emotion,1.0,,,,1179.7668684000018,1008,20,female,True
400,99.0,25,M,up,0.5698793000010483,0.4799200231501661,,experiment,emotion,1.0,,,,1181.0336405000016,1008,20,female,True
401,95.0,25,M,down,0.4983352000017476,0.5351804697929693,,experiment,emotion,1.0,,,,1182.4502448999992,1008,20,female,True
402,88.0,25,M,down,0.5703475999980583,0.3515076763073009,,experiment,emotion,1.0,,,,1183.600215099999,1008,20,female,True
403,88.0,25,M,down,0.5747350999990886,0.7309152731162212,,experiment,emotion,1.0,,,,1185.166774100002,1008,20,female,True
404,95.0,25,M,up,0.6675066000025254,0.7499101182925458,,experiment,emotion,1.0,,,,1186.7670373,1008,20,female,True
405,99.0,25,F,up,1.0329722999995283,0.8626292789251253,,experiment,emotion,1.0,,,,1188.5665565000018,1008,20,female,True
406,99.0,25,F,down,0.8628840000019409,1.5535638828176423,,experiment,emotion,1.0,,,,1191.416616800001,1008,20,female,True
407,88.0,25,M,down,0.5537263000005623,1.410100364500445,,experiment,emotion,1.0,,,,1193.9498077999997,1008,20,female,True
408,99.0,25,F,up,0.8228179000034288,1.9226385232470184,,experiment,emotion,1.0,,,,1196.6997518999997,1008,20,female,True
409,91.0,25,F,down,0.847878499997023,1.178908326219041,,experiment,emotion,1.0,,,,1198.999637500001,1008,20,female,True
410,95.0,25,F,down,0.7480771000009554,1.3243251397430476,,experiment,emotion,1.0,,,,1201.449416899999,1008,20,female,True
411,91.0,25,M,down,0.7750102999998489,0.7623516909748091,,experiment,emotion,1.0,,,,1203.2494984000004,1008,20,female,True
412,88.0,25,F,down,0.8114256999979261,0.9690624434835482,,experiment,emotion,1.0,,,,1205.2660692999998,1008,20,female,True
413,95.0,25,F,up,0.9450945999997202,0.4386362471218035,,experiment,emotion,1.0,,,,1206.7993669999996,1008,20,female,True
414,91.0,25,F,up,0.8245764999992389,1.5445622495843818,,experiment,emotion,1.0,,,,1209.565933400001,1008,20,female,True
415,95.0,25,M,up,0.7443301000021165,0.5226399948356324,,experiment,emotion,1.0,,,,1211.1992044,1008,20,female,True
416,88.0,25,M,up,0.872617299999547,1.4426550878715156,,experiment,emotion,1.0,,,,1213.6488854999989,1008,20,female,True
417,99.0,25,F,up,0.8324968999986595,0.6545927508563677,,experiment,emotion,1.0,,,,1215.499033,1008,20,female,True
418,95.0,25,M,up,0.7012204000020574,0.5386848163035602,,experiment,emotion,1.0,,,,1217.1323115000014,1008,20,female,True
419,99.0,25,F,down,0.7797554000026139,1.0552035627283654,,experiment,emotion,1.0,,,,1219.1487748,1008,20,female,True
420,88.0,25,M,down,0.6189200999979221,0.9496036727500424,,experiment,emotion,1.0,,,,1221.1486517999983,1008,20,female,True
421,91.0,25,M,down,0.5985279000014998,1.11946344201908,,experiment,emotion,1.0,,,,1223.182084600001,1008,20,female,True
422,0.1056518002870117,25,up,down,1.1711107999981325,0.5839308956587517,,experiment,cRDM,1.0,,,,1305.9623954000017,1008,20,female,True
423,0.1056518002870117,25,up,up,0.681278600000951,1.1353500795489992,,experiment,cRDM,1.0,,,,1308.5122653,1008,20,female,True
424,0.1056518002870117,25,down,down,0.6015487000004214,1.4932807163963,,experiment,cRDM,1.0,,,,1310.9620034,1008,20,female,True
425,0.1056518002870117,25,down,up,0.6933668000019679,0.3869835207765135,,experiment,cRDM,1.0,,,,1312.212131700002,1008,20,female,True
426,0.1056518002870117,25,up,up,0.820605600001727,1.7998005850158945,,experiment,cRDM,1.0,,,,1314.9618923999988,1008,20,female,True
427,0.1056518002870117,25,down,down,0.5788627000001725,1.2458586737580657,,experiment,cRDM,1.0,,,,1317.278644599999,1008,20,female,True
428,0.1056518002870117,25,up,up,0.4533182999985001,1.5124919213925203,,experiment,cRDM,1.0,,,,1319.6451812000014,1008,20,female,True
429,0.1056518002870117,25,up,up,0.7178810000004887,1.7106114361281886,,experiment,cRDM,1.0,,,,1322.0616747999993,1008,20,female,True
430,0.1056518002870117,25,down,down,0.4951422000012826,1.5999467953832829,,experiment,cRDM,1.0,,,,1324.6283951000005,1008,20,female,True
431,0.1056518002870117,25,down,up,0.7268728999988525,0.426300044428185,,experiment,cRDM,1.0,,,,1325.8116324000002,1008,20,female,True
432,0.1056518002870117,25,down,up,0.524291900001117,1.5603225123616744,,experiment,cRDM,1.0,,,,1328.378212399999,1008,20,female,True
433,0.1056518002870117,25,down,down,0.4939544000008027,0.6932784829520338,,experiment,cRDM,1.0,,,,1329.861550199999,1008,20,female,True
434,0.1056518002870117,25,down,up,0.878381200000149,0.6606044626293397,,experiment,cRDM,1.0,,,,1331.2781213000017,1008,20,female,True
435,0.1056518002870117,25,down,down,0.4959484999999404,1.3328565583951202,,experiment,cRDM,1.0,,,,1333.7445565000016,1008,20,female,True
436,0.1056518002870117,25,up,down,0.4969622000025993,1.943626200976797,,experiment,cRDM,1.0,,,,1336.444559300002,1008,20,female,True
437,0.1056518002870117,25,up,up,0.5700154000005568,1.682060619687685,,experiment,cRDM,1.0,,,,1338.894483299999,1008,20,female,True
438,0.1056518002870117,25,up,up,0.6754494000015256,1.893030727285256,,experiment,cRDM,1.0,,,,1341.6110829999998,1008,20,female,True
439,0.1056518002870117,25,up,up,0.661496900000202,0.7643147869764078,,experiment,cRDM,1.0,,,,1343.3110006999996,1008,20,female,True
440,0.1056518002870117,25,down,up,0.6239223000011407,1.1894489893589864,,experiment,cRDM,1.0,,,,1345.4275796000002,1008,20,female,True
441,0.1056518002870117,25,up,down,0.4590630999991845,1.457145983968365,,experiment,cRDM,1.0,,,,1347.7774944000012,1008,20,female,True
442,0.1056518002870117,25,up,down,0.8275514000015392,1.348340371923601,,experiment,cRDM,1.0,,,,1349.8439450000003,1008,20,female,True
443,0.1056518002870117,25,down,up,0.4818446999997832,0.818426845371661,,experiment,cRDM,1.0,,,,1351.760673299999,1008,20,female,True
444,0.1056518002870117,25,up,up,0.94922150000275,1.5810792689043525,,experiment,cRDM,1.0,,,,1354.0772779,1008,20,female,True
445,0.1056518002870117,25,down,down,0.4956760000022768,0.5726004915799088,,experiment,cRDM,1.0,,,,1355.8438806999984,1008,20,female,True
446,0.1056518002870117,25,down,up,0.7148411999987729,0.8311571753384936,,experiment,cRDM,1.0,,,,1357.4436616999992,1008,20,female,True
447,0.1056518002870117,25,up,up,0.5044336000028125,1.63709929725089,,experiment,cRDM,1.0,,,,1360.077066599999,1008,20,female,True
448,0.1056518002870117,25,up,down,0.5135268000012729,0.4410869230975415,,experiment,cRDM,1.0,,,,1361.277001099999,1008,20,female,True
449,0.1056518002870117,25,down,up,0.5388810999975249,0.4365395097093542,,experiment,cRDM,1.0,,,,1362.4936190000008,1008,20,female,True
450,0.1056518002870117,25,up,up,0.9770107000003918,0.3524059883722534,,experiment,cRDM,1.0,,,,1363.643468300001,1008,20,female,True
451,0.1056518002870117,25,down,down,0.6726582999981474,0.8312433341442915,,experiment,cRDM,1.0,,,,1365.7268406000003,1008,20,female,True
452,0.1056518002870117,25,down,down,0.9254523000017798,1.3511314877803808,,experiment,cRDM,1.0,,,,1368.0100506999988,1008,20,female,True
453,0.1056518002870117,25,down,up,0.8958153000021412,0.384594091013365,,experiment,cRDM,1.0,,,,1369.576686299999,1008,20,female,True
454,0.1056518002870117,25,up,down,1.2733459999981278,0.6041035143823108,,experiment,cRDM,1.0,,,,1371.3431606999984,1008,20,female,True
455,0.1056518002870117,25,up,up,0.8379894999998214,0.4567163256934029,,experiment,cRDM,1.0,,,,1373.326527000001,1008,20,female,True
456,0.1056518002870117,25,up,up,0.6150430999987293,0.8447651140997923,,experiment,cRDM,1.0,,,,1375.2764763999985,1008,20,female,True
457,0.1056518002870117,25,down,up,0.7354188999997859,1.1393369782782732,,experiment,cRDM,1.0,,,,1377.2930702000012,1008,20,female,True
458,0.1056518002870117,25,down,down,0.9831760000015493,0.9449887680571571,,experiment,cRDM,1.0,,,,1379.226325700001,1008,20,female,True
459,0.1056518002870117,25,up,up,0.6748892000032356,1.100563473225534,,experiment,cRDM,1.0,,,,1381.5596122999996,1008,20,female,True
460,0.1056518002870117,25,down,up,0.7042954999997164,0.532153720050696,,experiment,cRDM,1.0,,,,1383.0261979999996,1008,20,female,True
461,0.1056518002870117,25,up,up,0.8250344000007317,1.1794301677643024,,experiment,cRDM,1.0,,,,1385.1594646999984,1008,20,female,True
462,0.1056518002870117,25,up,down,0.8084885999996914,1.4291056647748277,,experiment,cRDM,1.0,,,,1387.676029300001,1008,20,female,True
463,0.1056518002870117,25,up,up,0.5019775000000664,0.5875718999130235,,experiment,cRDM,1.0,,,,1389.3425549999993,1008,20,female,True
464,0.1056518002870117,25,down,down,0.5180369000008795,0.3454973013063076,,experiment,cRDM,1.0,,,,1390.4424618000012,1008,20,female,True
465,0.1056518002870117,25,down,up,0.5566894000003231,0.9537123755543926,,experiment,cRDM,1.0,,,,1392.1758479000018,1008,20,female,True
466,0.1056518002870117,25,up,up,0.8821325999997498,1.0333566275610584,,experiment,cRDM,1.0,,,,1394.0423649000004,1008,20,female,True
467,0.1056518002870117,25,down,down,0.5022613000001002,1.3529613950738335,,experiment,cRDM,1.0,,,,1396.5422461000016,1008,20,female,True
468,0.1056518002870117,25,down,down,0.5595348999995622,0.9506426517803556,,experiment,cRDM,1.0,,,,1398.2589904999986,1008,20,female,True
469,0.1056518002870117,25,up,up,0.6589241000001493,0.3942213179762844,,experiment,cRDM,1.0,,,,1399.4755799999984,1008,20,female,True
470,0.1056518002870117,25,up,up,0.4959858000001986,1.871815952887236,,experiment,cRDM,1.0,,,,1402.2754939000006,1008,20,female,True
471,0.1056518002870117,25,down,down,0.4537368999990576,0.9342172290504134,,experiment,cRDM,1.0,,,,1403.9587616999995,1008,20,female,True
472,0.1056518002870117,25,up,down,0.4954617000003054,0.6117439669648174,,experiment,cRDM,1.0,,,,1405.2920484999995,1008,20,female,True
473,0.1056518002870117,25,down,down,0.7148299000000407,0.9097291798783236,,experiment,cRDM,1.0,,,,1406.9586676,1008,20,female,True
474,0.1056518002870117,25,down,down,0.4889149999980873,0.7665654918454958,,experiment,cRDM,1.0,,,,1408.708585299999,1008,20,female,True
475,0.1056518002870117,25,down,down,0.4637673999968683,1.7791184889667448,,experiment,cRDM,1.0,,,,1411.2417361000007,1008,20,female,True
476,0.1056518002870117,25,up,up,0.5124305999997887,1.1096379592913277,,experiment,cRDM,1.0,,,,1413.0750937000012,1008,20,female,True
477,0.1056518002870117,25,up,up,0.441161300001113,1.7986805783214874,,experiment,cRDM,1.0,,,,1415.6583637000003,1008,20,female,True
478,0.1056518002870117,25,down,down,0.607864099998551,0.6308352157573454,,experiment,cRDM,1.0,,,,1416.9916362000004,1008,20,female,True
479,0.1056518002870117,25,down,down,0.9351563999989594,1.7825146029797008,,experiment,cRDM,1.0,,,,1419.6413452999986,1008,20,female,True
480,0.1056518002870117,25,up,up,0.7132504000001063,1.6153131128945846,,experiment,cRDM,1.0,,,,1422.4412445000016,1008,20,female,True
481,0.1056518002870117,25,up,up,0.615852700000687,1.853928171655669,,experiment,cRDM,1.0,,,,1425.2746365999992,1008,20,female,True
482,0.1056518002870117,25,up,down,1.2699544000024616,1.1741816869385064,,experiment,cRDM,1.0,,,,1427.3245457000012,1008,20,female,True
483,0.1056518002870117,25,up,up,0.852373699999589,1.1318694185430822,,experiment,cRDM,1.0,,,,1429.9911266000015,1008,20,female,True
484,0.1056518002870117,25,up,down,0.8970937000012782,0.4188455212448949,,experiment,cRDM,1.0,,,,1431.5243932999983,1008,20,female,True
485,0.1056518002870117,25,down,down,0.9282052000016848,1.6395245286772409,,experiment,cRDM,1.0,,,,1434.3242840999992,1008,20,female,True
486,0.1056518002870117,25,down,up,0.7553097999989404,1.8530608379935616,,experiment,cRDM,1.0,,,,1437.3741916,1008,20,female,True
487,0.1056518002870117,25,up,up,0.7274114000028931,1.4793133829674985,,experiment,cRDM,1.0,,,,1439.8741125000015,1008,20,female,True
488,0.1056518002870117,25,down,down,0.6497930999976234,1.034801666180323,,experiment,cRDM,1.0,,,,1441.8907190999998,1008,20,female,True
489,0.1056518002870117,25,down,up,1.3302207000015187,0.9597783612415716,,experiment,cRDM,1.0,,,,1443.7573153000012,1008,20,female,True
490,0.1056518002870117,25,down,down,0.5213085000032152,0.6594701172359059,,experiment,cRDM,1.0,,,,1446.007203000001,1008,20,female,True
491,0.1056518002870117,25,up,down,0.7206650000007357,0.5802739104435708,,experiment,cRDM,1.0,,,,1447.3738187000015,1008,20,female,True
492,0.1056518002870117,25,down,down,0.7083883999985119,0.6367833383830777,,experiment,cRDM,1.0,,,,1449.007108599999,1008,20,female,True
493,0.1056518002870117,25,down,down,0.6412028999984614,1.4125430848909504,,experiment,cRDM,1.0,,,,1451.390336299999,1008,20,female,True
494,0.1056518002870117,25,down,down,0.5699124999991909,0.3301034489883193,,experiment,cRDM,1.0,,,,1452.6236356000009,1008,20,female,True
495,0.1056518002870117,25,up,down,0.5793904999991355,1.7885162934625118,,experiment,cRDM,1.0,,,,1455.2401117000009,1008,20,female,True
496,0.1056518002870117,25,up,down,0.7386165000025358,0.6681644431841764,,experiment,cRDM,1.0,,,,1456.7568767000012,1008,20,female,True
497,0.1056518002870117,25,down,down,0.676148499998817,1.675705506949318,,experiment,cRDM,1.0,,,,1459.4233552000003,1008,20,female,True
498,0.1056518002870117,25,up,down,0.6576056999983848,0.4735658820015661,,experiment,cRDM,1.0,,,,1460.8399199000014,1008,20,female,True
499,0.1056518002870117,25,down,up,1.114949400001933,1.8453022728094557,,experiment,cRDM,1.0,,,,1463.6065468000015,1008,20,female,True
500,0.1056518002870117,25,up,down,0.5804089999983262,1.4491958226403612,,experiment,cRDM,1.0,,,,1466.4231091,1008,20,female,True
501,0.1056518002870117,25,up,up,0.5477925000013784,1.42460424245135,,experiment,cRDM,1.0,,,,1468.689703600001,1008,20,female,True
502,99.0,25,M,up,1.008166399999027,0.6257252939786173,,experiment,emotion,2.0,,,,1507.23833,1008,20,female,True
503,88.0,25,M,up,0.9519757000016398,1.6886011039795852,,experiment,emotion,2.0,,,,1510.2215093999985,1008,20,female,True
504,95.0,25,F,up,0.6597957000012684,1.9177099156812,,experiment,emotion,2.0,,,,1513.4047393,1008,20,female,True
505,99.0,25,F,up,0.4771665999978722,1.539867485800909,,experiment,emotion,2.0,,,,1515.8713286999991,1008,20,female,True
506,95.0,25,M,up,0.50629189999745,0.941366383147348,,experiment,emotion,2.0,,,,1517.5712561,1008,20,female,True
507,91.0,25,F,up,0.5933263000006264,0.6081802016181977,,experiment,emotion,2.0,,,,1518.971185499999,1008,20,female,True
508,88.0,25,M,up,0.8814261999978044,0.9318807630795588,,experiment,emotion,2.0,,,,1520.7711315999986,1008,20,female,True
509,91.0,25,M,up,0.6691132999985712,0.9946834858215532,,experiment,emotion,2.0,,,,1522.904391299999,1008,20,female,True
510,99.0,25,F,up,0.5947659999983443,1.5732013291716092,,experiment,emotion,2.0,,,,1525.4207270000006,1008,20,female,True
511,91.0,25,F,up,0.5817080999986501,1.578003542386533,,experiment,emotion,2.0,,,,1527.8708613999988,1008,20,female,True
512,95.0,25,F,up,0.5333581999984744,0.6978045472564105,,experiment,emotion,2.0,,,,1529.4541651,1008,20,female,True
513,99.0,25,F,up,0.5421195999988413,1.340696687395877,,experiment,emotion,2.0,,,,1531.5873904,1008,20,female,True
514,95.0,25,F,up,0.4611593000008724,1.5830301303452932,,experiment,emotion,2.0,,,,1533.9873377000004,1008,20,female,True
515,88.0,25,F,up,0.4549492000005557,1.915536400103811,,experiment,emotion,2.0,,,,1536.6705503000012,1008,20,female,True
516,91.0,25,M,up,0.5895964000010281,1.5497634146546175,,experiment,emotion,2.0,,,,1538.9369017999998,1008,20,female,True
517,88.0,25,M,up,0.5611520999991626,1.632215656997328,,experiment,emotion,2.0,,,,1541.4203516000016,1008,20,female,True
518,99.0,25,M,up,0.4711906000011368,1.0197639043248432,,experiment,emotion,2.0,,,,1543.2702933,1008,20,female,True
519,88.0,25,M,up,0.481262000001152,0.8503482065911194,,experiment,emotion,2.0,,,,1544.8702325000013,1008,20,female,True
520,95.0,25,F,up,0.621667499999603,1.7241353612206356,,experiment,emotion,2.0,,,,1547.3868546000012,1008,20,female,True
521,95.0,25,M,up,0.4808673999978055,0.5638166435125911,,experiment,emotion,2.0,,,,1548.8366271000014,1008,20,female,True
522,91.0,25,M,up,0.5525639999978011,0.8512798856420485,,experiment,emotion,2.0,,,,1550.470021600002,1008,20,female,True
523,91.0,25,F,up,0.7245894000006956,1.922983907122055,,experiment,emotion,2.0,,,,1553.2199072000003,1008,20,female,True
524,88.0,25,M,up,0.7017232999969565,1.7877413928050614,,experiment,emotion,2.0,,,,1556.0197967999993,1008,20,female,True
525,99.0,25,F,up,0.6647716999978002,1.0225196842292823,,experiment,emotion,2.0,,,,1558.0197421000012,1008,20,female,True
526,95.0,25,F,up,0.4743878000008408,0.974481755807066,,experiment,emotion,2.0,,,,1559.936170500001,1008,20,female,True
527,88.0,25,M,up,0.9705476999988604,1.264467471576569,,experiment,emotion,2.0,,,,1561.9529356999992,1008,20,female,True
528,99.0,25,M,up,0.608484899999894,0.8413282504499744,,experiment,emotion,2.0,,,,1564.0360207999984,1008,20,female,True
529,99.0,25,F,up,0.647052000000258,1.3887714805509055,,experiment,emotion,2.0,,,,1566.3194441000014,1008,20,female,True
530,91.0,25,M,down,1.3024188999988835,0.5976317544089618,,experiment,emotion,2.0,,,,1567.886082500001,1008,20,female,True
531,88.0,25,F,up,0.5808407000004081,0.6924235299779669,,experiment,emotion,2.0,,,,1570.1526525000008,1008,20,female,True
532,91.0,25,F,up,0.9776764000016556,1.86898656137026,,experiment,emotion,2.0,,,,1572.8858876999984,1008,20,female,True
533,95.0,25,F,up,0.808045999998285,0.8228204220014517,,experiment,emotion,2.0,,,,1575.0024620000004,1008,20,female,True
534,88.0,25,M,down,1.1881095999997342,1.2639606508938774,,experiment,emotion,2.0,,,,1577.3523839000009,1008,20,female,True
535,99.0,25,M,up,1.281031599999551,1.8996203505047904,,experiment,emotion,2.0,,,,1580.7354579999992,1008,20,female,True
536,95.0,25,M,up,0.8286393000016687,0.6848767470613164,,experiment,emotion,2.0,,,,1582.9688515999987,1008,20,female,True
537,99.0,25,F,up,0.6108421000026283,1.457752175579127,,experiment,emotion,2.0,,,,1585.5187207999988,1008,20,female,True
538,88.0,25,F,down,0.8495207999985723,1.963263852446352,,experiment,emotion,2.0,,,,1588.4019794999986,1008,20,female,True
539,95.0,25,M,up,0.6709451000024274,0.9407507783811307,,experiment,emotion,2.0,,,,1590.4685500999983,1008,20,female,True
540,91.0,25,F,up,1.0425971999975443,1.1860806667044612,,experiment,emotion,2.0,,,,1592.634922100002,1008,20,female,True
541,91.0,25,M,up,1.2077747000003,0.8083700154379365,,experiment,emotion,2.0,,,,1594.7517406000006,1008,20,female,True
542,95.0,25,M,up,1.0385378999999375,0.6485531634887176,,experiment,emotion,2.0,,,,1596.8849862999996,1008,20,female,True
543,99.0,25,M,up,1.1089702999997826,1.68039937516719,,experiment,emotion,2.0,,,,1599.9015422000011,1008,20,female,True
544,91.0,25,F,up,0.8230364999981248,1.5820408138504545,,experiment,emotion,2.0,,,,1602.8514658999993,1008,20,female,True
545,88.0,25,F,down,0.7704818000020168,1.8424590162407024,,experiment,emotion,2.0,,,,1605.8180087,1008,20,female,True
546,88.0,25,M,up,0.8485865000002377,0.960184741234306,,experiment,emotion,2.0,,,,1607.817916600001,1008,20,female,True
547,91.0,25,F,up,0.6309958999991068,1.7464917510391111,,experiment,emotion,2.0,,,,1610.6844867,1008,20,female,True
548,99.0,25,F,up,1.3715040999995836,1.2223872531231508,,experiment,emotion,2.0,,,,1612.801086200001,1008,20,female,True
549,95.0,25,M,up,0.7274990000005346,0.977263738150397,,experiment,emotion,2.0,,,,1615.4509968999992,1008,20,female,True
550,88.0,25,M,down,0.753258900000219,1.038032522453873,,experiment,emotion,2.0,,,,1617.4842313000008,1008,20,female,True
551,99.0,25,F,up,0.8146893999983149,1.6948740353839735,,experiment,emotion,2.0,,,,1620.2008105999994,1008,20,female,True
552,95.0,25,M,up,0.7937874000017473,1.9150181392813868,,experiment,emotion,2.0,,,,1623.2006972999989,1008,20,female,True
553,95.0,25,F,up,1.063565000000381,1.129377101724943,,experiment,emotion,2.0,,,,1625.3839230999984,1008,20,female,True
554,88.0,25,F,down,0.8118414999989909,1.6193885591438315,,experiment,emotion,2.0,,,,1628.3336467000008,1008,20,female,True
555,91.0,25,F,down,0.8040781999989122,1.9630265570595484,,experiment,emotion,2.0,,,,1631.400418199999,1008,20,female,True
556,99.0,25,M,up,1.5812159000015529,1.8623452212428744,,experiment,emotion,2.0,,,,1634.3502988,1008,20,female,True
557,91.0,25,M,down,0.6681430999997247,1.4231586314522806,,experiment,emotion,2.0,,,,1637.6333588000016,1008,20,female,True
558,91.0,25,F,down,0.6662746999973024,0.5735586313712695,,experiment,emotion,2.0,,,,1639.1332350000012,1008,20,female,True
559,91.0,25,F,down,0.7715177000027325,1.6293839763841989,,experiment,emotion,2.0,,,,1641.700008200001,1008,20,female,True
560,99.0,25,M,up,0.6922330000015791,0.3505286342891153,,experiment,emotion,2.0,,,,1643.083293399999,1008,20,female,True
561,95.0,25,M,up,1.8316672000000835,1.4272595678628957,,experiment,emotion,2.0,,,,1645.499900499999,1008,20,female,True
562,88.0,25,M,down,0.7256391000009899,0.3956412967725012,,experiment,emotion,2.0,,,,1648.032889099999,1008,20,female,True
563,88.0,25,M,down,0.6125259999971604,1.056841073603788,,experiment,emotion,2.0,,,,1650.0830126,1008,20,female,True
564,95.0,25,M,up,1.0631859000022814,0.5943144831312406,,experiment,emotion,2.0,,,,1651.566302399999,1008,20,female,True
565,99.0,25,F,down,0.6726120999992418,1.185753433907342,,experiment,emotion,2.0,,,,1654.0828724999992,1008,20,female,True
566,99.0,25,F,down,0.6343665000022156,0.4309600091776451,,experiment,emotion,2.0,,,,1655.4661643,1008,20,female,True
567,88.0,25,M,down,0.6228299000031257,1.3189434845146666,,experiment,emotion,2.0,,,,1657.6827543,1008,20,female,True
568,99.0,25,F,down,0.948171000000002,1.1941301538815343,,experiment,emotion,2.0,,,,1659.7493412000003,1008,20,female,True
569,91.0,25,F,down,1.171889100001863,0.7968399293727968,,experiment,emotion,2.0,,,,1661.7826262999988,1008,20,female,True
570,95.0,25,F,up,0.9281751999988046,0.3858044165735533,,experiment,emotion,2.0,,,,1663.6323282000012,1008,20,female,True
571,91.0,25,M,down,0.717406600000686,1.1700433006879614,,experiment,emotion,2.0,,,,1665.9991187999983,1008,20,female,True
572,88.0,25,F,up,0.8323426999995718,0.8467247335992953,,experiment,emotion,2.0,,,,1667.8321410999995,1008,20,female,True
573,95.0,25,F,up,1.105529000000388,1.5091874000130308,,experiment,emotion,2.0,,,,1670.4489639999993,1008,20,female,True
574,91.0,25,F,down,1.3635308999982954,0.3891767200861853,,experiment,emotion,2.0,,,,1672.2320241999987,1008,20,female,True
575,95.0,25,M,down,1.981748799997149,1.3728633993447568,,experiment,emotion,2.0,,,,1675.2487747999985,1008,20,female,True
576,88.0,25,M,up,0.8071952999998757,1.2266499630691017,,experiment,emotion,2.0,,,,1678.7152926999988,1008,20,female,True
577,99.0,25,F,up,0.720602900000813,0.5565050594603853,,experiment,emotion,2.0,,,,1680.381921,1008,20,female,True
578,95.0,25,M,up,0.6277853999999934,0.5679026812371248,,experiment,emotion,2.0,,,,1681.9317037,1008,20,female,True
579,99.0,25,F,up,0.6514032000013685,0.991425004570081,,experiment,emotion,2.0,,,,1683.815099800002,1008,20,female,True
580,88.0,25,M,down,0.8641156000012415,1.9579493318422647,,experiment,emotion,2.0,,,,1686.698372499999,1008,20,female,True
581,91.0,25,M,up,0.760524000001169,0.4962397087195971,,experiment,emotion,2.0,,,,1688.364952100001,1008,20,female,True
582,0.1056518002870117,25,up,up,0.8450523000028625,0.6116059298067902,,experiment,cRDM,2.0,,,,1693.381433800001,1008,20,female,True
583,0.1056518002870117,25,up,up,0.6008307999982208,1.6168693190357415,,experiment,cRDM,2.0,,,,1696.1146430000008,1008,20,female,True
584,0.1056518002870117,25,down,down,1.3879195000008622,1.4238876365867816,,experiment,cRDM,2.0,,,,1698.4145778999991,1008,20,female,True
585,0.1056518002870117,25,down,down,0.8224579999987327,0.4722990591794789,,experiment,cRDM,2.0,,,,1700.5310484,1008,20,female,True
586,0.1056518002870117,25,up,up,0.5860429999993357,0.688300049679856,,experiment,cRDM,2.0,,,,1702.3144372999996,1008,20,female,True
587,0.1056518002870117,25,down,down,1.3157609999980195,0.685189580613865,,experiment,cRDM,2.0,,,,1703.8477458000016,1008,20,female,True
588,0.1056518002870117,25,up,up,0.627907399997639,1.9715521937816745,,experiment,cRDM,2.0,,,,1707.3976073000013,1008,20,female,True
589,0.1056518002870117,25,up,up,0.7133541000002879,0.9276762166020424,,experiment,cRDM,2.0,,,,1709.2141755000011,1008,20,female,True
590,0.1056518002870117,25,down,up,0.9557142000012392,1.1850102729536396,,experiment,cRDM,2.0,,,,1711.3807756999995,1008,20,female,True
591,0.1056518002870117,25,down,up,0.9104797999971196,1.0141410998104887,,experiment,cRDM,2.0,,,,1713.614003499999,1008,20,female,True
592,0.1056518002870117,25,down,down,0.6680602999986149,1.2439446770337723,,experiment,cRDM,2.0,,,,1716.0304459,1008,20,female,True
593,0.1056518002870117,25,down,up,1.1839727999977183,1.834949413042845,,experiment,cRDM,2.0,,,,1718.780509700002,1008,20,female,True
594,0.1056518002870117,25,down,down,0.9573939999972936,0.3093184879165447,,experiment,cRDM,2.0,,,,1720.5471270999988,1008,20,female,True
595,0.1056518002870117,25,down,up,0.576841100002639,1.8488108796346152,,experiment,cRDM,2.0,,,,1723.613642799999,1008,20,female,True
596,0.1056518002870117,25,up,up,0.9668997000007948,0.4695551159916824,,experiment,cRDM,2.0,,,,1724.9135828,1008,20,female,True
597,0.1056518002870117,25,up,up,0.6563045000002603,0.91896271223784,,experiment,cRDM,2.0,,,,1727.080183099999,1008,20,female,True
598,0.1056518002870117,25,up,up,0.7083757000000332,0.3788130180204765,,experiment,cRDM,2.0,,,,1728.380140199999,1008,20,female,True
599,0.1056518002870117,25,up,up,0.7540939999998955,0.9723841428803356,,experiment,cRDM,2.0,,,,1730.3133927000015,1008,20,female,True
600,0.1056518002870117,25,down,down,0.500639100002445,0.3974614573430585,,experiment,cRDM,2.0,,,,1731.729819600001,1008,20,female,True
601,0.1056518002870117,25,up,up,0.437233799999376,0.6192187013317385,,experiment,cRDM,2.0,,,,1733.1132822,1008,20,female,True
602,0.1056518002870117,25,up,up,0.5459363999980269,0.5719450454774239,,experiment,cRDM,2.0,,,,1734.396578,1008,20,female,True
603,0.1056518002870117,25,down,up,0.5969812000003003,1.1815207623653867,,experiment,cRDM,2.0,,,,1736.3965043999997,1008,20,female,True
604,0.1056518002870117,25,up,up,0.5830568999990646,1.995875201189951,,experiment,cRDM,2.0,,,,1739.2464314999995,1008,20,female,True
605,0.1056518002870117,25,down,up,0.8721617000010156,0.4000117415472829,,experiment,cRDM,2.0,,,,1740.4963553000016,1008,20,female,True
606,0.1056518002870117,25,down,up,0.564838400001463,1.0586038102713922,,experiment,cRDM,2.0,,,,1742.679649400001,1008,20,female,True
607,0.1056518002870117,25,up,down,0.558602900000551,0.3048750633496167,,experiment,cRDM,2.0,,,,1743.8128878999996,1008,20,female,True
608,0.1056518002870117,25,up,up,0.6073510999995051,1.06917819613811,,experiment,cRDM,2.0,,,,1745.6961847999992,1008,20,female,True
609,0.1056518002870117,25,down,down,0.8626929999991262,0.4419453564195861,,experiment,cRDM,2.0,,,,1747.0127753000015,1008,20,female,True
610,0.1056518002870117,25,up,down,0.6763891000009608,0.4976767158780767,,experiment,cRDM,2.0,,,,1748.6460761000017,1008,20,female,True
611,0.1056518002870117,25,down,down,0.5748161000010441,0.5771358176886772,,experiment,cRDM,2.0,,,,1750.162669199999,1008,20,female,True
612,0.1056518002870117,25,down,down,0.6955286000011256,1.0507719561683702,,experiment,cRDM,2.0,,,,1752.0459636999983,1008,20,female,True
613,0.1056518002870117,25,down,down,0.5392925999985891,1.0708337705630284,,experiment,cRDM,2.0,,,,1754.079190299999,1008,20,female,True
614,0.1056518002870117,25,up,up,0.5704278999983217,1.7979574213119014,,experiment,cRDM,2.0,,,,1756.6791068999992,1008,20,female,True
615,0.1056518002870117,25,up,down,0.6834338999979082,0.9672605280824162,,experiment,cRDM,2.0,,,,1758.479045,1008,20,female,True
616,0.1056518002870117,25,up,up,0.6334922000023653,0.7453252186793851,,experiment,cRDM,2.0,,,,1760.1789952,1008,20,female,True
617,0.1056518002870117,25,down,down,0.5337160999988555,0.6419666122491363,,experiment,cRDM,2.0,,,,1761.7287496999998,1008,20,female,True
618,0.1056518002870117,25,down,down,0.6033261999982642,1.291752117020022,,experiment,cRDM,2.0,,,,1763.8121563999994,1008,20,female,True
619,0.1056518002870117,25,up,down,0.706388300000981,0.6335281382961161,,experiment,cRDM,2.0,,,,1765.3120931000012,1008,20,female,True
620,0.1056518002870117,25,down,down,0.5144183000011253,0.9689773076216788,,experiment,cRDM,2.0,,,,1767.262052000002,1008,20,female,True
621,0.1056518002870117,25,up,up,1.361168199997337,1.205036669297119,,experiment,cRDM,2.0,,,,1769.2453257000016,1008,20,female,True
622,0.1056518002870117,25,up,down,0.4963403000001563,1.8760064099660572,,experiment,cRDM,2.0,,,,1772.7451710999994,1008,20,female,True
623,0.1056518002870117,25,up,down,0.6060304999991786,1.7137475634924098,,experiment,cRDM,2.0,,,,1775.2284495999993,1008,20,female,True
624,0.1056518002870117,25,down,down,0.5771189000006416,0.4209593656168873,,experiment,cRDM,2.0,,,,1776.5283875999994,1008,20,female,True
625,0.1056518002870117,25,down,down,0.473487399998703,0.6858764777169613,,experiment,cRDM,2.0,,,,1778.0449678000004,1008,20,female,True
626,0.1056518002870117,25,up,down,0.5229091999972297,1.4917142264447618,,experiment,cRDM,2.0,,,,1780.261584,1008,20,female,True
627,0.1056518002870117,25,down,down,0.4673268000005919,0.7437986132347921,,experiment,cRDM,2.0,,,,1781.7781720999992,1008,20,female,True
628,0.1056518002870117,25,down,down,0.4793967000005068,1.409066310969676,,experiment,cRDM,2.0,,,,1783.9281114000005,1008,20,female,True
629,0.1056518002870117,25,up,down,0.4621797999971022,1.1379523423740638,,experiment,cRDM,2.0,,,,1785.811338200001,1008,20,female,True
630,0.1056518002870117,25,up,down,0.4305903000022226,1.3472098121262015,,experiment,cRDM,2.0,,,,1787.877934799999,1008,20,female,True
631,0.1056518002870117,25,down,down,0.383833500000037,0.7395900818907318,,experiment,cRDM,2.0,,,,1789.3112161999998,1008,20,female,True
632,0.1056518002870117,25,up,down,0.446362599999702,1.2180344467741588,,experiment,cRDM,2.0,,,,1791.2111594000016,1008,20,female,True
633,0.1056518002870117,25,down,down,0.3671852000006765,1.568276136274353,,experiment,cRDM,2.0,,,,1793.4777312000006,1008,20,female,True
634,0.1056518002870117,25,down,down,0.823616800000309,0.6534790078586893,,experiment,cRDM,2.0,,,,1794.810884800001,1008,20,female,True
635,0.1056518002870117,25,down,down,0.6342054000015196,1.545382286200255,,experiment,cRDM,2.0,,,,1797.4442787000007,1008,20,female,True
636,0.1056518002870117,25,up,up,0.7609537999996974,1.7726530852088571,,experiment,cRDM,2.0,,,,1800.1275327000003,1008,20,female,True
637,0.1056518002870117,25,up,down,0.5828836000000592,1.269405250638305,,experiment,cRDM,2.0,,,,1802.4106025,1008,20,female,True
638,0.1056518002870117,25,down,down,0.5649471000033373,0.3495585352434197,,experiment,cRDM,2.0,,,,1803.6106206000004,1008,20,female,True
639,0.1056518002870117,25,down,down,0.5752367000022787,1.9381706829045384,,experiment,cRDM,2.0,,,,1806.3772624999983,1008,20,female,True
640,0.1056518002870117,25,up,down,0.5383640000000014,1.2606348332296042,,experiment,cRDM,2.0,,,,1808.4771882999996,1008,20,female,True
641,0.1056518002870117,25,up,down,0.482742899999721,1.5225893286001002,,experiment,cRDM,2.0,,,,1810.7937477000012,1008,20,female,True
642,0.1056518002870117,25,up,down,0.433055699999386,0.92258698211719,,experiment,cRDM,2.0,,,,1812.4603984999997,1008,20,female,True
643,0.1056518002870117,25,up,up,0.6468641999999818,0.3833795343276774,,experiment,cRDM,2.0,,,,1813.543660700001,1008,20,female,True
644,0.1056518002870117,25,up,down,0.6855661000008695,1.2139064406732862,,experiment,cRDM,2.0,,,,1815.6769228999983,1008,20,female,True
645,0.1056518002870117,25,down,down,0.6976267999998527,0.9479992181790576,,experiment,cRDM,2.0,,,,1817.5768525999997,1008,20,female,True
646,0.1056518002870117,25,down,down,0.6487377000012202,1.628648479799356,,experiment,cRDM,2.0,,,,1820.1767480999988,1008,20,female,True
647,0.1056518002870117,25,up,down,0.7987609999981942,0.5989604615118853,,experiment,cRDM,2.0,,,,1821.6767154000008,1008,20,female,True
648,0.1056518002870117,25,down,up,1.6727030000001832,1.880391618561656,,experiment,cRDM,2.0,,,,1824.6097799000015,1008,20,female,True
649,0.1056518002870117,25,down,down,0.4963817999996536,1.03653425511106,,experiment,cRDM,2.0,,,,1827.5931394,1008,20,female,True
650,0.1056518002870117,25,down,down,0.5768548000014562,1.165905428707956,,experiment,cRDM,2.0,,,,1829.5096200000007,1008,20,female,True
651,0.1056518002870117,25,up,up,0.8714510999998311,0.990856030491073,,experiment,cRDM,2.0,,,,1831.3430274999992,1008,20,female,True
652,0.1056518002870117,25,down,down,0.6511887000015122,0.5020403960001968,,experiment,cRDM,2.0,,,,1832.9762941000008,1008,20,female,True
653,0.1056518002870117,25,down,down,0.595235099997808,1.8305039546793689,,experiment,cRDM,2.0,,,,1835.7262114000005,1008,20,female,True
654,0.1056518002870117,25,down,up,1.0107359000030556,1.346192028452922,,experiment,cRDM,2.0,,,,1837.9427765,1008,20,female,True
655,0.1056518002870117,25,up,down,1.109120900000562,0.6373668975687037,,experiment,cRDM,2.0,,,,1839.8593776000016,1008,20,female,True
656,0.1056518002870117,25,up,up,0.9945872000025702,1.8939546884895369,,experiment,cRDM,2.0,,,,1843.125916699999,1008,20,female,True
657,0.1056518002870117,25,down,down,0.6280173000013747,1.2586513116810425,,experiment,cRDM,2.0,,,,1845.6424823000016,1008,20,female,True
658,0.1056518002870117,25,up,up,0.9826604000008956,1.0837742920385696,,experiment,cRDM,2.0,,,,1847.6257712000008,1008,20,female,True
659,0.1056518002870117,25,down,up,1.391146199999639,0.9654188323514924,,experiment,cRDM,2.0,,,,1849.8423317000013,1008,20,female,True
660,0.1056518002870117,25,up,up,1.027782399996795,0.3098384257919797,,experiment,cRDM,2.0,,,,1851.8087477000008,1008,20,female,True
661,0.1056518002870117,25,up,up,1.09230149999712,0.7425561459386634,,experiment,cRDM,2.0,,,,1853.8421970000015,1008,20,female,True
662,99.0,25,M,up,0.748814599999605,1.347471548683654,,experiment,emotion,3.0,,,,1859.558667500001,1008,20,female,True
663,88.0,25,M,down,0.8152425999978732,0.9079729582097846,,experiment,emotion,3.0,,,,1861.5252341999983,1008,20,female,True
664,95.0,25,F,up,0.8632235000004584,1.0718122154943774,,experiment,emotion,3.0,,,,1863.7082601,1008,20,female,True
665,99.0,25,F,up,0.5325100000009115,1.1717562401844115,,experiment,emotion,3.0,,,,1866.025069700001,1008,20,female,True
666,95.0,25,M,up,0.4183948999998392,1.147941706442985,,experiment,emotion,3.0,,,,1867.9750078,1008,20,female,True
667,91.0,25,F,up,0.4189695000022766,1.1010834420825164,,experiment,emotion,3.0,,,,1869.7915967000008,1008,20,female,True
668,88.0,25,M,up,0.526929999999993,0.3802378892053754,,experiment,emotion,3.0,,,,1870.8415792000012,1008,20,female,True
669,91.0,25,M,up,1.057655500000692,0.9432833924879642,,experiment,emotion,3.0,,,,1872.5748213000008,1008,20,female,True
670,99.0,25,F,up,0.7680743000018992,1.6393995609236485,,experiment,emotion,3.0,,,,1875.5414038000015,1008,20,female,True
671,91.0,25,F,down,0.7908610000013141,1.1952453827680076,,experiment,emotion,3.0,,,,1877.7746149999984,1008,20,female,True
672,95.0,25,F,down,0.681269999997312,0.8650878210989952,,experiment,emotion,3.0,,,,1879.6912295,1008,20,female,True
673,99.0,25,F,up,0.9713095000006432,0.5906170763527068,,experiment,emotion,3.0,,,,1881.2411728000009,1008,20,female,True
674,95.0,25,F,down,0.881363099997543,0.9077038168636908,,experiment,emotion,3.0,,,,1883.3910878999995,1008,20,female,True
675,88.0,25,F,down,0.8179954000006546,0.8114776629336824,,experiment,emotion,3.0,,,,1885.4074852999984,1008,20,female,True
676,91.0,25,M,down,0.7170989999976882,0.7029954542890053,,experiment,emotion,3.0,,,,1887.2073710000004,1008,20,female,True
677,88.0,25,M,down,0.7423636999992596,1.8549594205755755,,experiment,emotion,3.0,,,,1890.041116100001,1008,20,female,True
678,99.0,25,M,up,0.6563446000000113,1.1936133747994142,,experiment,emotion,3.0,,,,1892.2741314999985,1008,20,female,True
679,88.0,25,M,down,1.0071511000023747,1.8616919959401013,,experiment,emotion,3.0,,,,1895.0573263000008,1008,20,female,True
680,95.0,25,F,up,0.664961399997992,1.8540364068239656,,experiment,emotion,3.0,,,,1898.2405827,1008,20,female,True
681,95.0,25,M,up,0.6117975000015576,1.5323739630133504,,experiment,emotion,3.0,,,,1900.723692,1008,20,female,True
682,91.0,25,M,down,0.7664192999982333,0.7052807517968389,,experiment,emotion,3.0,,,,1902.3070716,1008,20,female,True
683,91.0,25,F,up,0.6052796000003582,1.838773968307272,,experiment,emotion,3.0,,,,1905.1902464999985,1008,20,female,True
684,88.0,25,M,up,0.6079324999991513,1.2100273859049564,,experiment,emotion,3.0,,,,1907.2735517,1008,20,female,True
685,99.0,25,F,up,0.5497342000016943,1.0742849641235943,,experiment,emotion,3.0,,,,1909.256782200002,1008,20,female,True
686,95.0,25,F,up,0.6603346999982023,1.6089489507347647,,experiment,emotion,3.0,,,,1911.6901433999992,1008,20,female,True
687,88.0,25,M,down,0.6185246999993979,0.5634644317205233,,experiment,emotion,3.0,,,,1913.1899760000013,1008,20,female,True
688,99.0,25,M,up,0.6891821999997774,0.5321525845373951,,experiment,emotion,3.0,,,,1914.6232944000003,1008,20,female,True
689,99.0,25,F,up,0.7262474000017392,0.5241896021287973,,experiment,emotion,3.0,,,,1916.1232262000008,1008,20,female,True
690,91.0,25,M,down,0.9353488000015204,0.8135712313443906,,experiment,emotion,3.0,,,,1917.9231618000013,1008,20,female,True
691,88.0,25,F,up,0.5740885000013805,1.473680964412971,,experiment,emotion,3.0,,,,1920.6063728000008,1008,20,female,True
692,91.0,25,F,up,0.685154999999213,0.9697834345545848,,experiment,emotion,3.0,,,,1922.4063532,1008,20,female,True
693,95.0,25,F,up,0.6358928000008746,1.437081044449064,,experiment,emotion,3.0,,,,1924.8395787000009,1008,20,female,True
694,88.0,25,M,down,1.0788420000026235,1.076689139238944,,experiment,emotion,3.0,,,,1926.8226337000012,1008,20,female,True
695,99.0,25,M,up,0.8304838000003656,1.5946633189020585,,experiment,emotion,3.0,,,,1929.8060330000008,1008,20,female,True
696,95.0,25,M,up,0.6954877999996825,1.4895175622957462,,experiment,emotion,3.0,,,,1932.4059775999997,1008,20,female,True
697,99.0,25,F,up,0.4953215999994427,1.8244426773448603,,experiment,emotion,3.0,,,,1935.1891677999995,1008,20,female,True
698,88.0,25,F,up,0.6606829999982438,1.7831763340839588,,experiment,emotion,3.0,,,,1937.7557996,1008,20,female,True
699,95.0,25,M,up,0.6295028000022285,1.7520205514959628,,experiment,emotion,3.0,,,,1940.4389988000005,1008,20,female,True
700,91.0,25,F,up,0.580026399999042,1.3290601626848966,,experiment,emotion,3.0,,,,1942.7064533000007,1008,20,female,True
701,91.0,25,M,up,0.5564838999998756,0.7614783273003993,,experiment,emotion,3.0,,,,1944.322052200001,1008,20,female,True
702,95.0,25,M,up,0.6777478000003612,1.994225544681212,,experiment,emotion,3.0,,,,1947.1387598,1008,20,female,True
703,99.0,25,M,up,0.5022140000000945,1.899490401153592,,experiment,emotion,3.0,,,,1950.0053241999997,1008,20,female,True
704,91.0,25,F,up,0.5698969000004581,1.161128500678586,,experiment,emotion,3.0,,,,1951.9385909000007,1008,20,female,True
705,88.0,25,F,up,0.4746724999968137,1.343974347355276,,experiment,emotion,3.0,,,,1954.1718124,1008,20,female,True
706,88.0,25,M,down,0.7264030000005732,1.7964554411667522,,experiment,emotion,3.0,,,,1956.7050504,1008,20,female,True
707,91.0,25,F,down,1.0681837000011,1.2734697786551898,,experiment,emotion,3.0,,,,1958.9883029000007,1008,20,female,True
708,99.0,25,F,up,0.831237800000963,1.2204963321936129,,experiment,emotion,3.0,,,,1961.5882472000008,1008,20,female,True
709,95.0,25,M,up,0.7322219999987283,1.6075832157447074,,experiment,emotion,3.0,,,,1964.321252099999,1008,20,female,True
710,88.0,25,M,down,0.8450654999978724,0.8554491022136883,,experiment,emotion,3.0,,,,1966.171409300001,1008,20,female,True
711,99.0,25,F,down,0.6199766000027012,1.2234667791693168,,experiment,emotion,3.0,,,,1968.5045156999984,1008,20,female,True
712,95.0,25,M,up,1.2022801999992223,1.7238850230675558,,experiment,emotion,3.0,,,,1971.1211810999996,1008,20,female,True
713,95.0,25,F,down,0.6392270000033022,1.7001708976433798,,experiment,emotion,3.0,,,,1974.3042487999992,1008,20,female,True
714,88.0,25,F,down,0.6804922000010265,1.6547853773706618,,experiment,emotion,3.0,,,,1976.8709843,1008,20,female,True
715,91.0,25,F,down,0.5913469999977679,0.4471262300014234,,experiment,emotion,3.0,,,,1978.3041249000016,1008,20,female,True
716,99.0,25,M,down,0.9972973000003548,1.8824356647813885,,experiment,emotion,3.0,,,,1981.0541785999997,1008,20,female,True
717,91.0,25,M,up,0.9578878000029364,0.4066832146568405,,experiment,emotion,3.0,,,,1982.7206217999992,1008,20,female,True
718,91.0,25,F,down,0.6731416000002355,1.838169919821424,,experiment,emotion,3.0,,,,1985.7873411,1008,20,female,True
719,91.0,25,F,up,0.8115613000009034,1.0846985364927386,,experiment,emotion,3.0,,,,1987.803906699999,1008,20,female,True
720,99.0,25,M,up,1.1166331999993415,0.3758147729708958,,experiment,emotion,3.0,,,,1989.2538673000015,1008,20,female,True
721,95.0,25,M,down,0.7903347000028589,0.6234386311774325,,experiment,emotion,3.0,,,,1991.2871431999995,1008,20,female,True
722,88.0,25,M,down,0.7058444000031159,0.5186486192911949,,experiment,emotion,3.0,,,,1992.9036278999995,1008,20,female,True
723,88.0,25,M,down,0.5895845000013651,1.5950969971236886,,experiment,emotion,3.0,,,,1995.4869373,1008,20,female,True
724,95.0,25,M,up,1.066576699999132,0.9883637329486414,,experiment,emotion,3.0,,,,1997.3369257000013,1008,20,female,True
725,99.0,25,F,up,1.0264051000012842,1.99850473370728,,experiment,emotion,3.0,,,,2000.6700975999995,1008,20,female,True
726,99.0,25,F,up,0.5977564999993774,0.579229141934158,,experiment,emotion,3.0,,,,2002.536722500001,1008,20,female,True
727,88.0,25,M,down,0.7148818999994546,1.380024208305556,,experiment,emotion,3.0,,,,2004.7866109999995,1008,20,female,True
728,99.0,25,F,up,1.429788000001281,1.562398033896008,,experiment,emotion,3.0,,,,2007.3196854000016,1008,20,female,True
729,91.0,25,F,down,0.911067799999728,1.2889436456274024,,experiment,emotion,3.0,,,,2010.3364188000012,1008,20,female,True
730,95.0,25,F,down,0.7721583000020473,1.83285699657797,,experiment,emotion,3.0,,,,2013.3863238999984,1008,20,female,True
731,91.0,25,M,down,0.7092722999987018,1.137631707123666,,experiment,emotion,3.0,,,,2015.5862085000008,1008,20,female,True
732,88.0,25,F,down,1.0706896000010602,1.397026577526334,,experiment,emotion,3.0,,,,2018.0027709999997,1008,20,female,True
