,stimLvl,stimTime,rand,response,rt,precedingITI,trialNumber,trialType,stimuli,block,estIntens,estThres,estSlope,trialStart,subject,age,gender,headRest
0,0.9,100,down,,,1.1772034987208682,,introTrial,cRDM,,,,,228.84784170007333,66,25,female,True
1,150.0,100,F,,,0.7424071456864051,,introTrial,emotion,,,,,233.58122910000384,66,25,female,True
2,0.9,25,up,up,0.8631130999419838,1.4844260355360663,,tutorial,cRDM,,,,,275.7127400999889,66,25,female,True
3,0.9,25,up,down,0.6385521999327466,0.9979485993934888,,tutorial,cRDM,,,,,277.87927949998993,66,25,female,True
4,0.9,25,down,down,0.7847123999381438,1.3763681840950728,,tutorial,cRDM,,,,,280.17914949997794,66,25,female,True
5,0.9,25,up,up,0.745693999924697,0.6976098001156924,,tutorial,cRDM,,,,,281.92919499997515,66,25,female,True
6,0.9,25,down,down,0.5506931999698281,1.5320264190883508,,tutorial,cRDM,,,,,284.47912510007154,66,25,female,True
7,0.9,25,down,down,0.5111511999275535,0.9403997715268744,,tutorial,cRDM,,,,,286.24567319999915,66,25,female,True
8,0.9,25,down,down,0.3671342000598088,1.2118981450242317,,tutorial,cRDM,,,,,288.22894990001805,66,25,female,True
9,0.9,25,down,down,0.4939455999992788,0.4708303337125559,,tutorial,cRDM,,,,,289.3788928000722,66,25,female,True
10,0.9,25,up,up,0.3838364999974146,1.0751212841807083,,tutorial,cRDM,,,,,291.21216400002595,66,25,female,True
11,0.9,25,up,down,0.4167613999452442,1.86957024788194,,tutorial,cRDM,,,,,293.7787839000812,66,25,female,True
12,200.0,25,M,up,0.5961470999754965,1.8253989749247683,,tutorial,emotion,,,,,303.9616956000682,66,25,female,True
13,200.0,25,M,up,0.6486445000628009,1.2856472559372123,,tutorial,emotion,,,,,306.1282913000323,66,25,female,True
14,200.0,25,F,up,0.4529632000485435,0.3738912043004478,,tutorial,emotion,,,,,307.44490000000224,66,25,female,True
15,0.0,25,F,down,0.4819621000206098,0.9511675581609096,,tutorial,emotion,,,,,309.19487280002795,66,25,female,True
16,0.0,25,M,down,0.5828480999916792,1.6714233229180928,,tutorial,emotion,,,,,311.62807279999834,66,25,female,True
17,200.0,25,F,down,0.3836501999758184,1.6540545968451736,,tutorial,emotion,,,,,314.1611724999966,66,25,female,True
18,0.0,25,M,down,0.7839284000219777,1.469735264996298,,tutorial,emotion,,,,,316.32791740004905,66,25,female,True
19,200.0,25,M,up,0.41676870000083,1.5393945488625504,,tutorial,emotion,,,,,318.9278099000221,66,25,female,True
20,0.0,25,F,down,0.5884172000223771,0.3096037978016409,,tutorial,emotion,,,,,319.94444670004304,66,25,female,True
21,0.0,25,F,up,0.3668293000664562,1.7584113258001084,,tutorial,emotion,,,,,322.5776868000394,66,25,female,True
22,0.29,25,up,up,0.5003540000179783,0.9786158474792256,,psi_staircase_training,cRDM,,0.25,0.2569312402994632,0.105,336.3604836000595,66,25,female,True
23,0.25,25,up,up,0.5295318000717089,1.709006901072787,,psi_staircase_training,cRDM,,0.2191026665318312,0.2260132002683492,0.1046863203387393,338.8603264000267,66,25,female,True
24,0.21,25,down,down,0.3339416999369859,1.4054943373021895,,psi_staircase_training,cRDM,,0.1900540959403307,0.1968497961554001,0.1029467298424999,341.07703869999386,66,25,female,True
25,0.18,25,down,up,0.4002371999667957,1.451466885878763,,psi_staircase_training,cRDM,,0.1635257589279754,0.1701521334256793,0.1003816477568649,343.2102624999825,66,25,female,True
26,0.28,25,up,up,0.6029010999482125,0.6645039667745548,,psi_staircase_training,cRDM,,0.2462894156509761,0.253676874431043,0.111911164292932,344.5602032999741,66,25,female,True
27,0.26,25,down,down,0.5883786999620497,1.0225986348718656,,psi_staircase_training,cRDM,,0.224020924517144,0.2312720210897802,0.1098454399547734,346.44348470005207,66,25,female,True
28,0.23,25,up,up,0.3672052000183612,1.0901538418661505,,psi_staircase_training,cRDM,,0.2047781477371871,0.211824604656558,0.106745393979666,348.3933934000088,66,25,female,True
29,0.23,25,down,down,0.5348290000110865,1.872458718739613,,psi_staircase_training,cRDM,,0.1874201716315257,0.1943184465858974,0.1045006144520947,350.95997570001055,66,25,female,True
30,0.21,25,down,down,0.4716910999268293,1.926032957858529,,psi_staircase_training,cRDM,,0.1734597158637905,0.1801271287888497,0.1010033308447589,353.6931977000786,66,25,female,True
31,0.17,25,up,up,0.3839504999341443,0.8367916066002947,,psi_staircase_training,cRDM,,0.1604596670362223,0.167027966793554,0.0995018849040958,355.2765065000858,66,25,female,True
32,0.17,25,down,down,0.4417244000360369,0.7201686397195184,,psi_staircase_training,cRDM,,0.1444495168362478,0.1514653128703286,0.1062809182413607,356.69310680008493,66,25,female,True
33,0.16,25,down,up,0.6491279000183567,0.4966436289961131,,psi_staircase_training,cRDM,,0.129450188150751,0.1367437410700543,0.1104886028242535,357.9097066000104,66,25,female,True
34,0.22,25,down,down,0.4578079000348225,1.2488607794722917,,psi_staircase_training,cRDM,,0.17396020279296,0.1807572427427678,0.1029670252213135,360.0930252000689,66,25,female,True
35,0.19,25,up,up,0.5939260000595823,0.7641468226989375,,psi_staircase_training,cRDM,,0.1655563016517874,0.1720733007365464,0.0987247410759487,361.5929112000158,66,25,female,True
36,0.16,25,up,down,0.4493176999967545,0.4494449095502534,,psi_staircase_training,cRDM,,0.1551367065662806,0.1618351803618357,0.1014738658805038,362.9095185999759,66,25,female,True
37,0.21,25,down,up,0.8300496999872848,1.6000571357345816,,psi_staircase_training,cRDM,,0.1831368750779238,0.1883987685763001,0.0797113926885918,365.2427756000543,66,25,female,True
38,0.24,25,down,down,0.5761857000179589,0.827468124169856,,psi_staircase_training,cRDM,,0.2151592820217129,0.222137877098824,0.1057173682397666,367.19272250006907,66,25,female,True
39,0.24,25,up,up,0.5251896999543533,0.3652316694024409,,psi_staircase_training,cRDM,,0.2053650410849048,0.2119585503178784,0.0998837783067252,368.3926570999902,66,25,female,True
40,0.24,25,up,down,0.6062471999321133,0.3631115613543295,,psi_staircase_training,cRDM,,0.1978917527878802,0.2040698174181986,0.093590289494604,369.5426228999859,66,25,female,True
41,0.27,25,up,up,0.4659474000800401,0.4528315535314963,,psi_staircase_training,cRDM,,0.231327507970401,0.2400810948814454,0.1326063714355485,370.8759336000076,66,25,female,True
42,0.27,25,up,up,0.4553609000286087,1.7201877174210405,,psi_staircase_training,cRDM,,0.2203708860177558,0.2289025757961693,0.1292448952899215,373.3424703000346,66,25,female,True
43,0.26,25,down,down,0.4994949999963864,1.5677905903437868,,psi_staircase_training,cRDM,,0.2113803921938457,0.2196447940248335,0.1251958025926353,375.642395199975,66,25,female,True
44,0.26,25,down,down,0.4398732000263408,1.9329412422077807,,psi_staircase_training,cRDM,,0.203797781565801,0.2117797024257053,0.1209165537594853,378.358950200025,66,25,female,True
45,0.22,25,down,down,0.5468804000411183,1.0256205911883416,,psi_staircase_training,cRDM,,0.1977250709579591,0.2054008509525562,0.1162788858287175,380.1089512000326,66,25,female,True
46,0.23,25,up,up,0.4776823000283912,1.3711554129833847,,psi_staircase_training,cRDM,,0.1896663472285821,0.197443340115392,0.1178121400838268,382.2921449000714,66,25,female,True
47,0.23,25,up,down,0.3674683000426739,0.3645603308998423,,psi_staircase_training,cRDM,,0.1835111857756269,0.191158959971866,0.1158546314816547,383.408778400044,66,25,female,True
48,0.27,25,down,up,0.3004781999625265,1.2025656355150085,,psi_staircase_training,cRDM,,0.2070568016948958,0.2155430260935716,0.1285561491685628,385.3087043000851,66,25,female,True
49,0.32,25,down,down,0.4725162000395357,0.3767943284560971,,psi_staircase_training,cRDM,,0.2347020520953551,0.2446740435640657,0.1510637431363759,386.3753226000117,66,25,female,True
50,0.3,25,up,up,0.631951899966225,1.2172627592155334,,psi_staircase_training,cRDM,,0.2270309923538173,0.2368790864381117,0.1491868459575673,388.3419296999928,66,25,female,True
51,0.29,25,up,up,0.3168962999479845,1.016616478195942,,psi_staircase_training,cRDM,,0.21999160595303,0.2297075952075594,0.1471856157987464,390.2754532999825,66,25,female,True
52,100.0,25,M,up,0.7375225001014769,1.0849701370462703,,psi_staircase_training,emotion,,100.0,100.0,25.00050000000001,396.6083062000107,66,25,female,True
53,55.0,25,M,up,0.6912629998987541,0.8686317031281654,,psi_staircase_training,emotion,,54.7428094675419,54.7428094675419,25.00050000000011,398.5915337000042,66,25,female,True
54,32.0,25,F,down,0.4001825000159442,1.0540923015271504,,psi_staircase_training,emotion,,31.96124636773396,31.96124636773396,24.34819504815393,400.7248112000525,66,25,female,True
55,45.0,25,F,down,0.3834943999536335,1.9065258262871263,,psi_staircase_training,emotion,,44.995563347624845,44.995563347624845,25.558429500417464,403.4247112000594,66,25,female,True
56,61.0,25,M,down,0.5235680000623688,1.7057384303212202,,psi_staircase_training,emotion,,56.13206424444672,56.13206424444672,26.188292731612368,405.9412798000267,66,25,female,True
57,78.0,25,F,down,0.3668197999941185,1.0196669254939628,,psi_staircase_training,emotion,,69.11769977000444,69.11769977000444,30.625430602924865,407.8578759999946,66,25,female,True
58,91.0,25,M,down,0.4930708999745548,1.9533524697038664,,psi_staircase_training,emotion,,82.53808296879409,82.53808296879409,33.58127212713992,410.6077776000602,66,25,female,True
59,109.0,25,F,up,0.6094936000881717,1.177836836000972,,psi_staircase_training,emotion,,95.08638182775267,95.08638182775267,35.49151417204479,412.6243619000306,66,25,female,True
60,87.0,25,F,up,0.4690391999902203,1.2679016416413762,,psi_staircase_training,emotion,,87.63064795952933,87.63064795952933,34.14709212200348,414.8577508999733,66,25,female,True
61,79.0,25,M,down,0.423301100032404,0.6999205598389552,,psi_staircase_training,emotion,,80.2284289564987,80.2284289564987,34.62937865585441,416.4075448000804,66,25,female,True
62,106.0,25,F,up,0.4784719999879598,0.4218963717712802,,psi_staircase_training,emotion,,85.93143555269225,85.93143555269225,34.52130675679138,417.6573948999867,66,25,female,True
63,73.0,25,F,up,0.3501845999853685,1.158144776962266,,psi_staircase_training,emotion,,82.64390346394603,82.64390346394603,33.32527516715869,419.6574253999861,66,25,female,True
64,56.0,25,F,down,0.6935186000773683,1.5007901987098475,,psi_staircase_training,emotion,,76.75664137950099,76.75664137950099,34.76704858881516,421.9573340000352,66,25,female,True
65,103.0,25,M,up,0.5375571000622585,0.4886509948108397,,psi_staircase_training,emotion,,79.26239845539429,79.26239845539429,33.88572320894067,423.5073145000497,66,25,female,True
66,54.0,25,M,down,0.5570351999485865,1.4332289331521035,,psi_staircase_training,emotion,,77.16321724617661,77.16321724617661,32.899450382541005,425.8737753999885,66,25,female,True
67,104.0,25,F,up,0.5509837999707088,1.6707894012922448,,psi_staircase_training,emotion,,79.04934369738761,79.04934369738761,31.915528540822923,428.4569252000656,66,25,female,True
68,54.0,25,F,up,0.452168200048618,1.9613756543263308,,psi_staircase_training,emotion,,77.42592390914814,77.42592390914814,30.867871648225474,431.3236811000388,66,25,female,True
69,46.0,25,M,down,0.5905537999933586,0.7535854809055265,,psi_staircase_training,emotion,,72.23977595910429,72.23977595910429,34.430937268722225,432.94028580002487,66,25,female,True
70,101.0,25,M,up,0.3835202999180183,1.1977922600407769,,psi_staircase_training,emotion,,73.7785542264609,73.7785542264609,33.59131972743939,435.0733851999976,66,25,female,True
71,45.0,25,M,down,0.4766882000258192,0.5852716700297904,,psi_staircase_training,emotion,,72.44687481279585,72.44687481279585,32.77272844748694,436.4401506000431,66,25,female,True
72,101.0,25,M,up,0.5650655999779701,1.2438324956278577,,psi_staircase_training,emotion,,73.69534785217634,73.69534785217634,31.90099484927426,438.5067514000693,66,25,female,True
73,46.0,25,F,down,0.6744807000504807,0.4110759717770115,,psi_staircase_training,emotion,,72.57873235982485,72.57873235982485,31.053213664821502,439.82337340002414,66,25,female,True
74,101.0,25,F,up,0.5369347000960261,0.7599717723968792,,psi_staircase_training,emotion,,73.66226648256306,73.66226648256306,30.1627898903163,441.5899749000091,66,25,female,True
75,46.0,25,F,up,0.5002056000521407,0.7406420587655678,,psi_staircase_training,emotion,,72.72444870637267,72.72444870637267,29.311175202074363,443.2065970000112,66,25,female,True
76,39.0,25,M,down,0.5143606000347063,1.9021098314978235,,psi_staircase_training,emotion,,68.7292261113713,68.7292261113713,33.15596794645364,445.9734185000416,66,25,female,True
77,40.0,25,M,down,0.4169593999395147,1.2862898522155688,,psi_staircase_training,emotion,,69.6950214051468,69.6950214051468,32.387891108784736,448.1729091000743,66,25,female,True
78,99.0,25,F,up,0.5501720999600366,1.569720652576274,,psi_staircase_training,emotion,,70.55665722471852,70.55665722471852,31.650755019478375,450.539672599989,66,25,female,True
79,40.0,25,F,down,0.574607599992305,1.1314602779169076,,psi_staircase_training,emotion,,69.7036385805771,69.7036385805771,30.897858170688068,452.5562457999913,66,25,female,True
80,99.0,25,M,up,0.5962638000492007,0.5277946152003188,,psi_staircase_training,emotion,,70.44688643573964,70.44688643573964,30.166697627156537,453.98954890004825,66,25,female,True
81,41.0,25,M,down,0.453769400017336,0.7195305551170129,,psi_staircase_training,emotion,,69.70720005950908,69.70720005950908,29.42670423942996,455.7061129000504,66,25,female,True
82,0.29,25,up,up,0.5794139000354335,0.5199861724172419,,psi_staircase,cRDM,,0.25,0.2569312402994632,0.105,475.0054387000855,66,25,female,True
83,0.25,25,up,up,0.5754754999652505,0.9151082182157144,,psi_staircase,cRDM,,0.2191026665318312,0.2260132002683492,0.1046863203387393,476.7553430000553,66,25,female,True
84,0.21,25,down,down,0.5172622000100091,0.9421986239575396,,psi_staircase,cRDM,,0.1900540959403307,0.1968497961554001,0.1029467298424999,478.5386116000591,66,25,female,True
85,0.18,25,down,down,0.7185826000059023,0.3729205379730208,,psi_staircase,cRDM,,0.1635257589279754,0.1701521334256793,0.1003816477568649,479.70524540008046,66,25,female,True
86,0.15,25,up,up,0.5880522999214008,1.3842034875036977,,psi_staircase,cRDM,,0.1401895574244936,0.1466013351187503,0.0971307628663642,482.07183859997895,66,25,female,True
87,0.13,25,down,down,0.4914093000115827,1.95960225103632,,psi_staircase,cRDM,,0.1198760602145479,0.1260554767618333,0.0936107694196103,484.8884289000416,66,25,female,True
88,0.11,25,up,up,0.5731686000945047,1.2710353329618105,,psi_staircase,cRDM,,0.1025773523696548,0.1084910344569865,0.0895852101993795,486.921662800014,66,25,female,True
89,0.09,25,down,down,0.5208233000012115,1.0444171959981918,,psi_staircase,cRDM,,0.087844325958594,0.0934818215320969,0.0854013148647635,488.80490960006136,66,25,female,True
90,0.08,25,down,up,0.502354700001888,0.93668245530757,,psi_staircase,cRDM,,0.0751852092118086,0.0805556301471181,0.0813554535472043,490.5214919000864,66,25,female,True
91,0.13,25,up,down,0.6377065000124276,0.384461237807861,,psi_staircase,cRDM,,0.1145374077699418,0.1210371210567565,0.0984628819128368,491.68813770008273,66,25,female,True
92,0.2,25,down,down,0.5927753000287339,1.3636734051709951,,psi_staircase,cRDM,,0.163694178028886,0.1714746156794365,0.1178643241341766,493.93804170005023,66,25,female,True
93,0.18,25,down,down,0.7512502000899985,0.7028790122899222,,psi_staircase,cRDM,,0.1477647251294019,0.1553323279426576,0.1146401309233757,495.5046504000202,66,25,female,True
94,0.17,25,down,down,0.5956004000036046,1.693413599557644,,psi_staircase,cRDM,,0.1345904089049889,0.1419299225580091,0.1111848529658971,498.22121530002914,66,25,female,True
95,0.16,25,up,down,0.6060129000106826,1.6008957627114262,,psi_staircase,cRDM,,0.1238848058701729,0.1309831451515967,0.1075313497076724,500.6878231000155,66,25,female,True
96,0.21,25,up,up,0.4847721999976784,1.1626323344250402,,psi_staircase,cRDM,,0.1632904567962649,0.1713756534385134,0.1224810583326387,502.7210642000428,66,25,female,True
97,0.2,25,down,down,0.607239400036633,0.6869284092754173,,psi_staircase,cRDM,,0.1515217636905059,0.1593494236221709,0.1185796852099431,504.1545912000584,66,25,female,True
98,0.2,25,down,down,0.649235799908638,1.308124479841708,,psi_staircase,cRDM,,0.1422264988222247,0.1497673929177206,0.1142355257959223,506.3375702999765,66,25,female,True
99,0.15,25,up,up,0.5103831000160426,0.4110152736599547,,psi_staircase,cRDM,,0.1352385912301277,0.142464793369292,0.1094683190641947,507.6544534000568,66,25,female,True
100,0.14,25,up,down,0.5520146999042481,0.4367470278815279,,psi_staircase,cRDM,,0.1250712000337903,0.1326662530859375,0.1150559692090335,508.8708266000031,66,25,female,True
101,0.2,25,up,up,0.4969973999541253,1.0607469085119,,psi_staircase,cRDM,,0.1517702186631278,0.158379501717661,0.1001227328361018,510.7708062999882,66,25,female,True
102,0.19,25,up,up,0.283852299908176,0.9661798173896056,,psi_staircase,cRDM,,0.146467061213726,0.1526762731841932,0.0940621344421636,512.487370399991,66,25,female,True
103,0.19,25,down,down,0.3839810999343171,1.180114539600931,,psi_staircase,cRDM,,0.1422877970174676,0.1481331802594525,0.0885505643854159,514.3537789999973,66,25,female,True
104,0.15,25,down,down,0.5715800999896601,1.006687360895639,,psi_staircase,cRDM,,0.1393812313144644,0.1448639481963749,0.0830566028197268,516.037232200033,66,25,female,True
105,0.14,25,down,down,0.4992408000398427,0.5775120953467281,,psi_staircase,cRDM,,0.1312716819062016,0.1373112383361448,0.0914920559301845,517.4535715000238,66,25,female,True
106,0.13,25,up,up,0.4760908000171184,1.4243830647681577,,psi_staircase,cRDM,,0.1223935325522101,0.1291111815130176,0.1017643466984402,519.6537332000444,66,25,female,True
107,0.13,25,up,up,0.5881804999662563,0.3661712323149627,,psi_staircase,cRDM,,0.1133068313560255,0.120699163636466,0.1119849919943413,520.7536610000534,66,25,female,True
108,0.13,25,down,down,0.4619215000420809,1.345474173687166,,psi_staircase,cRDM,,0.1047528236829499,0.1126795320556519,0.1200801506186651,522.9539052000036,66,25,female,True
109,0.13,25,down,up,0.6399600999429822,0.6766622053799272,,psi_staircase,cRDM,,0.0970456986056491,0.105362657546689,0.1259919799457548,524.3538800000679,66,25,female,True
110,0.13,25,up,up,0.6339578999904916,1.024596809525127,,psi_staircase,cRDM,,0.1186630698431759,0.1261428857200612,0.1133102638403363,526.2868478000164,66,25,female,True
111,0.13,25,up,down,0.5160244000144303,0.9828354499189778,,psi_staircase,cRDM,,0.1107369864892961,0.1187671481663679,0.1216473444381699,528.1868027000455,66,25,female,True
112,0.15,25,down,down,0.5381033000303432,0.5135447884594299,,psi_staircase,cRDM,,0.1306377231580376,0.1375230739427129,0.1043048287399419,529.4867697000736,66,25,female,True
113,0.13,25,up,up,0.4894985998980701,1.9608629768192056,,psi_staircase,cRDM,,0.1243104589023661,0.1315064039001643,0.1090099595634171,532.253301299992,66,25,female,True
114,0.12,25,down,down,0.5108698999974877,0.4037717443624388,,psi_staircase,cRDM,,0.1170686128078723,0.1248523964616395,0.1179150120807153,533.4199204000179,66,25,female,True
115,0.12,25,up,up,0.4576126999454573,0.6195893771147409,,psi_staircase,cRDM,,0.1099783382720669,0.1183004677831525,0.126070307897369,534.8032146000769,66,25,female,True
116,0.12,25,down,down,0.4570773000596091,1.2422797965080965,,psi_staircase,cRDM,,0.103367993998693,0.1121064905025009,0.1323777698157254,536.7697283000452,66,25,female,True
117,0.12,25,up,up,0.8047227000351995,0.8610850103240972,,psi_staircase,cRDM,,0.0973483122517786,0.1063933339275036,0.1370212595319584,538.3530804000329,66,25,female,True
118,0.12,25,down,down,0.7507726000621915,0.4867779490765784,,psi_staircase,cRDM,,0.091935850272841,0.1011964015335905,0.1402862749476439,539.903013800038,66,25,female,True
119,0.12,25,up,up,0.8053232999518514,1.8667681466397748,,psi_staircase,cRDM,,0.0870902085356445,0.0964951100559996,0.1424730087216507,542.7694885000819,66,25,female,True
120,0.12,25,up,down,1.056219399906695,1.129511043119822,,psi_staircase,cRDM,,0.082745400607903,0.0922410321906469,0.1438474606435613,544.9696075000102,66,25,female,True
121,0.12,25,down,down,0.7741031999466941,1.3707259808085424,,psi_staircase,cRDM,,0.0966587837990011,0.1059724240150944,0.1410905091207885,547.6527328999946,66,25,female,True
122,0.12,25,down,down,0.8928559999912977,0.6385658356549275,,psi_staircase,cRDM,,0.0919574085028557,0.1014216990830561,0.1433726819423633,549.3360027000308,66,25,female,True
123,0.12,25,down,down,0.6553111999528483,1.5888727836505867,,psi_staircase,cRDM,,0.0876928444183906,0.0972575971185493,0.1448945628958262,552.0694949000608,66,25,female,True
124,0.12,25,up,up,0.8713509000372142,1.8138199961923356,,psi_staircase,cRDM,,0.0838095228638056,0.0934375080595829,0.1458524595713266,554.8024746000301,66,25,female,True
125,0.2,25,up,up,0.6597037999890745,0.589642871818709,,psi_staircase,cRDM,,0.0802544358468499,0.0899182929482867,0.1463958760352658,556.5190915000858,66,25,female,True
126,0.12,25,down,down,0.6351526000071317,0.805777960120919,,psi_staircase,cRDM,,0.0785215251155347,0.0880842428262595,0.1448637352399759,558.2356855000835,66,25,female,True
127,0.19,25,down,down,0.765852399985306,0.4922783524553261,,psi_staircase,cRDM,,0.0753582476766671,0.0849392730519019,0.1451410744592941,559.6189797000261,66,25,female,True
128,0.15,25,down,down,0.5709909000433981,1.2849187279307723,,psi_staircase,cRDM,,0.0737300966648925,0.0832165765814117,0.1437088238466721,561.9188992000418,66,25,female,True
129,0.11,25,up,down,0.503056799992919,1.554126438727813,,psi_staircase,cRDM,,0.0715171625141589,0.0809485894447192,0.1428748369589094,564.3188017000211,66,25,female,True
130,0.11,25,up,up,0.7528620000230148,0.6734472882141835,,psi_staircase,cRDM,,0.0818832970603353,0.0912476935630288,0.1418594061525986,565.7690053000115,66,25,female,True
131,0.11,25,up,up,0.6278027000371367,0.9113601995180745,,psi_staircase,cRDM,,0.0785699981277942,0.0880060341260644,0.1429446588217544,567.7020146000432,66,25,female,True
132,100.0,25,M,up,0.5620790000539273,1.3325789179978615,,psi_staircase,emotion,,100.0,100.0,25.00050000000001,581.8517487000208,66,25,female,True
133,55.0,25,M,down,0.6154301000060514,1.2371368808276335,,psi_staircase,emotion,,54.7428094675419,54.7428094675419,25.00050000000011,584.0014050999889,66,25,female,True
134,79.0,25,F,down,0.6011281999526545,1.0139726351693703,,psi_staircase,emotion,,79.636070985635,79.636070985635,25.713269254886413,585.9846771999728,66,25,female,True
135,103.0,25,F,up,0.6662981999106705,1.9139727604001764,,psi_staircase,emotion,,97.61123893914808,97.61123893914808,26.1463337262867,588.8514833999798,66,25,female,True
136,87.0,25,M,down,0.6512995000230148,0.9053414155405576,,psi_staircase,emotion,,85.98876744579668,85.98876744579668,23.003056417783498,590.7844944000244,66,25,female,True
137,95.0,25,F,up,0.6294775999849662,1.551505758002656,,psi_staircase,emotion,,95.05640406123077,95.05640406123077,22.150603223582728,593.3513305999804,66,25,female,True
138,84.0,25,M,up,0.5491157999495044,1.2046764225313942,,psi_staircase,emotion,,88.41622646561945,88.41622646561945,20.597853251064077,595.5676808999851,66,25,female,True
139,69.0,25,F,down,0.6606694998918101,1.257798854500656,,psi_staircase,emotion,,80.77555766288957,80.77555766288957,26.33379145123071,597.7511621000012,66,25,female,True
140,71.0,25,F,down,0.6503158999839798,0.3729480130454436,,psi_staircase,emotion,,84.74879117486184,84.74879117486184,23.77356239496901,599.1675131000811,66,25,female,True
141,100.0,25,M,down,0.5023637999547645,1.04981223106961,,psi_staircase,emotion,,87.29210955575294,87.29210955575294,21.56213349504325,601.2174326999811,66,25,female,True
142,113.0,25,F,up,0.4441186999902129,1.6279182756178994,,psi_staircase,emotion,,94.11703475576908,94.11703475576908,28.90363989423953,603.7006978000281,66,25,female,True
143,111.0,25,F,up,0.4904665000503883,0.3712707515027136,,psi_staircase,emotion,,91.48602090020754,91.48602090020754,27.002867946565,604.8673171000555,66,25,female,True
144,71.0,25,F,up,0.4358785999938845,1.3916868158323326,,psi_staircase,emotion,,89.55638867549764,89.55638867549764,25.291372727211517,607.0839177999878,66,25,female,True
145,61.0,25,M,down,0.6292997000273317,1.443849096312481,,psi_staircase,emotion,,83.89307316758698,83.89307316758698,31.01907965746784,609.3004952999763,66,25,female,True
146,62.0,25,M,down,0.4466865999856964,0.3568688400144209,,psi_staircase,emotion,,85.72328575993185,85.72328575993185,29.72077411474671,610.6671001000796,66,25,female,True
147,110.0,25,F,up,0.61404599994421,1.500268562530375,,psi_staircase,emotion,,87.18328723606069,87.18328723606069,28.511125938145543,612.9836716999998,66,25,female,True
148,62.0,25,F,down,0.6022111000493169,1.3418714977892952,,psi_staircase,emotion,,85.76346623705227,85.76346623705227,27.197015453758944,615.2835913000163,66,25,female,True
149,109.0,25,M,up,0.6952876000432298,1.9089543851317827,,psi_staircase,emotion,,86.88994654544882,86.88994654544882,25.987147752376483,618.1335076000541,66,25,female,True
150,64.0,25,M,down,0.7427318999543786,1.3315390825833386,,psi_staircase,emotion,,85.75508865905648,85.75508865905648,24.71025330112729,620.5500538999913,66,25,female,True
151,108.0,25,M,up,0.6133370000170544,1.5629300854485226,,psi_staircase,emotion,,86.70314041843234,86.70314041843234,23.539236832992817,623.2664485999849,66,25,female,True
152,65.0,25,M,down,0.6039881999604404,1.8951558804568944,,psi_staircase,emotion,,85.78979871305282,85.78979871305282,22.355024416719147,626.1667998000048,66,25,female,True
153,106.0,25,F,down,0.7111626999685541,1.324311114027793,,psi_staircase,emotion,,86.56385586926677,86.56385586926677,21.285002213410458,628.466682300088,66,25,female,True
154,115.0,25,F,up,0.6577690999256447,1.4332370988692953,,psi_staircase,emotion,,90.16121594505296,90.16121594505296,26.190258340486864,630.9830260999734,66,25,female,True
155,114.0,25,F,up,0.6018995000049472,1.2247365425243912,,psi_staircase,emotion,,89.33221440621952,89.33221440621952,25.119485187025138,633.2329218999948,66,25,female,True
156,66.0,25,M,down,0.7712088999105617,0.911430877457172,,psi_staircase,emotion,,88.63748570936065,88.63748570936065,24.142571792485207,635.0995426999871,66,25,female,True
157,113.0,25,M,up,0.4740895999129861,1.9582298163783132,,psi_staircase,emotion,,89.34428960502116,89.34428960502116,23.1865623074409,638.1827462000074,66,25,female,True
158,67.0,25,F,down,0.6111701000481844,1.229714576876847,,psi_staircase,emotion,,88.75664099656592,88.75664099656592,22.30056069552218,640.2826812000712,66,25,female,True
159,111.0,25,F,up,0.5845993000548333,1.5126357772772592,,psi_staircase,emotion,,89.36840351051866,89.36840351051866,21.440207313647363,642.7492444000673,66,25,female,True
160,69.0,25,M,down,0.5819490998983383,0.9183544536899146,,psi_staircase,emotion,,88.8365580836898,88.8365580836898,20.647131590248947,644.6158424000023,66,25,female,True
161,71.0,25,M,down,0.6646909000119194,1.0336306017733514,,psi_staircase,emotion,,89.4056979483386,89.4056979483386,19.878396649487406,646.5990956000751,66,25,female,True
162,109.0,25,F,up,0.7050879000453278,0.853701675536098,,psi_staircase,emotion,,89.94671532528767,89.94671532528767,19.17852934121004,648.4656976000406,66,25,female,True
163,73.0,25,M,down,1.1156230999622494,0.572369634159748,,psi_staircase,emotion,,89.45446476238666,89.45446476238666,18.50280033682917,650.0821898999857,66,25,female,True
164,107.0,25,F,up,0.5009662000229582,1.2772967647071125,,psi_staircase,emotion,,89.983767899073,89.983767899073,17.885776129698648,652.8488182000583,66,25,female,True
165,75.0,25,M,down,0.6323278999188915,1.8919099967065407,,psi_staircase,emotion,,89.51260164635052,89.51260164635052,17.300318941143797,655.615459099994,66,25,female,True
166,77.0,25,F,up,0.7361193000106141,0.8204866111548348,,psi_staircase,emotion,,90.04267592374802,90.04267592374802,16.7562527472464,657.4486542000668,66,25,female,True
167,106.0,25,M,up,0.524515200057067,1.621217528280659,,psi_staircase,emotion,,88.1196844131458,88.1196844131458,18.52676483023453,660.1652911000419,66,25,female,True
168,105.0,25,F,up,0.5906131999799982,1.1220914370383814,,psi_staircase,emotion,,87.69047560768986,87.69047560768986,17.9636463097636,662.1652049000841,66,25,female,True
169,70.0,25,M,down,0.6210685999831185,1.5388451187186505,,psi_staircase,emotion,,87.29109434188732,87.29109434188732,17.455530604403858,664.6317774000345,66,25,female,True
170,103.0,25,M,up,0.5701288999989629,1.9310680290439963,,psi_staircase,emotion,,87.66592885170061,87.66592885170061,16.978182085975487,667.5316492000129,66,25,female,True
171,71.0,25,F,down,0.5712930000154302,1.094743257672525,,psi_staircase,emotion,,87.2591372855059,87.2591372855059,16.530893096608327,669.548524599988,66,25,female,True
172,102.0,25,F,up,0.7957510000560433,1.306896198561741,,psi_staircase,emotion,,87.61249722907249,87.61249722907249,16.11604282290322,671.848036200041,66,25,female,True
173,100.0,25,F,up,0.6246601999737322,0.8982688418971214,,psi_staircase,emotion,,87.22066827275354,87.22066827275354,15.72140055636023,673.8981247000629,66,25,female,True
174,73.0,25,M,down,0.6283982000313699,1.2066570945826631,,psi_staircase,emotion,,86.80796123665442,86.80796123665442,15.357797903520794,676.081362200086,66,25,female,True
175,99.0,25,M,up,0.7295731999911368,1.1134317167476633,,psi_staircase,emotion,,87.17391190172977,87.17391190172977,15.002430887128742,678.181279100012,66,25,female,True
176,97.0,25,F,up,0.5393012999556959,1.784499911363005,,psi_staircase,emotion,,86.76675837225979,86.76675837225979,14.673440055618396,681.0645142000867,66,25,female,True
177,96.0,25,F,up,0.5696467000525445,0.3351793180264152,,psi_staircase,emotion,,86.327760952236,86.327760952236,14.368508209387056,682.3311133000534,66,25,female,True
178,95.0,25,F,up,0.5900749999564141,1.041999439529045,,psi_staircase,emotion,,85.88875832908552,85.88875832908552,14.078556853166129,684.2977302999934,66,25,female,True
179,94.0,25,M,up,0.5468165000202134,0.3671850631761927,,psi_staircase,emotion,,85.447067795443,85.447067795443,13.79962457364186,685.6309982000384,66,25,female,True
180,93.0,25,M,up,0.5328793999506161,0.6510870429104498,,psi_staircase,emotion,,85.00035437021458,85.00035437021458,13.527747947326198,687.1809353000717,66,25,female,True
181,92.0,25,M,down,0.735555800027214,0.6069445308490262,,psi_staircase,emotion,,84.54659430009107,84.54659430009107,13.258804433095625,688.7141956000123,66,25,female,True
182,0.0755096360820588,25,down,down,0.7661146000027657,0.6919910103550349,,experiment,cRDM,0.0,,,,694.8306692000479,66,25,female,True
183,0.0755096360820588,25,up,down,1.1462842000182718,1.9613397288297765,,experiment,cRDM,0.0,,,,697.8305334000615,66,25,female,True
184,0.0755096360820588,25,down,down,1.0392801000270993,0.838674236076485,,experiment,cRDM,0.0,,,,700.0805158000439,66,25,female,True
185,0.0755096360820588,25,up,up,1.3703588000498712,0.4033692226265455,,experiment,cRDM,0.0,,,,701.7804009000538,66,25,female,True
186,0.0755096360820588,25,down,down,0.8414005999220535,0.5011903570601336,,experiment,cRDM,0.0,,,,703.9136456000851,66,25,female,True
187,0.0755096360820588,25,down,down,0.9355123999994248,0.6637952454831662,,experiment,cRDM,0.0,,,,705.6802705000155,66,25,female,True
188,0.0755096360820588,25,up,up,0.7622733999742195,0.9336273890897158,,experiment,cRDM,0.0,,,,707.8135051000863,66,25,female,True
189,0.0755096360820588,25,down,down,1.0335606000153348,0.3073389058758467,,experiment,cRDM,0.0,,,,709.1301320000784,66,25,female,True
190,0.0755096360820588,25,up,up,1.0141192000592127,1.7699649025008195,,experiment,cRDM,0.0,,,,712.1966925000306,66,25,female,True
191,0.0755096360820588,25,up,down,1.1248578999657184,1.1601425598993171,,experiment,cRDM,0.0,,,,714.629930700059,66,25,female,True
192,0.0755096360820588,25,down,down,0.7106006999965757,1.6508252987756198,,experiment,cRDM,0.0,,,,717.6632168000797,66,25,female,True
193,0.0755096360820588,25,up,down,1.1870153999188915,1.032054749174394,,experiment,cRDM,0.0,,,,719.6797631999943,66,25,female,True
194,0.0755096360820588,25,up,up,1.3845164000522343,0.6085983768977188,,experiment,cRDM,0.0,,,,721.746318200021,66,25,female,True
195,0.0755096360820588,25,up,up,0.9581264000153168,0.5788794940980306,,experiment,cRDM,0.0,,,,723.9796372000128,66,25,female,True
196,0.0755096360820588,25,down,down,0.9265801999717952,0.4353991625282838,,experiment,cRDM,0.0,,,,725.6461847000755,66,25,female,True
197,0.0755096360820588,25,down,down,0.945308400085196,1.2529435970034348,,experiment,cRDM,0.0,,,,728.079458000022,66,25,female,True
198,0.0755096360820588,25,up,up,0.8737725999671966,1.904418128307477,,experiment,cRDM,0.0,,,,731.195999699994,66,25,female,True
199,0.0755096360820588,25,up,down,1.2388471000595018,0.5551615560644794,,experiment,cRDM,0.0,,,,732.8959378000582,66,25,female,True
200,0.0755096360820588,25,down,down,1.049223200068809,0.7710643440179237,,experiment,cRDM,0.0,,,,735.1625510000158,66,25,female,True
201,0.0755096360820588,25,down,down,0.9796961999963968,0.953499730390142,,experiment,cRDM,0.0,,,,737.4291086000158,66,25,female,True
202,0.0755096360820588,25,up,up,0.8254222000250593,1.33059139182947,,experiment,cRDM,0.0,,,,740.0123537000036,66,25,female,True
203,0.0755096360820588,25,down,down,0.8994772000005469,0.9134869797818056,,experiment,cRDM,0.0,,,,742.0122737999773,66,25,female,True
204,0.0755096360820588,25,up,down,0.8179099999833852,0.8131527911233722,,experiment,cRDM,0.0,,,,743.9788983999752,66,25,female,True
205,0.0755096360820588,25,down,up,0.7503544999053702,1.2340200384731514,,experiment,cRDM,0.0,,,,746.2954518999904,66,25,female,True
206,0.0755096360820588,25,down,down,0.6320911999791861,1.7700608848864066,,experiment,cRDM,0.0,,,,749.0787022000877,66,25,female,True
207,0.0755096360820588,25,up,down,0.5315709999995306,1.5885421814928409,,experiment,cRDM,0.0,,,,751.545191799989,66,25,female,True
208,0.0755096360820588,25,up,down,0.5173696000128984,1.603972756934532,,experiment,cRDM,0.0,,,,753.9454292000737,66,25,female,True
209,0.0755096360820588,25,down,up,0.714974100003019,0.4243175817369279,,experiment,cRDM,0.0,,,,755.1618224000558,66,25,female,True
210,0.0755096360820588,25,up,up,0.7540095000294968,1.0663462997803517,,experiment,cRDM,0.0,,,,757.2117054000264,66,25,female,True
211,0.0755096360820588,25,down,down,1.0541487000882626,0.88687477360031,,experiment,cRDM,0.0,,,,759.1116263000295,66,25,female,True
212,0.0755096360820588,25,up,down,0.7875600000843406,1.09911741004461,,experiment,cRDM,0.0,,,,761.5282102000201,66,25,female,True
213,0.0755096360820588,25,down,down,0.8029500000411645,0.9612250450677742,,experiment,cRDM,0.0,,,,763.5448025000514,66,25,female,True
214,0.0755096360820588,25,up,up,0.5797388000646606,1.814841872048968,,experiment,cRDM,0.0,,,,766.4280273000477,66,25,female,True
215,0.0755096360820588,25,down,up,0.7958510000025854,1.2194374786565123,,experiment,cRDM,0.0,,,,768.4779587000376,66,25,female,True
216,0.0755096360820588,25,up,up,0.8015518999891356,1.5129199276409435,,experiment,cRDM,0.0,,,,771.061250800034,66,25,female,True
217,0.0755096360820588,25,down,up,0.9583410000195728,1.0599492803565354,,experiment,cRDM,0.0,,,,773.1944613000378,66,25,female,True
218,0.0755096360820588,25,up,down,0.939093100023456,0.453629997969849,,experiment,cRDM,0.0,,,,774.8777337999782,66,25,female,True
219,0.0755096360820588,25,down,down,0.8757685999153182,0.8893029720833769,,experiment,cRDM,0.0,,,,776.9610109999776,66,25,female,True
220,0.0755096360820588,25,up,down,1.0675622000126168,0.6059240380514814,,experiment,cRDM,0.0,,,,778.6942742000101,66,25,female,True
221,0.0755096360820588,25,down,down,0.79798229993321,1.777259331604956,,experiment,cRDM,0.0,,,,781.8108315999852,66,25,female,True
222,0.0755096360820588,25,down,up,1.1974171000765637,0.7621813295650117,,experiment,cRDM,0.0,,,,783.6443403000012,66,25,female,True
223,0.0755096360820588,25,up,up,0.6560855999123305,0.907330859830511,,experiment,cRDM,0.0,,,,786.0106545999879,66,25,female,True
224,0.0755096360820588,25,down,down,0.5825977999484167,1.9060262985195169,,experiment,cRDM,0.0,,,,788.8272074999986,66,25,female,True
225,0.0755096360820588,25,up,down,1.0763128000544384,0.5813193175907199,,experiment,cRDM,0.0,,,,790.2604917000281,66,25,female,True
226,0.0755096360820588,25,up,down,1.0401661000214515,0.3427010385523658,,experiment,cRDM,0.0,,,,791.9436317000072,66,25,female,True
227,0.0755096360820588,25,down,down,0.6888108000857756,1.7884803117408092,,experiment,cRDM,0.0,,,,795.0269876000239,66,25,female,True
228,0.0755096360820588,25,down,up,0.6438876999309286,1.4326061209424228,,experiment,cRDM,0.0,,,,797.426899000071,66,25,female,True
229,0.0755096360820588,25,up,down,0.931561000063084,0.309175657073963,,experiment,cRDM,0.0,,,,798.6602306000423,66,25,female,True
230,0.0755096360820588,25,down,down,0.6986939000198618,1.0716173661187902,,experiment,cRDM,0.0,,,,800.9100976000773,66,25,female,True
231,0.0755096360820588,25,up,down,0.4990832000039518,1.8159627564698544,,experiment,cRDM,0.0,,,,803.6766829000553,66,25,female,True
232,0.0755096360820588,25,up,down,1.5491719000274315,0.9834430445879068,,experiment,cRDM,0.0,,,,805.4265923000639,66,25,female,True
233,0.0755096360820588,25,up,down,1.390262600034475,0.8775274621318472,,experiment,cRDM,0.0,,,,808.1265003000153,66,25,female,True
234,0.0755096360820588,25,up,down,0.666334499954246,0.3983667168340913,,experiment,cRDM,0.0,,,,810.1764270000858,66,25,female,True
235,0.0755096360820588,25,up,down,0.7371037999400869,1.951586973240712,,experiment,cRDM,0.0,,,,813.0596990999766,66,25,female,True
236,0.0755096360820588,25,down,down,1.111809799913317,1.4811163432785108,,experiment,cRDM,0.0,,,,815.5429123999784,66,25,female,True
237,0.0755096360820588,25,down,up,0.5346072000684217,0.7872663871456467,,experiment,cRDM,0.0,,,,817.7261540000327,66,25,female,True
238,0.0755096360820588,25,down,up,0.6376770999049768,0.4508086551945167,,experiment,cRDM,0.0,,,,818.9760879999958,66,25,female,True
239,0.0755096360820588,25,up,up,0.7074463000753894,1.239260611714302,,experiment,cRDM,0.0,,,,821.1093943000305,66,25,female,True
240,0.0755096360820588,25,down,down,0.7068242999957874,0.9953317415558354,,experiment,cRDM,0.0,,,,823.0759467000607,66,25,female,True
241,0.0755096360820588,25,down,down,0.6915616999613121,0.9490190716926912,,experiment,cRDM,0.0,,,,825.0092331999913,66,25,female,True
242,0.0755096360820588,25,down,down,0.6829850000794977,1.127467954327272,,experiment,cRDM,0.0,,,,827.0758057000348,66,25,female,True
243,0.0755096360820588,25,up,up,0.5667661000043154,1.8890701371304144,,experiment,cRDM,0.0,,,,829.9090015999973,66,25,female,True
244,0.0755096360820588,25,down,down,0.6971585999708623,1.0877042377247044,,experiment,cRDM,0.0,,,,831.8256123000756,66,25,female,True
245,0.0755096360820588,25,up,up,0.6482088000047952,1.337418423185881,,experiment,cRDM,0.0,,,,834.1255442000693,66,25,female,True
246,0.0755096360820588,25,up,up,0.9468757000286132,0.5358322403096636,,experiment,cRDM,0.0,,,,835.5588845000602,66,25,female,True
247,0.0755096360820588,25,down,down,0.5597299999790266,1.6259892446716044,,experiment,cRDM,0.0,,,,838.3920699000591,66,25,female,True
248,0.0755096360820588,25,up,up,0.5695412000641227,1.5545132840505975,,experiment,cRDM,0.0,,,,840.775309800054,66,25,female,True
249,0.0755096360820588,25,down,down,0.5141756000230089,0.9105203183348792,,experiment,cRDM,0.0,,,,842.5085828000447,66,25,female,True
250,0.0755096360820588,25,up,up,0.6469099000096321,0.6621214497268084,,experiment,cRDM,0.0,,,,843.941855299985,66,25,female,True
251,0.0755096360820588,25,down,down,0.7209543000208214,0.632849683159675,,experiment,cRDM,0.0,,,,845.4918033999857,66,25,female,True
252,0.0755096360820588,25,up,up,0.7540219000075012,0.6131937747733397,,experiment,cRDM,0.0,,,,847.0917348000221,66,25,female,True
253,0.0755096360820588,25,down,down,0.6038077999837697,1.6777891189644054,,experiment,cRDM,0.0,,,,849.7749741000589,66,25,female,True
254,0.0755096360820588,25,down,down,0.8983100999612361,0.5000772099093957,,experiment,cRDM,0.0,,,,851.1414473999757,66,25,female,True
255,0.0755096360820588,25,down,down,0.7469369999598712,0.6729868225324005,,experiment,cRDM,0.0,,,,852.9748275000602,66,25,female,True
256,0.0755096360820588,25,down,down,0.8283527999883518,1.3042938727486977,,experiment,cRDM,0.0,,,,855.2914372000378,66,25,female,True
257,0.0755096360820588,25,down,down,0.5807157000526786,1.8915407660767944,,experiment,cRDM,0.0,,,,858.258016900043,66,25,female,True
258,0.0755096360820588,25,up,up,0.6241303000133485,0.6356590662778501,,experiment,cRDM,0.0,,,,859.7245965000475,66,25,female,True
259,0.0755096360820588,25,up,up,0.6296997999306768,1.6223536044944915,,experiment,cRDM,0.0,,,,862.2410811000736,66,25,female,True
260,0.0755096360820588,25,up,up,0.4746507999952882,0.5549039891994049,,experiment,cRDM,0.0,,,,863.6911299000494,66,25,female,True
261,0.0755096360820588,25,up,down,0.6283867000602186,1.7502302336436777,,experiment,cRDM,0.0,,,,866.1743695000187,66,25,female,True
262,91.0,25,M,down,0.8480883999727666,1.6104113584207052,,experiment,emotion,0.0,,,,885.773658500053,66,25,female,True
263,80.0,25,M,down,0.6472038000356406,0.9472769039206336,,experiment,emotion,0.0,,,,887.8735839000437,66,25,female,True
264,87.0,25,F,down,0.6786336000077426,1.8732166276001128,,experiment,emotion,0.0,,,,890.6901420999784,66,25,female,True
265,91.0,25,F,down,0.8963472000323236,1.2384499449111863,,experiment,emotion,0.0,,,,892.8734009000473,66,25,female,True
266,87.0,25,M,down,0.7004719999385998,1.9729341775598492,,experiment,emotion,0.0,,,,896.0232802000828,66,25,female,True
267,83.0,25,F,down,0.7179069999838248,1.4457569447106362,,experiment,emotion,0.0,,,,898.4398241000017,66,25,female,True
268,80.0,25,M,up,0.7416486999718472,0.7843805156455139,,experiment,emotion,0.0,,,,900.223121499992,66,25,female,True
269,83.0,25,M,up,0.7340710000135005,1.4057630291450685,,experiment,emotion,0.0,,,,902.6396785000106,66,25,female,True
270,91.0,25,F,up,0.6363293000031263,0.6968631188817208,,experiment,emotion,0.0,,,,904.3394155000568,66,25,female,True
271,83.0,25,F,up,0.6913594999350607,0.390170480470811,,experiment,emotion,0.0,,,,905.6394626999972,66,25,female,True
272,87.0,25,F,down,0.6722413999959826,1.6249184733131472,,experiment,emotion,0.0,,,,908.2395047000608,66,25,female,True
273,91.0,25,F,down,0.6119629999157041,1.3909805583789727,,experiment,emotion,0.0,,,,910.5727751000086,66,25,female,True
274,87.0,25,F,down,0.5504546000156552,0.8346412731569426,,experiment,emotion,0.0,,,,912.2893491000868,66,25,female,True
275,80.0,25,F,down,0.5701838000677526,1.403402567695864,,experiment,emotion,0.0,,,,914.5225846000249,66,25,female,True
276,83.0,25,M,down,0.626967600081116,1.9909080285030367,,experiment,emotion,0.0,,,,917.355845700018,66,25,female,True
277,80.0,25,M,down,0.6853279999922961,1.157224526321616,,experiment,emotion,0.0,,,,919.4224218999734,66,25,female,True
278,91.0,25,M,up,0.8980786999454722,0.4231178899909918,,experiment,emotion,0.0,,,,920.8056889000582,66,25,female,True
279,80.0,25,M,down,0.7195080999517813,1.9477477825606888,,experiment,emotion,0.0,,,,923.9222366000758,66,25,female,True
280,87.0,25,F,down,0.6372382999397814,0.3738844210932979,,experiment,emotion,0.0,,,,925.3055397000862,66,25,female,True
281,87.0,25,M,up,0.841002200031653,1.6781839121344175,,experiment,emotion,0.0,,,,927.8887691000708,66,25,female,True
282,83.0,25,M,down,0.7653791999910027,0.3976480991179977,,experiment,emotion,0.0,,,,929.4053708000574,66,25,female,True
283,83.0,25,F,down,0.8497605000156909,0.7261222555706481,,experiment,emotion,0.0,,,,931.171976200072,66,25,female,True
284,80.0,25,M,down,0.6365054999478161,1.263266902958077,,experiment,emotion,0.0,,,,933.5552303000586,66,25,female,True
285,91.0,25,F,down,0.6025378999765962,0.4196953039118409,,experiment,emotion,0.0,,,,934.9051739000716,66,25,female,True
286,87.0,25,F,up,0.7310085999779403,1.942775638381224,,experiment,emotion,0.0,,,,937.721735100029,66,25,female,True
287,80.0,25,M,up,0.4667904999805614,1.3846900787477403,,experiment,emotion,0.0,,,,940.1049941000527,66,25,female,True
288,91.0,25,M,up,0.8231739000184461,0.5296580177465996,,experiment,emotion,0.0,,,,941.3715927000158,66,25,female,True
289,91.0,25,F,up,0.748621299979277,1.4305356754170435,,experiment,emotion,0.0,,,,943.8881997000426,66,25,female,True
290,83.0,25,M,up,0.6946936999447644,1.761458223110356,,experiment,emotion,0.0,,,,946.6880775999743,66,25,female,True
291,80.0,25,F,down,0.6720756000140682,1.1354000647686235,,experiment,emotion,0.0,,,,948.8046601000242,66,25,female,True
292,83.0,25,F,down,0.4991869999794289,1.8533601046497563,,experiment,emotion,0.0,,,,951.6045655000488,66,25,female,True
293,87.0,25,F,down,0.4990428999299183,1.6436335867043157,,experiment,emotion,0.0,,,,954.03772760008,66,25,female,True
294,80.0,25,M,up,0.6040454999310896,0.3214279230661283,,experiment,emotion,0.0,,,,955.1377018999774,66,25,female,True
295,91.0,25,M,up,0.4857118000509217,0.5908307992006325,,experiment,emotion,0.0,,,,956.6210312000476,66,25,female,True
296,87.0,25,M,up,0.4914076999993995,0.4722874602749753,,experiment,emotion,0.0,,,,957.8543351000408,66,25,female,True
297,91.0,25,F,up,0.5341595999198034,0.669663499601749,,experiment,emotion,0.0,,,,959.287610600004,66,25,female,True
298,80.0,25,F,up,0.3668425000505522,0.5457070600213769,,experiment,emotion,0.0,,,,960.6375995000126,66,25,female,True
299,87.0,25,M,up,0.9899778999388218,1.9581893943984587,,experiment,emotion,0.0,,,,963.270792700001,66,25,female,True
300,83.0,25,F,up,0.7936792999971658,1.0135342019951423,,experiment,emotion,0.0,,,,965.5540561000817,66,25,female,True
301,83.0,25,M,down,0.93980300007388,1.1348947642483176,,experiment,emotion,0.0,,,,967.7539646000369,66,25,female,True
302,87.0,25,M,down,0.5978771999944001,1.730398760209411,,experiment,emotion,0.0,,,,970.7038582999958,66,25,female,True
303,91.0,25,M,up,0.9027557999361306,0.4405731051408941,,experiment,emotion,0.0,,,,972.036950699985,66,25,female,True
304,83.0,25,F,up,0.5806528000393882,0.9789952651633608,,experiment,emotion,0.0,,,,974.187081500073,66,25,female,True
305,80.0,25,F,up,0.5547812000149861,0.55842553257389,,experiment,emotion,0.0,,,,975.5870184000814,66,25,female,True
306,80.0,25,M,down,0.690467800013721,1.1502745571799535,,experiment,emotion,0.0,,,,977.5702926000812,66,25,female,True
307,83.0,25,F,up,0.8935771000105888,1.2914373474160548,,experiment,emotion,0.0,,,,979.820165900048,66,25,female,True
308,91.0,25,F,up,0.7190446000313386,1.454678056663046,,experiment,emotion,0.0,,,,982.4366686000722,66,25,female,True
309,87.0,25,M,down,0.6491422998951748,1.897625855423347,,experiment,emotion,0.0,,,,985.336595300003,66,25,female,True
310,80.0,25,M,up,0.6325178000843152,0.7594253468153708,,experiment,emotion,0.0,,,,987.00327310001,66,25,female,True
311,91.0,25,F,up,0.7413734000874683,0.9488313839798694,,experiment,emotion,0.0,,,,988.8363674000138,66,25,female,True
312,87.0,25,M,down,0.6846251001115888,1.7591786679516663,,experiment,emotion,0.0,,,,991.603108100011,66,25,female,True
313,87.0,25,F,up,0.7260508999461308,0.7183417451220399,,experiment,emotion,0.0,,,,993.2696860000724,66,25,female,True
314,80.0,25,F,down,0.6888120999792591,0.8305056058952986,,experiment,emotion,0.0,,,,995.1029604000504,66,25,female,True
315,83.0,25,F,up,0.4418427000055089,1.7281741506341974,,experiment,emotion,0.0,,,,997.80285810004,66,25,female,True
316,91.0,25,M,up,0.5246229000622407,1.4799548419938031,,experiment,emotion,0.0,,,,999.9861196000128,66,25,female,True
317,83.0,25,M,up,0.5430310999508947,0.4598328768739228,,experiment,emotion,0.0,,,,1001.2527369000018,66,25,female,True
318,83.0,25,F,up,0.6400811999337748,1.7311158774797033,,experiment,emotion,0.0,,,,1003.8026494000806,66,25,female,True
319,83.0,25,F,down,0.6891611000755802,1.1871640842747226,,experiment,emotion,0.0,,,,1005.9025713000448,66,25,female,True
320,91.0,25,M,down,0.5502663999795914,1.579935489690068,,experiment,emotion,0.0,,,,1008.4524653999832,66,25,female,True
321,87.0,25,M,up,0.5510052000172436,1.0061688809450733,,experiment,emotion,0.0,,,,1010.2857360000488,66,25,female,True
322,80.0,25,M,down,0.7357298999559134,1.0095132350034828,,experiment,emotion,0.0,,,,1012.1190021000804,66,25,female,True
323,80.0,25,M,down,0.4891535999486223,1.3612296259084926,,experiment,emotion,0.0,,,,1014.4855816999916,66,25,female,True
324,87.0,25,M,down,0.6235075000440702,0.6024094894799511,,experiment,emotion,0.0,,,,1015.8522128000624,66,25,female,True
325,91.0,25,F,down,0.6470746999839321,1.4325826173848668,,experiment,emotion,0.0,,,,1018.168777700048,66,25,female,True
326,91.0,25,F,down,0.475696999928914,0.5339077634626491,,experiment,emotion,0.0,,,,1019.6020665999968,66,25,female,True
327,80.0,25,M,down,0.4841178000206128,0.8657058611675474,,experiment,emotion,0.0,,,,1021.218648100039,66,25,female,True
328,91.0,25,F,up,0.7624259000876918,1.5026532660377951,,experiment,emotion,0.0,,,,1023.4852630000096,66,25,female,True
329,83.0,25,F,up,0.5351450999733061,0.5749884373700906,,experiment,emotion,0.0,,,,1025.1185107000638,66,25,female,True
330,87.0,25,F,up,0.6453020999906585,1.1959447128033776,,experiment,emotion,0.0,,,,1027.1184534999777,66,25,female,True
331,83.0,25,M,up,0.9749947000527754,0.4186684010745705,,experiment,emotion,0.0,,,,1028.4517370000249,66,25,female,True
332,80.0,25,F,down,0.6464776999782771,1.726653639754901,,experiment,emotion,0.0,,,,1031.4183051000582,66,25,female,True
333,87.0,25,F,down,0.5358687000116333,0.6582809921777373,,experiment,emotion,0.0,,,,1032.9849028000608,66,25,female,True
334,83.0,25,F,down,0.4001967000076547,0.8715260501876125,,experiment,emotion,0.0,,,,1034.6681627000216,66,25,female,True
335,87.0,25,M,down,0.6666330000152811,1.255752030058095,,experiment,emotion,0.0,,,,1036.6180862999754,66,25,female,True
336,80.0,25,M,down,0.7600285999942571,0.7425545902669886,,experiment,emotion,0.0,,,,1038.2847066000104,66,25,female,True
337,91.0,25,F,up,0.8562421000096947,0.9080323096552588,,experiment,emotion,0.0,,,,1040.234501900035,66,25,female,True
338,87.0,25,M,up,0.6837733999127522,0.3168660667704865,,experiment,emotion,0.0,,,,1041.6679577999748,66,25,female,True
339,91.0,25,F,up,0.7035331999650225,0.7242867540683156,,experiment,emotion,0.0,,,,1043.3511914000846,66,25,female,True
340,80.0,25,M,down,0.7336266000056639,1.5742440900510937,,experiment,emotion,0.0,,,,1045.9010996000145,66,25,female,True
341,83.0,25,M,down,0.4220779000315815,1.147613983256094,,experiment,emotion,0.0,,,,1048.0676738000475,66,25,female,True
342,0.0755096360820588,25,up,down,1.1364426999352872,1.0286050344030129,,experiment,cRDM,1.0,,,,1058.017306499998,66,25,female,True
343,0.0755096360820588,25,up,up,0.5881098998943344,0.7830617878880446,,experiment,cRDM,1.0,,,,1060.2005869999994,66,25,female,True
344,0.0755096360820588,25,down,down,0.527968000038527,0.4289137071876875,,experiment,cRDM,1.0,,,,1061.4838612000458,66,25,female,True
345,0.0755096360820588,25,down,down,0.853582700015977,0.882784231943929,,experiment,cRDM,1.0,,,,1063.167136300006,66,25,female,True
346,0.0755096360820588,25,up,up,0.592949099955149,0.957386012721182,,experiment,cRDM,1.0,,,,1065.2337234000445,66,25,female,True
347,0.0755096360820588,25,down,down,0.5541596000548452,1.9493360891919065,,experiment,cRDM,1.0,,,,1068.033574400004,66,25,female,True
348,0.0755096360820588,25,up,down,0.5118531999178231,1.71555192045478,,experiment,cRDM,1.0,,,,1070.5668860999867,66,25,female,True
349,0.0755096360820588,25,up,up,0.4570132000371814,1.6209267677336514,,experiment,cRDM,1.0,,,,1072.9667713000672,66,25,female,True
350,0.0755096360820588,25,down,down,0.6000396999297664,0.3803859624042571,,experiment,cRDM,1.0,,,,1074.0667171999812,66,25,female,True
351,0.0755096360820588,25,down,up,0.4857100999215618,0.9744216566382752,,experiment,cRDM,1.0,,,,1075.9000088999746,66,25,female,True
352,0.0755096360820588,25,down,up,0.9284515000181272,0.6733367819513342,,experiment,cRDM,1.0,,,,1077.3332315000007,66,25,female,True
353,0.0755096360820588,25,down,down,0.6761223999783397,0.5542662203855994,,experiment,cRDM,1.0,,,,1079.0665511999978,66,25,female,True
354,0.0755096360820588,25,down,up,1.102868999936618,0.644253166342313,,experiment,cRDM,1.0,,,,1080.649859099998,66,25,female,True
355,0.0755096360820588,25,down,down,0.5748509999830276,1.4148014239783877,,experiment,cRDM,1.0,,,,1083.4329324000282,66,25,female,True
356,0.0755096360820588,25,up,up,0.7221404999727383,0.9666470490756888,,experiment,cRDM,1.0,,,,1085.2496133000825,66,25,female,True
357,0.0755096360820588,25,up,up,0.6024854000424966,1.1264038179140072,,experiment,cRDM,1.0,,,,1087.36623220006,66,25,female,True
358,0.0755096360820588,25,up,up,0.9212416999507697,0.9640345166937454,,experiment,cRDM,1.0,,,,1089.1995095000602,66,25,female,True
359,0.0755096360820588,25,up,down,0.7656260000076145,1.2248938546075814,,experiment,cRDM,1.0,,,,1091.6160799000645,66,25,female,True
360,0.0755096360820588,25,down,up,0.3337649999884888,1.8012165640160724,,experiment,cRDM,1.0,,,,1094.432678100071,66,25,female,True
361,0.0755096360820588,25,up,up,0.4557572000194341,0.9012765750167362,,experiment,cRDM,1.0,,,,1096.015932700015,66,25,female,True
362,0.0755096360820588,25,up,up,0.6078605999937281,0.4722259823281365,,experiment,cRDM,1.0,,,,1097.215858999989,66,25,female,True
363,0.0755096360820588,25,down,down,0.7214349000714719,1.5470379085384676,,experiment,cRDM,1.0,,,,1099.6322832000442,66,25,female,True
364,0.0755096360820588,25,up,up,0.6086527000879869,1.5302777320536938,,experiment,cRDM,1.0,,,,1102.1490677000256,66,25,female,True
365,0.0755096360820588,25,down,down,0.7057146000443026,0.3809888640635974,,experiment,cRDM,1.0,,,,1103.3990076000337,66,25,female,True
366,0.0755096360820588,25,down,up,0.5161778000183403,1.462667900706686,,experiment,cRDM,1.0,,,,1105.8155428000027,66,25,female,True
367,0.0755096360820588,25,up,up,0.5335510999429971,0.6877333337253916,,experiment,cRDM,1.0,,,,1107.2821954999818,66,25,female,True
368,0.0755096360820588,25,up,up,0.6329979000147432,0.97779582432307,,experiment,cRDM,1.0,,,,1109.0487872000083,66,25,female,True
369,0.0755096360820588,25,down,up,0.6748292999109253,1.7064268564293126,,experiment,cRDM,1.0,,,,1111.6318934999872,66,25,female,True
370,0.0755096360820588,25,up,up,0.783510799985379,0.4443208227883698,,experiment,cRDM,1.0,,,,1113.0152806000551,66,25,female,True
371,0.0755096360820588,25,down,down,0.589477299945429,0.3212449902582609,,experiment,cRDM,1.0,,,,1114.3652455999982,66,25,female,True
372,0.0755096360820588,25,down,down,0.747158500016667,0.3301428633519706,,experiment,cRDM,1.0,,,,1115.5485576000065,66,25,female,True
373,0.0755096360820588,25,down,down,0.4840350999729708,1.073009015783752,,experiment,cRDM,1.0,,,,1117.6317331000464,66,25,female,True
374,0.0755096360820588,25,up,up,0.6242460999637842,0.880060614635592,,experiment,cRDM,1.0,,,,1119.248450400075,66,25,female,True
375,0.0755096360820588,25,up,up,0.7683749999850988,1.6195597663268697,,experiment,cRDM,1.0,,,,1121.748338000034,66,25,female,True
376,0.0755096360820588,25,up,up,0.6628364999778569,1.7982827093938114,,experiment,cRDM,1.0,,,,1124.5648998999968,66,25,female,True
377,0.0755096360820588,25,down,down,0.697392400004901,1.55370989446109,,experiment,cRDM,1.0,,,,1127.031350400066,66,25,female,True
378,0.0755096360820588,25,down,down,0.8084176999982446,1.9785055909975655,,experiment,cRDM,1.0,,,,1129.9812906000298,66,25,female,True
379,0.0755096360820588,25,up,down,1.023747899918817,1.8030334503700864,,experiment,cRDM,1.0,,,,1132.8479207999771,66,25,female,True
380,0.0755096360820588,25,down,down,0.7116515999659896,1.8419180514876832,,experiment,cRDM,1.0,,,,1135.9810998999749,66,25,female,True
381,0.0755096360820588,25,up,down,0.5594140000175685,1.7598792308726128,,experiment,cRDM,1.0,,,,1138.714342700085,66,25,female,True
382,0.0755096360820588,25,up,down,0.5051646999781951,1.3574550344821688,,experiment,cRDM,1.0,,,,1140.897605700069,66,25,female,True
383,0.0755096360820588,25,up,down,0.6798641999484971,1.2287869328424976,,experiment,cRDM,1.0,,,,1142.880852799979,66,25,female,True
384,0.0755096360820588,25,down,down,0.5902042000088841,0.6347249191778239,,experiment,cRDM,1.0,,,,1144.4475017000225,66,25,female,True
385,0.0755096360820588,25,down,down,1.8100591000402344,1.425404245532872,,experiment,cRDM,1.0,,,,1146.730651400052,66,25,female,True
386,0.0755096360820588,25,up,down,0.8584697999758646,1.493443667504864,,experiment,cRDM,1.0,,,,1150.2972621000372,66,25,female,True
387,0.0755096360820588,25,down,down,0.496855599922128,0.5992908390203966,,experiment,cRDM,1.0,,,,1152.0138472000835,66,25,female,True
388,0.0755096360820588,25,down,down,0.6002662999089807,1.6969695034431052,,experiment,cRDM,1.0,,,,1154.4804425999755,66,25,female,True
389,0.0755096360820588,25,up,down,0.5130078000947833,1.4248495434888384,,experiment,cRDM,1.0,,,,1156.7637000000104,66,25,female,True
390,0.0755096360820588,25,up,up,0.7657270999625325,0.4043211027144786,,experiment,cRDM,1.0,,,,1157.947015600046,66,25,female,True
391,0.0755096360820588,25,down,down,0.671567999990657,0.5554370417130221,,experiment,cRDM,1.0,,,,1159.530133399996,66,25,female,True
392,0.0755096360820588,25,up,up,0.8102373000001535,1.7870406384328223,,experiment,cRDM,1.0,,,,1162.263477700064,66,25,female,True
393,0.0755096360820588,25,down,down,0.5709002000512555,0.8110372128316423,,experiment,cRDM,1.0,,,,1164.146807000041,66,25,female,True
394,0.0755096360820588,25,down,down,0.7259314999682829,0.3731219834096591,,experiment,cRDM,1.0,,,,1165.3467386000557,66,25,female,True
395,0.0755096360820588,25,down,down,0.5814883999992162,1.828817778358098,,experiment,cRDM,1.0,,,,1168.163258500048,66,25,female,True
396,0.0755096360820588,25,up,down,0.4428286999464035,0.6203720813287885,,experiment,cRDM,1.0,,,,1169.6298703000648,66,25,female,True
397,0.0755096360820588,25,up,down,0.5778957000002265,0.9832506365755308,,experiment,cRDM,1.0,,,,1171.3298061999958,66,25,female,True
398,0.0755096360820588,25,down,down,0.4221670000115409,1.663166890897421,,experiment,cRDM,1.0,,,,1173.8295434999743,66,25,female,True
399,0.0755096360820588,25,down,down,0.6304832000751048,0.6702793313381761,,experiment,cRDM,1.0,,,,1175.1963543000163,66,25,female,True
400,0.0755096360820588,25,up,down,0.7497921000467613,1.5268741595500643,,experiment,cRDM,1.0,,,,1177.612913900055,66,25,female,True
401,0.0755096360820588,25,up,down,0.6553810000186786,1.315697324084254,,experiment,cRDM,1.0,,,,1179.929326000041,66,25,female,True
402,0.0755096360820588,25,up,up,0.9529632000485436,1.1136003995357455,,experiment,cRDM,1.0,,,,1181.9627494000597,66,25,female,True
403,0.0755096360820588,25,up,up,0.7320818000007421,1.729768566010231,,experiment,cRDM,1.0,,,,1184.9126423000123,66,25,female,True
404,0.0755096360820588,25,up,down,0.6808442000765353,0.9377492540668382,,experiment,cRDM,1.0,,,,1186.8459375000093,66,25,female,True
405,0.0755096360820588,25,down,down,0.8676685000536963,0.8429186221863578,,experiment,cRDM,1.0,,,,1188.62903750001,66,25,female,True
406,0.0755096360820588,25,down,up,1.0002728999825194,1.303544593438287,,experiment,cRDM,1.0,,,,1191.0624333000742,66,25,female,True
407,0.0755096360820588,25,up,up,0.6707276999950409,1.7623117730487448,,experiment,cRDM,1.0,,,,1194.0789793999866,66,25,female,True
408,0.0755096360820588,25,down,up,1.0064613999566063,1.4504662637281749,,experiment,cRDM,1.0,,,,1196.4622055999937,66,25,female,True
409,0.0755096360820588,25,down,down,0.5529492000350729,1.241593218904825,,experiment,cRDM,1.0,,,,1198.978796200012,66,25,female,True
410,0.0755096360820588,25,down,down,0.5203211000189185,1.6509220753450442,,experiment,cRDM,1.0,,,,1201.4453820000635,66,25,female,True
411,0.0755096360820588,25,up,down,0.6360541000030935,0.9423919323568716,,experiment,cRDM,1.0,,,,1203.178650100017,66,25,female,True
412,0.0755096360820588,25,down,down,0.6877725999802351,1.2819524596765195,,experiment,cRDM,1.0,,,,1205.3619181000397,66,25,female,True
413,0.0755096360820588,25,down,down,0.8048428000183776,0.3422810717307413,,experiment,cRDM,1.0,,,,1206.6618560000788,66,25,female,True
414,0.0755096360820588,25,down,down,0.622626299969852,1.8151996059919264,,experiment,cRDM,1.0,,,,1209.5450777000517,66,25,female,True
415,0.0755096360820588,25,up,down,0.41937609994784,1.402502276876582,,experiment,cRDM,1.0,,,,1211.8283531999914,66,25,female,True
416,0.0755096360820588,25,up,down,0.5211023000301793,0.9018246498209,,experiment,cRDM,1.0,,,,1213.411627700087,66,25,female,True
417,0.0755096360820588,25,down,down,0.6738180000102147,0.4089348446236003,,experiment,cRDM,1.0,,,,1214.5948837000178,66,25,female,True
418,0.0755096360820588,25,up,down,0.6315557999769226,1.755147149205274,,experiment,cRDM,1.0,,,,1217.278119900031,66,25,female,True
419,0.0755096360820588,25,down,up,0.8069771999726072,0.8135947069073879,,experiment,cRDM,1.0,,,,1218.9947215000866,66,25,female,True
420,0.0755096360820588,25,up,down,0.6717443000525236,1.6170222913503012,,experiment,cRDM,1.0,,,,1221.6779617000138,66,25,female,True
421,0.0755096360820588,25,up,up,0.7027884999988601,0.4596413846212165,,experiment,cRDM,1.0,,,,1223.0779127000133,66,25,female,True
422,91.0,25,M,down,0.8944326000055298,0.3849395119018731,,experiment,emotion,1.0,,,,1257.7932984000072,66,25,female,True
423,80.0,25,M,down,0.5472448000218719,0.8674509135383413,,experiment,emotion,1.0,,,,1259.826422000071,66,25,female,True
424,87.0,25,F,down,0.5179234000388533,1.1521704008054108,,experiment,emotion,1.0,,,,1261.8097994000418,66,25,female,True
425,91.0,25,F,down,0.6482798999641091,1.921045209271996,,experiment,emotion,1.0,,,,1264.5264129000716,66,25,female,True
426,87.0,25,M,down,0.7871437000576407,1.979022006911856,,experiment,emotion,1.0,,,,1267.4095723000355,66,25,female,True
427,83.0,25,F,down,1.1036684999708086,1.2322083136464366,,experiment,emotion,1.0,,,,1269.726026999997,66,25,female,True
428,80.0,25,M,down,0.9898805000120774,0.5451953441258381,,experiment,emotion,1.0,,,,1271.6428133000154,66,25,female,True
429,83.0,25,M,down,0.8239829000085592,1.2323182284002598,,experiment,emotion,1.0,,,,1274.142710700049,66,25,female,True
430,91.0,25,F,down,0.7784369000000879,0.7164070259534474,,experiment,emotion,1.0,,,,1275.959282899974,66,25,female,True
431,83.0,25,F,down,0.5965119999600574,1.2659959157674496,,experiment,emotion,1.0,,,,1278.2592024999904,66,25,female,True
432,87.0,25,F,down,0.7688476999755949,0.3305382315240189,,experiment,emotion,1.0,,,,1279.4758481000315,66,25,female,True
433,91.0,25,F,up,1.0797448999946937,0.9872035575850008,,experiment,emotion,1.0,,,,1281.508952400065,66,25,female,True
434,87.0,25,F,up,0.6388329999754205,1.644695987186431,,experiment,emotion,1.0,,,,1284.5088929000776,66,25,female,True
435,80.0,25,F,down,1.0351566999452189,1.992688062231575,,experiment,emotion,1.0,,,,1287.4255425999872,66,25,female,True
436,83.0,25,M,down,1.2099137998884544,1.6194295532719272,,experiment,emotion,1.0,,,,1290.3588243999984,66,25,female,True
437,80.0,25,M,down,0.5466235000640154,1.1613050837048302,,experiment,emotion,1.0,,,,1292.9920267000562,66,25,female,True
438,91.0,25,M,up,0.5780940999975428,1.7850593408412534,,experiment,emotion,1.0,,,,1295.608591300086,66,25,female,True
439,80.0,25,M,down,0.9095798999769612,1.919318052049767,,experiment,emotion,1.0,,,,1298.3751331000822,66,25,female,True
440,87.0,25,F,up,0.8499385999748483,1.4911937919885874,,experiment,emotion,1.0,,,,1301.0417454000562,66,25,female,True
441,87.0,25,M,down,1.1128716999664905,1.8713414844794511,,experiment,emotion,1.0,,,,1304.0248189000413,66,25,female,True
442,83.0,25,M,up,0.9759080000221728,1.4071093000424573,,experiment,emotion,1.0,,,,1306.8247885999735,66,25,female,True
443,83.0,25,F,up,0.7822539999615401,0.6127460746984682,,experiment,emotion,1.0,,,,1308.691428399994,66,25,female,True
444,80.0,25,M,down,0.9679975000908598,1.4242375436834094,,experiment,emotion,1.0,,,,1311.174689300009,66,25,female,True
445,91.0,25,F,down,0.9164217000361532,0.97090094579966,,experiment,emotion,1.0,,,,1313.391283600009,66,25,female,True
446,87.0,25,F,up,0.8717961000511423,1.4864882201178289,,experiment,emotion,1.0,,,,1316.0578607000643,66,25,female,True
447,80.0,25,M,down,0.8616088000126183,1.0418290250182365,,experiment,emotion,1.0,,,,1318.241090000025,66,25,female,True
448,91.0,25,M,up,1.021045699948445,1.5801730926557362,,experiment,emotion,1.0,,,,1320.9576315000886,66,25,female,True
449,91.0,25,F,up,0.7786400000331923,0.371941775712421,,experiment,emotion,1.0,,,,1322.6240543000167,66,25,female,True
450,83.0,25,M,up,1.018897399888374,1.7731190585506986,,experiment,emotion,1.0,,,,1325.4408484000014,66,25,female,True
451,80.0,25,F,down,0.9122756000142545,1.5196556556175171,,experiment,emotion,1.0,,,,1328.2574052000418,66,25,female,True
452,83.0,25,F,down,0.8123751999810338,0.6321980919987409,,experiment,emotion,1.0,,,,1330.0573111000704,66,25,female,True
453,87.0,25,F,down,0.6461309000151232,1.5776929589443554,,experiment,emotion,1.0,,,,1332.7405466000782,66,25,female,True
454,80.0,25,M,down,0.7252239999361336,1.1990824827804236,,experiment,emotion,1.0,,,,1334.840462399996,66,25,female,True
455,91.0,25,M,down,1.381620300002396,0.997703814688685,,experiment,emotion,1.0,,,,1336.8570737000557,66,25,female,True
456,87.0,25,M,down,1.2307163999648765,1.3483516261089308,,experiment,emotion,1.0,,,,1339.856967100059,66,25,female,True
457,91.0,25,F,up,0.8658771999180317,0.7964974285378963,,experiment,emotion,1.0,,,,1342.1568616000004,66,25,female,True
458,80.0,25,F,down,1.0119077999843284,1.173543208547448,,experiment,emotion,1.0,,,,1344.4567767999831,66,25,female,True
459,87.0,25,M,up,0.9285911999177188,1.3359603713452997,,experiment,emotion,1.0,,,,1347.073351699975,66,25,female,True
460,83.0,25,F,up,0.794726499938406,0.4599360902492834,,experiment,emotion,1.0,,,,1348.7399522999767,66,25,female,True
461,83.0,25,M,up,0.8948111000936478,0.5754854030184373,,experiment,emotion,1.0,,,,1350.389876500005,66,25,female,True
462,87.0,25,M,up,1.085547500057146,1.709115041602528,,experiment,emotion,1.0,,,,1353.2731335000135,66,25,female,True
463,91.0,25,M,up,0.7249658000655472,0.3434560642334197,,experiment,emotion,1.0,,,,1354.9897151000332,66,25,female,True
464,83.0,25,F,up,0.6545180999673903,1.2223729291960728,,experiment,emotion,1.0,,,,1357.206209899974,66,25,female,True
465,80.0,25,F,down,0.9154757999349384,1.022397957366465,,experiment,emotion,1.0,,,,1359.1562291000737,66,25,female,True
466,80.0,25,M,down,0.7265513999154791,1.507847864628481,,experiment,emotion,1.0,,,,1361.8561319999862,66,25,female,True
467,83.0,25,F,down,0.9973185999551788,0.344328756243216,,experiment,emotion,1.0,,,,1363.1894093999872,66,25,female,True
468,91.0,25,F,up,0.8507143999449909,1.3719866051831835,,experiment,emotion,1.0,,,,1365.8559890000615,66,25,female,True
469,87.0,25,M,down,0.7681327000027522,1.2416243300226144,,experiment,emotion,1.0,,,,1368.222546700039,66,25,female,True
470,80.0,25,M,down,0.696853099972941,1.8954715258756252,,experiment,emotion,1.0,,,,1371.1558001000667,66,25,female,True
471,91.0,25,F,up,0.9802824000362308,0.6961100331942484,,experiment,emotion,1.0,,,,1372.822398200049,66,25,female,True
472,87.0,25,M,down,1.0643460999708625,1.3056118983792089,,experiment,emotion,1.0,,,,1375.3723348000783,66,25,female,True
473,87.0,25,F,up,1.009803400025703,1.570241498486069,,experiment,emotion,1.0,,,,1378.2888704000509,66,25,female,True
474,80.0,25,F,up,0.4398858000058681,1.372598482384264,,experiment,emotion,1.0,,,,1380.938796399976,66,25,female,True
475,83.0,25,F,up,0.6224024000111967,1.7948452752048596,,experiment,emotion,1.0,,,,1383.455345000024,66,25,female,True
476,91.0,25,M,down,0.6570355999283493,1.192608564845611,,experiment,emotion,1.0,,,,1385.5386300000828,66,25,female,True
477,83.0,25,M,up,0.605180700076744,0.5617269923044192,,experiment,emotion,1.0,,,,1387.0385473000351,66,25,female,True
478,83.0,25,F,down,0.9098425999982284,0.6551014686313882,,experiment,emotion,1.0,,,,1388.5718473000452,66,25,female,True
479,83.0,25,F,up,0.9002916000317782,0.5371852625514362,,experiment,emotion,1.0,,,,1390.2884097000351,66,25,female,True
480,91.0,25,M,up,0.6043012000154704,0.4388560674745564,,experiment,emotion,1.0,,,,1391.8883702000603,66,25,female,True
481,87.0,25,M,up,0.7170152999460697,1.0975486049756968,,experiment,emotion,1.0,,,,1393.8716510999948,66,25,female,True
482,80.0,25,M,down,0.7598379000555724,1.32375396386102,,experiment,emotion,1.0,,,,1396.2048578000397,66,25,female,True
483,80.0,25,M,up,0.4815821000374853,1.8456174757201824,,experiment,emotion,1.0,,,,1399.088097000029,66,25,female,True
484,87.0,25,M,up,0.5034420000156388,1.9867171250901623,,experiment,emotion,1.0,,,,1401.8212337000296,66,25,female,True
485,91.0,25,F,down,1.0256944000720978,0.3320138642802454,,experiment,emotion,1.0,,,,1402.9379773000255,66,25,female,True
486,91.0,25,F,up,0.867487300070934,1.7839351171227709,,experiment,emotion,1.0,,,,1406.0211921000157,66,25,female,True
487,80.0,25,M,up,0.9508833000436424,0.5134199446991577,,experiment,emotion,1.0,,,,1407.6877913000062,66,25,female,True
488,91.0,25,F,down,1.069361799978651,0.3943018858588697,,experiment,emotion,1.0,,,,1409.3043757000703,66,25,female,True
489,83.0,25,F,up,0.4570673999842256,1.2196192695191863,,experiment,emotion,1.0,,,,1411.887632100028,66,25,female,True
490,87.0,25,F,up,0.8598857000470161,0.6909270086266383,,experiment,emotion,1.0,,,,1413.3207877000095,66,25,female,True
491,83.0,25,M,up,1.0291930000530556,1.5303801857741182,,experiment,emotion,1.0,,,,1415.98747990001,66,25,female,True
492,80.0,25,F,down,1.127250300021842,0.3049689515735226,,experiment,emotion,1.0,,,,1417.587423000019,66,25,female,True
493,87.0,25,F,up,0.5777501000557095,1.0273345706576416,,experiment,emotion,1.0,,,,1420.004007200012,66,25,female,True
494,83.0,25,F,up,0.541741400025785,0.5964296947886956,,experiment,emotion,1.0,,,,1421.453937400016,66,25,female,True
495,87.0,25,M,down,0.6237899999832734,0.342090386421519,,experiment,emotion,1.0,,,,1422.603876600042,66,25,female,True
496,80.0,25,M,up,0.6255528000183403,1.4790525333137683,,experiment,emotion,1.0,,,,1424.9871518000728,66,25,female,True
497,91.0,25,F,up,0.9219697000226006,0.569793086982332,,experiment,emotion,1.0,,,,1426.4537540000165,66,25,female,True
498,87.0,25,M,down,0.9206354999914764,0.8982408339585692,,experiment,emotion,1.0,,,,1428.5370415999787,66,25,female,True
499,91.0,25,F,up,0.8037773999385536,1.9581755500910012,,experiment,emotion,1.0,,,,1431.6868992000818,66,25,female,True
500,80.0,25,M,down,1.0988948000594974,1.960664989929366,,experiment,emotion,1.0,,,,1434.7368134000571,66,25,female,True
501,83.0,25,M,down,0.8270032000727952,1.6120495369161638,,experiment,emotion,1.0,,,,1437.736673300038,66,25,female,True
502,0.0755096360820588,25,up,down,0.8897483999608085,0.7900540513343963,,experiment,cRDM,2.0,,,,1456.9859469999792,66,25,female,True
503,0.0755096360820588,25,up,down,0.6290863000322133,0.5049607158309617,,experiment,cRDM,2.0,,,,1458.6525817000074,66,25,female,True
504,0.0755096360820588,25,down,down,0.6488455000799149,1.0769435722535372,,experiment,cRDM,2.0,,,,1460.635842800024,66,25,female,True
505,0.0755096360820588,25,down,up,0.815466900006868,1.7490746163552415,,experiment,cRDM,2.0,,,,1463.3022469000423,66,25,female,True
506,0.0755096360820588,25,up,up,0.6786517999134958,1.944431464804652,,experiment,cRDM,2.0,,,,1466.3190120999934,66,25,female,True
507,0.0755096360820588,25,down,down,0.7787190000526607,0.3460169905963612,,experiment,cRDM,2.0,,,,1467.618952000048,66,25,female,True
508,0.0755096360820588,25,up,up,0.8731935999821872,1.7346020792284678,,experiment,cRDM,2.0,,,,1470.3854695999762,66,25,female,True
509,0.0755096360820588,25,up,down,0.9653130000224336,1.465735806814611,,experiment,cRDM,2.0,,,,1472.9853757000528,66,25,female,True
510,0.0755096360820588,25,down,down,0.7229880000231788,0.527533302104358,,experiment,cRDM,2.0,,,,1474.7186743000057,66,25,female,True
511,0.0755096360820588,25,down,up,0.8762118999147788,1.6151173208552605,,experiment,cRDM,2.0,,,,1477.318597399979,66,25,female,True
512,0.0755096360820588,25,down,down,0.8975906999548897,1.040041299109429,,experiment,cRDM,2.0,,,,1479.5020753000863,66,25,female,True
513,0.0755096360820588,25,down,down,0.8905696999281645,0.3166270213298668,,experiment,cRDM,2.0,,,,1480.9850936000005,66,25,female,True
514,0.0755096360820588,25,down,down,0.5317400000058115,1.996127321374716,,experiment,cRDM,2.0,,,,1484.1349657999815,66,25,female,True
515,0.0755096360820588,25,down,down,0.6734435999533162,1.4340332589325897,,experiment,cRDM,2.0,,,,1486.3682548999786,66,25,female,True
516,0.0755096360820588,25,up,down,0.8319134999765083,1.6441761259414795,,experiment,cRDM,2.0,,,,1488.9348051000852,66,25,female,True
517,0.0755096360820588,25,up,down,1.1099148000357673,0.7516694601536188,,experiment,cRDM,2.0,,,,1490.7847251000348,66,25,female,True
518,0.0755096360820588,25,up,up,0.6713230999885127,0.4938319252913346,,experiment,cRDM,2.0,,,,1492.6513336000498,66,25,female,True
519,0.0755096360820588,25,up,down,0.7957210000604391,1.287487439118672,,experiment,cRDM,2.0,,,,1494.8679098000284,66,25,female,True
520,0.0755096360820588,25,down,down,0.865222999942489,1.4005130555919334,,experiment,cRDM,2.0,,,,1497.3344929000596,66,25,female,True
521,0.0755096360820588,25,up,up,0.481957400101237,0.4961329527853229,,experiment,cRDM,2.0,,,,1498.967756500002,66,25,female,True
522,0.0755096360820588,25,up,up,0.6019816999323666,1.849730911505076,,experiment,cRDM,2.0,,,,1501.567668600008,66,25,female,True
523,0.0755096360820588,25,down,down,0.8477587000234053,1.8804744491783376,,experiment,cRDM,2.0,,,,1504.3008997000288,66,25,female,True
524,0.0755096360820588,25,up,up,0.780175399966538,1.1454544646248666,,experiment,cRDM,2.0,,,,1506.5674829999916,66,25,female,True
525,0.0755096360820588,25,down,down,0.7640000999672338,1.3551690511835088,,experiment,cRDM,2.0,,,,1508.950717000058,66,25,female,True
526,0.0755096360820588,25,down,up,0.6520741999847814,1.5784860953290776,,experiment,cRDM,2.0,,,,1511.550635599997,66,25,female,True
527,0.0755096360820588,25,up,down,0.6647779999766499,0.4141889116551346,,experiment,cRDM,2.0,,,,1512.8839177000336,66,25,female,True
528,0.0755096360820588,25,up,up,0.632481100037694,1.962390819366573,,experiment,cRDM,2.0,,,,1515.767156900023,66,25,female,True
529,0.0755096360820588,25,down,down,1.0697238000575453,0.8489663734877944,,experiment,cRDM,2.0,,,,1517.5169770000502,66,25,female,True
530,0.0755096360820588,25,up,up,0.5996632999740541,0.8042184922468387,,experiment,cRDM,2.0,,,,1519.6669980000006,66,25,female,True
531,0.0755096360820588,25,down,up,0.6270444000838324,0.7134666218362966,,experiment,cRDM,2.0,,,,1521.233643000014,66,25,female,True
532,0.0755096360820588,25,down,down,0.7824768000282347,1.825683697866418,,experiment,cRDM,2.0,,,,1523.9501791000366,66,25,female,True
533,0.0755096360820588,25,down,up,0.7139369999058545,0.58088823482405,,experiment,cRDM,2.0,,,,1525.5667805999983,66,25,female,True
534,0.0755096360820588,25,up,up,0.8902436000062153,0.6867948813793924,,experiment,cRDM,2.0,,,,1527.2333696000278,66,25,female,True
535,0.0755096360820588,25,up,down,0.6841183999786153,1.0239376542514615,,experiment,cRDM,2.0,,,,1529.416545700049,66,25,female,True
536,0.0755096360820588,25,up,up,0.6517900000326335,0.9957284107952477,,experiment,cRDM,2.0,,,,1531.3498964000028,66,25,female,True
537,0.0755096360820588,25,down,down,0.7209764000726864,1.744741344644785,,experiment,cRDM,2.0,,,,1533.9996794000035,66,25,female,True
538,0.0755096360820588,25,down,down,0.6572084999643266,0.6282696596711344,,experiment,cRDM,2.0,,,,1535.6164450000506,66,25,female,True
539,0.0755096360820588,25,up,up,0.3004640999715775,1.448668178506486,,experiment,cRDM,2.0,,,,1537.9996585000772,66,25,female,True
540,0.0755096360820588,25,down,down,0.8890724000521004,1.161312308717699,,experiment,cRDM,2.0,,,,1539.8495794000337,66,25,female,True
541,0.0755096360820588,25,up,up,0.7317530000582337,0.9377900025398582,,experiment,cRDM,2.0,,,,1541.9328746000538,66,25,female,True
542,0.0755096360820588,25,up,down,0.9948669000295922,0.5507183041177169,,experiment,cRDM,2.0,,,,1543.4827860000078,66,25,female,True
543,0.0755096360820588,25,up,down,0.5858897001016885,1.287524510433212,,experiment,cRDM,2.0,,,,1546.0327190000098,66,25,female,True
544,0.0755096360820588,25,down,down,0.7410203999606892,0.6964541998802877,,experiment,cRDM,2.0,,,,1547.5826123000588,66,25,female,True
545,0.0755096360820588,25,down,down,0.8014132999815047,1.3565053045785551,,experiment,cRDM,2.0,,,,1549.9492363000754,66,25,female,True
546,0.0755096360820588,25,up,down,0.6472068999428302,1.7696175203165427,,experiment,cRDM,2.0,,,,1552.7824379000813,66,25,female,True
547,0.0755096360820588,25,down,down,0.93430319998879,1.5345966120894792,,experiment,cRDM,2.0,,,,1555.2323613000335,66,25,female,True
548,0.0755096360820588,25,down,down,0.7474340000189841,1.9525899441015573,,experiment,cRDM,2.0,,,,1558.3822102000704,66,25,female,True
549,0.0755096360820588,25,up,down,1.1291057000635192,0.3301544602352987,,experiment,cRDM,2.0,,,,1559.7155412000138,66,25,female,True
550,0.0755096360820588,25,up,up,0.847553199972026,0.7258292797342603,,experiment,cRDM,2.0,,,,1561.8321348000318,66,25,female,True
551,0.0755096360820588,25,down,down,0.8699697999982163,1.9020913209367063,,experiment,cRDM,2.0,,,,1564.848680700059,66,25,female,True
552,0.0755096360820588,25,up,down,0.4910995999816805,1.7713786622523566,,experiment,cRDM,2.0,,,,1567.7485550000565,66,25,female,True
553,0.0755096360820588,25,down,down,0.6608179000904784,1.3351879533982922,,experiment,cRDM,2.0,,,,1569.8318273000186,66,25,female,True
554,0.0755096360820588,25,down,down,0.9319061000132932,0.8737571300800644,,experiment,cRDM,2.0,,,,1571.631767700077,66,25,female,True
555,0.0755096360820588,25,down,down,1.019988700048998,0.6043919754967595,,experiment,cRDM,2.0,,,,1573.4316786000272,66,25,female,True
556,0.0755096360820588,25,up,down,0.5806912999833003,0.8886759179101922,,experiment,cRDM,2.0,,,,1575.6149813000811,66,25,female,True
557,0.0755096360820588,25,up,up,0.6177963999798521,1.460324513550796,,experiment,cRDM,2.0,,,,1577.9148988000816,66,25,female,True
558,0.0755096360820588,25,down,down,0.6258980999700725,1.03367393382524,,experiment,cRDM,2.0,,,,1579.814821599983,66,25,female,True
559,0.0755096360820588,25,down,down,1.0802891000639647,1.3623228817309008,,experiment,cRDM,2.0,,,,1582.0813573000487,66,25,female,True
560,0.0755096360820588,25,up,down,0.9737206998979672,1.2260707795949457,,experiment,cRDM,2.0,,,,1584.6479319999926,66,25,female,True
561,0.0755096360820588,25,up,down,0.886506500071846,1.00084568039638,,experiment,cRDM,2.0,,,,1586.8811802000273,66,25,female,True
562,0.0755096360820588,25,up,up,0.9798896999564022,1.4169956035138338,,experiment,cRDM,2.0,,,,1589.4477533000754,66,25,female,True
563,0.0755096360820588,25,up,up,0.9856831999495624,1.0320445902493425,,experiment,cRDM,2.0,,,,1591.7309655999998,66,25,female,True
564,0.0755096360820588,25,up,down,0.8063760000513867,1.5365438017369164,,experiment,cRDM,2.0,,,,1594.514266400016,66,25,female,True
565,0.0755096360820588,25,down,up,0.8834692999953404,1.4207185017247264,,experiment,cRDM,2.0,,,,1596.997205600026,66,25,female,True
566,0.0755096360820588,25,down,down,0.848325900034979,1.5501894047281313,,experiment,cRDM,2.0,,,,1599.6973059000447,66,25,female,True
567,0.0755096360820588,25,up,up,0.9144579999847338,0.5879352510847373,,experiment,cRDM,2.0,,,,1601.3971902000485,66,25,female,True
568,0.0755096360820588,25,down,down,0.8620829000137746,0.3615063973957834,,experiment,cRDM,2.0,,,,1602.9305954000447,66,25,female,True
569,0.0755096360820588,25,down,down,0.7398115999531001,1.7444314293883942,,experiment,cRDM,2.0,,,,1605.8138569000876,66,25,female,True
570,0.0755096360820588,25,down,down,0.9218593999976292,0.5536404605856811,,experiment,cRDM,2.0,,,,1607.3637686000438,66,25,female,True
571,0.0755096360820588,25,up,down,0.5379628000082448,0.810041812304851,,experiment,cRDM,2.0,,,,1609.363679500064,66,25,female,True
572,0.0755096360820588,25,down,down,0.9769732999848202,0.6983341388225723,,experiment,cRDM,2.0,,,,1610.8636461000424,66,25,female,True
573,0.0755096360820588,25,down,down,0.7418934999732301,0.6026073781053068,,experiment,cRDM,2.0,,,,1612.696771100047,66,25,female,True
574,0.0755096360820588,25,down,down,0.555532000027597,1.0786878426957704,,experiment,cRDM,2.0,,,,1614.780169500038,66,25,female,True
575,0.0755096360820588,25,up,up,0.6949052000418305,1.5057107358184845,,experiment,cRDM,2.0,,,,1617.0967353000306,66,25,female,True
576,0.0755096360820588,25,up,up,0.5296199000440538,1.170281143184241,,experiment,cRDM,2.0,,,,1619.2300265000667,66,25,female,True
577,0.0755096360820588,25,down,down,0.7080675999168307,1.4800185146926927,,experiment,cRDM,2.0,,,,1621.4965719999743,66,25,female,True
578,0.0755096360820588,25,up,down,0.6965234999079257,1.8462864305445843,,experiment,cRDM,2.0,,,,1624.3131401999854,66,25,female,True
579,0.0755096360820588,25,down,down,0.7552689999574795,1.7339827124106766,,experiment,cRDM,2.0,,,,1626.996376199997,66,25,female,True
580,0.0755096360820588,25,up,up,0.7585911999922246,0.54929568095098,,experiment,cRDM,2.0,,,,1628.5630152000813,66,25,female,True
581,0.0755096360820588,25,up,down,0.8383852000115439,0.9062967397257706,,experiment,cRDM,2.0,,,,1630.4962516999803,66,25,female,True
582,91.0,25,M,down,0.7719864000100642,0.9847339423771486,,experiment,emotion,2.0,,,,1664.7616512000095,66,25,female,True
583,80.0,25,M,down,0.444801399949938,1.5328927157438483,,experiment,emotion,2.0,,,,1667.3448897000635,66,25,female,True
584,87.0,25,F,down,0.5251980000175536,1.692867648380439,,experiment,emotion,2.0,,,,1669.761470700032,66,25,female,True
585,91.0,25,F,down,0.6001964999595657,1.067423708459334,,experiment,emotion,2.0,,,,1671.611420699977,66,25,female,True
586,87.0,25,M,up,0.7240609999280423,1.609388673933897,,experiment,emotion,2.0,,,,1674.0945290999953,66,25,female,True
587,83.0,25,F,up,0.6893360000103712,0.6135407969615514,,experiment,emotion,2.0,,,,1675.711297400063,66,25,female,True
588,80.0,25,M,down,0.969421699992381,1.3840461610501522,,experiment,emotion,2.0,,,,1678.0611763000488,66,25,female,True
589,83.0,25,M,down,0.8105197999393567,0.9188331980879336,,experiment,emotion,2.0,,,,1680.2111038999865,66,25,female,True
590,91.0,25,F,down,0.7086714000906795,1.9776574635785344,,experiment,emotion,2.0,,,,1683.2609806000255,66,25,female,True
591,83.0,25,F,up,0.7445369999622926,0.4594831590681399,,experiment,emotion,2.0,,,,1684.6940897000022,66,25,female,True
592,87.0,25,F,up,0.5931320000672713,0.3183362295066586,,experiment,emotion,2.0,,,,1686.027556200046,66,25,female,True
593,91.0,25,F,down,0.7221857999684289,1.933301869750429,,experiment,emotion,2.0,,,,1688.8274451000616,66,25,female,True
594,87.0,25,F,up,0.7522646998986602,1.6063159110067848,,experiment,emotion,2.0,,,,1691.4273489000043,66,25,female,True
595,80.0,25,F,down,0.938931299955584,1.029041866458023,,experiment,emotion,2.0,,,,1693.4937856000615,66,25,female,True
596,83.0,25,M,down,0.8348107000347227,1.5414361503270455,,experiment,emotion,2.0,,,,1696.2438257000176,66,25,female,True
597,80.0,25,M,down,0.9771971000591292,0.6061337571994487,,experiment,emotion,2.0,,,,1697.96043430001,66,25,female,True
598,91.0,25,M,up,0.920321899931878,1.9413833712185944,,experiment,emotion,2.0,,,,1701.160298599978,66,25,female,True
599,80.0,25,M,down,0.7818006000015885,1.62252209588727,,experiment,emotion,2.0,,,,1703.976852199994,66,25,female,True
600,87.0,25,F,down,0.6694878999842331,1.9802953001068144,,experiment,emotion,2.0,,,,1707.0101201999933,66,25,female,True
601,87.0,25,M,down,0.6725920999888331,1.8144440048167607,,experiment,emotion,2.0,,,,1709.7599922000663,66,25,female,True
602,83.0,25,M,down,0.7531054000137374,1.9506167686061773,,experiment,emotion,2.0,,,,1712.6765175000764,66,25,female,True
603,83.0,25,F,up,0.7968495000386611,1.674352171572789,,experiment,emotion,2.0,,,,1715.359777500038,66,25,female,True
604,80.0,25,M,up,0.6742849999573082,0.7718696743591473,,experiment,emotion,2.0,,,,1717.2097297,66,25,female,True
605,91.0,25,F,up,0.644359500030987,1.7088387634635764,,experiment,emotion,2.0,,,,1719.8762631000718,66,25,female,True
606,87.0,25,F,down,0.9240032000234352,0.9618713999226156,,experiment,emotion,2.0,,,,1721.7596150999889,66,25,female,True
607,80.0,25,M,down,0.6231443999568,0.6949712624168762,,experiment,emotion,2.0,,,,1723.6594902999932,66,25,female,True
608,91.0,25,M,down,0.5779011000413448,0.6728306067137351,,experiment,emotion,2.0,,,,1725.242774000042,66,25,female,True
609,91.0,25,F,down,0.7485854999395087,1.035202607018898,,experiment,emotion,2.0,,,,1727.1260192000773,66,25,female,True
610,83.0,25,M,down,0.5936640000436455,0.4864908824266303,,experiment,emotion,2.0,,,,1728.625971500063,66,25,female,True
611,80.0,25,F,up,0.6343881000066176,0.5694711467387296,,experiment,emotion,2.0,,,,1730.0592504000524,66,25,female,True
612,83.0,25,F,down,0.5684340000152588,0.4940204979220036,,experiment,emotion,2.0,,,,1731.459192899987,66,25,female,True
613,87.0,25,F,up,0.7235316999722272,1.2597928941695478,,experiment,emotion,2.0,,,,1733.5591305000708,66,25,female,True
614,80.0,25,M,down,0.8618734999326989,0.478852598844127,,experiment,emotion,2.0,,,,1735.0257271000885,66,25,female,True
615,91.0,25,M,up,0.7819959999760613,1.5676574425619632,,experiment,emotion,2.0,,,,1737.725625500083,66,25,female,True
616,87.0,25,M,up,0.7950875000096858,0.8003832106776814,,experiment,emotion,2.0,,,,1739.5755622000434,66,25,female,True
617,91.0,25,F,up,0.8061727000167593,0.583049542564231,,experiment,emotion,2.0,,,,1741.2255132000428,66,25,female,True
618,80.0,25,F,down,0.595227999961935,1.2703015296744395,,experiment,emotion,2.0,,,,1743.5754200000083,66,25,female,True
619,87.0,25,M,down,0.7479193999897689,1.223742269242619,,experiment,emotion,2.0,,,,1745.658686500043,66,25,female,True
620,83.0,25,F,down,0.5280506999697536,1.427055135071912,,experiment,emotion,2.0,,,,1748.1085796999978,66,25,female,True
621,83.0,25,M,up,0.7451462999451905,1.99638506474654,,experiment,emotion,2.0,,,,1750.9084780000849,66,25,female,True
622,87.0,25,M,up,0.8330761999823153,0.9809653844000644,,experiment,emotion,2.0,,,,1752.8915776000358,66,25,female,True
623,91.0,25,M,down,1.4148831000784412,1.8817362396579649,,experiment,emotion,2.0,,,,1755.8749429000309,66,25,female,True
624,83.0,25,F,down,0.8087955000810325,1.6204767264471134,,experiment,emotion,2.0,,,,1759.174826900009,66,25,female,True
625,80.0,25,F,down,0.8659284999594092,1.555616875511694,,experiment,emotion,2.0,,,,1761.8247459999984,66,25,female,True
626,80.0,25,M,down,0.704347199993208,1.4261555877947554,,experiment,emotion,2.0,,,,1764.3913010000251,66,25,female,True
627,83.0,25,F,down,0.8084163001039997,1.8705967935241767,,experiment,emotion,2.0,,,,1767.241210200009,66,25,female,True
628,91.0,25,F,up,0.7921149000758305,0.7374742169033128,,experiment,emotion,2.0,,,,1769.0745057000313,66,25,female,True
629,87.0,25,M,up,0.7242508000927046,1.7652871796562315,,experiment,emotion,2.0,,,,1771.9243687000126,66,25,female,True
630,80.0,25,M,up,0.9669705999549478,0.8807728102522396,,experiment,emotion,2.0,,,,1773.8076506999787,66,25,female,True
631,91.0,25,F,down,0.9207111999858172,1.3912985599615555,,experiment,emotion,2.0,,,,1776.440874800086,66,25,female,True
632,87.0,25,M,down,0.5788326999172568,1.0149672530605651,,experiment,emotion,2.0,,,,1778.6407906999812,66,25,female,True
633,87.0,25,F,up,0.8189120999304578,1.1079282601802298,,experiment,emotion,2.0,,,,1780.5907045999777,66,25,female,True
634,80.0,25,F,,,1.988283745584484,,experiment,emotion,2.0,,,,1783.673938299995,66,25,female,True
635,83.0,25,F,down,0.8858161999378353,0.8988479274206509,,experiment,emotion,2.0,,,,1787.2738014999777,66,25,female,True
636,91.0,25,M,down,0.7542329999851063,1.5892235941151,,experiment,emotion,2.0,,,,1790.040370700066,66,25,female,True
637,83.0,25,M,down,0.4416822999482974,1.2575889447200044,,experiment,emotion,2.0,,,,1792.3069596000714,66,25,female,True
638,83.0,25,F,down,0.7200837000273168,1.109977786359366,,experiment,emotion,2.0,,,,1794.1235677000368,66,25,female,True
639,83.0,25,F,up,0.5712071000598371,0.6504340248272784,,experiment,emotion,2.0,,,,1795.7734716000268,66,25,female,True
640,91.0,25,M,up,0.4798519000178203,1.693077263543066,,experiment,emotion,2.0,,,,1798.3067574000452,66,25,female,True
641,87.0,25,M,down,0.6327410000376403,1.306855512290773,,experiment,emotion,2.0,,,,1800.3898763000034,66,25,female,True
642,80.0,25,M,down,0.8513680000323802,1.4708561096672623,,experiment,emotion,2.0,,,,1802.7732474000657,66,25,female,True
643,80.0,25,M,down,0.6594161000102758,1.5173390096702029,,experiment,emotion,2.0,,,,1805.4231119999893,66,25,female,True
644,87.0,25,M,up,0.5161848000716418,0.8446500438803457,,experiment,emotion,2.0,,,,1807.206427700003,66,25,female,True
645,91.0,25,F,up,0.4936523999786004,0.7858397719602237,,experiment,emotion,2.0,,,,1808.77300460008,66,25,female,True
646,91.0,25,F,up,0.5223045999882743,0.983923152311829,,experiment,emotion,2.0,,,,1810.506288100034,66,25,female,True
647,80.0,25,M,down,0.7151923000346869,0.887835477846356,,experiment,emotion,2.0,,,,1812.1894012000407,66,25,female,True
648,91.0,25,F,down,0.5477424999698997,0.402332371412878,,experiment,emotion,2.0,,,,1813.572842100053,66,25,female,True
649,83.0,25,F,down,0.5384330999804661,0.9822005817362562,,experiment,emotion,2.0,,,,1815.3892426000675,66,25,female,True
650,87.0,25,F,down,0.6082949000410736,0.8300377250267215,,experiment,emotion,2.0,,,,1817.0393845000071,66,25,female,True
651,83.0,25,M,,,0.3188305143882022,,experiment,emotion,2.0,,,,1818.239336900064,66,25,female,True
652,80.0,25,F,up,1.1400451000081375,1.8771915858712789,,experiment,emotion,2.0,,,,1822.8225324000232,66,25,female,True
653,87.0,25,F,up,0.8635202000150457,0.8081175904948501,,experiment,emotion,2.0,,,,1825.0391210999803,66,25,female,True
654,83.0,25,F,up,0.5829725000075996,1.381498776555953,,experiment,emotion,2.0,,,,1827.5556551000336,66,25,female,True
655,87.0,25,M,down,1.090350699960254,1.0096648453199202,,experiment,emotion,2.0,,,,1829.4222561999925,66,25,female,True
656,80.0,25,M,down,0.8938222000142559,1.1645994482742577,,experiment,emotion,2.0,,,,1831.93882530008,66,25,female,True
657,91.0,25,F,down,0.6736095000524074,1.7578049905933628,,experiment,emotion,2.0,,,,1834.872027100064,66,25,female,True
658,87.0,25,M,down,0.6556818999815732,1.7103806985699923,,experiment,emotion,2.0,,,,1837.521961800056,66,25,female,True
659,91.0,25,F,down,0.7207398000173271,0.9280272348349194,,experiment,emotion,2.0,,,,1839.3718771000856,66,25,female,True
660,80.0,25,M,down,0.8878292998997495,1.7701500911816286,,experiment,emotion,2.0,,,,1842.1218055000063,66,25,female,True
661,83.0,25,M,down,0.7223075000802055,0.6019305542195249,,experiment,emotion,2.0,,,,1843.8883017000044,66,25,female,True
662,0.0755096360820588,25,up,up,0.678524799994193,0.3002930862160106,,experiment,cRDM,3.0,,,,1879.0371037999869,66,25,female,True
663,0.0755096360820588,25,up,down,0.8516118000261486,1.9971908318131808,,experiment,cRDM,3.0,,,,1881.9869998000795,66,25,female,True
664,0.0755096360820588,25,down,down,0.6316876999335364,0.8286426219478777,,experiment,cRDM,3.0,,,,1883.9369011999809,66,25,female,True
665,0.0755096360820588,25,down,down,0.6579411999555305,0.9477052458783652,,experiment,cRDM,3.0,,,,1885.7866756999863,66,25,female,True
666,0.0755096360820588,25,up,up,0.7798319000285119,1.437771912502766,,experiment,cRDM,3.0,,,,1888.1367658000672,66,25,female,True
667,0.0755096360820588,25,down,down,0.7840801000129431,1.0026457780057425,,experiment,cRDM,3.0,,,,1890.186523100012,66,25,female,True
668,0.0755096360820588,25,up,up,0.7486378999892622,0.4869027235991875,,experiment,cRDM,3.0,,,,1891.719962500036,66,25,female,True
669,0.0755096360820588,25,up,up,0.7087332999799401,1.943415083100553,,experiment,cRDM,3.0,,,,1894.6698630000465,66,25,female,True
670,0.0755096360820588,25,down,down,0.6638599000871181,1.5779408120898486,,experiment,cRDM,3.0,,,,1897.2197923000203,66,25,female,True
671,0.0755096360820588,25,down,down,0.6595812999876216,1.0111225852090566,,experiment,cRDM,3.0,,,,1899.153021199978,66,25,female,True
672,0.0755096360820588,25,down,down,0.8430183000164106,0.5440903267630093,,experiment,cRDM,3.0,,,,1900.61961970001,66,25,female,True
673,0.0755096360820588,25,down,down,0.8783531000372022,0.4254881813985212,,experiment,cRDM,3.0,,,,1902.1362459000663,66,25,female,True
674,0.0755096360820588,25,down,down,0.623781600035727,1.6250930692589205,,experiment,cRDM,3.0,,,,1904.902846800047,66,25,female,True
675,0.0755096360820588,25,down,down,0.7101726999972016,1.0326376824486754,,experiment,cRDM,3.0,,,,1906.8194170000495,66,25,female,True
676,0.0755096360820588,25,up,up,0.7568940999917686,0.908077633722736,,experiment,cRDM,3.0,,,,1908.702705800068,66,25,female,True
677,0.0755096360820588,25,up,up,0.5418905999977142,1.4696076643538996,,experiment,cRDM,3.0,,,,1911.18576760008,66,25,female,True
678,0.0755096360820588,25,up,up,0.9914223999949172,0.5803297195453665,,experiment,cRDM,3.0,,,,1912.569175700075,66,25,female,True
679,0.0755096360820588,25,up,down,0.6751438000937924,0.9893500676004088,,experiment,cRDM,3.0,,,,1914.802473000018,66,25,female,True
680,0.0755096360820588,25,down,up,0.7022502000909299,1.1172049488968632,,experiment,cRDM,3.0,,,,1916.8523444000168,66,25,female,True
681,0.0755096360820588,25,up,up,0.6029340999666601,0.9532094507122384,,experiment,cRDM,3.0,,,,1918.7856760000575,66,25,female,True
682,0.0755096360820588,25,up,up,0.5209881000919268,1.029562208690618,,experiment,cRDM,3.0,,,,1920.6856064000167,66,25,female,True
683,0.0755096360820588,25,down,down,0.6021209000609815,1.5597227981709412,,experiment,cRDM,3.0,,,,1923.0354705000063,66,25,female,True
684,0.0755096360820588,25,up,down,0.5925938999280334,1.7478920889671412,,experiment,cRDM,3.0,,,,1925.652026799973,66,25,female,True
685,0.0755096360820588,25,down,down,0.7546429000794888,1.460321191035951,,experiment,cRDM,3.0,,,,1927.951952000032,66,25,female,True
686,0.0755096360820588,25,down,down,0.574672499904409,0.6438819350284057,,experiment,cRDM,3.0,,,,1929.601930100005,66,25,female,True
687,0.0755096360820588,25,up,down,0.6344385000411421,0.5982677095653475,,experiment,cRDM,3.0,,,,1931.0351969000185,66,25,female,True
688,0.0755096360820588,25,up,up,0.5388540000421926,1.721358362023525,,experiment,cRDM,3.0,,,,1933.6517581000223,66,25,female,True
689,0.0755096360820588,25,down,down,0.6977264999877661,1.3374363900896056,,experiment,cRDM,3.0,,,,1935.7849396000383,66,25,female,True
690,0.0755096360820588,25,up,down,0.5640342999249697,1.864371874445146,,experiment,cRDM,3.0,,,,1938.6015597999797,66,25,female,True
691,0.0755096360820588,25,down,down,0.5361161000328138,1.5237610656023015,,experiment,cRDM,3.0,,,,1940.9514752000105,66,25,female,True
692,0.0755096360820588,25,down,down,0.4225562000647187,1.960566986529447,,experiment,cRDM,3.0,,,,1943.7180370000424,66,25,female,True
693,0.0755096360820588,25,down,down,0.6609359999420121,1.8962248855190165,,experiment,cRDM,3.0,,,,1946.2846539000748,66,25,female,True
694,0.0755096360820588,25,up,down,1.022380700102076,1.3468072249460332,,experiment,cRDM,3.0,,,,1948.551187400008,66,25,female,True
695,0.0755096360820588,25,up,down,0.7474798000184819,0.4520435996854193,,experiment,cRDM,3.0,,,,1950.3011461000424,66,25,female,True
696,0.0755096360820588,25,up,down,1.1922066999832168,1.0802639149425155,,experiment,cRDM,3.0,,,,1952.3844165999908,66,25,female,True
697,0.0755096360820588,25,down,down,0.7659506000345573,0.7708310504206748,,experiment,cRDM,3.0,,,,1954.617640200071,66,25,female,True
698,0.0755096360820588,25,down,up,1.146365400054492,0.6938912665756627,,experiment,cRDM,3.0,,,,1956.3342281000223,66,25,female,True
699,0.0755096360820588,25,up,down,0.7691241999855265,1.168483814250159,,experiment,cRDM,3.0,,,,1958.9174854999876,66,25,female,True
700,0.0755096360820588,25,down,down,0.883545899996534,1.3848375096839949,,experiment,cRDM,3.0,,,,1961.3340677000813,66,25,female,True
701,0.0755096360820588,25,up,up,1.1566546000540257,0.6582261338780865,,experiment,cRDM,3.0,,,,1963.133994600037,66,25,female,True
702,0.0755096360820588,25,up,down,0.7696608999976888,0.9340144288409667,,experiment,cRDM,3.0,,,,1965.4839518000367,66,25,female,True
703,0.0755096360820588,25,up,down,1.0940735000185668,0.3842033467161945,,experiment,cRDM,3.0,,,,1966.900535600027,66,25,female,True
704,0.0755096360820588,25,down,down,0.9138005999848248,1.326014748634732,,experiment,cRDM,3.0,,,,1969.5837848000228,66,25,female,True
705,0.0755096360820588,25,down,up,0.9442060000728816,0.798923427246488,,experiment,cRDM,3.0,,,,1971.550348700024,66,25,female,True
706,0.0755096360820588,25,up,down,0.7459792000008747,0.9201909295102844,,experiment,cRDM,3.0,,,,1973.683632100001,66,25,female,True
707,0.0755096360820588,25,down,down,1.16198059997987,0.4009123815986515,,experiment,cRDM,3.0,,,,1975.0835789000848,66,25,female,True
708,0.0755096360820588,25,down,down,0.9145843000151216,1.043598535005237,,experiment,cRDM,3.0,,,,1977.5501337000169,66,25,female,True
709,0.0755096360820588,25,up,down,0.8278819000115618,1.1456126348410174,,experiment,cRDM,3.0,,,,1979.8667031000368,66,25,female,True
710,0.0755096360820588,25,up,down,1.4286051000235602,1.4544129223505509,,experiment,cRDM,3.0,,,,1982.399978099973,66,25,female,True
711,0.0755096360820588,25,down,up,0.9770911999512464,1.089161909976099,,experiment,cRDM,3.0,,,,1985.1664996000472,66,25,female,True
712,0.0755096360820588,25,up,down,0.7851340000052005,1.0207333906647234,,experiment,cRDM,3.0,,,,1987.416444099974,66,25,female,True
713,0.0755096360820588,25,down,up,1.3729108000406995,1.4839288096240644,,experiment,cRDM,3.0,,,,1989.9496798000764,66,25,female,True
714,0.0755096360820588,25,down,down,0.8093201000010595,0.4462141838376446,,experiment,cRDM,3.0,,,,1992.0162686000112,66,25,female,True
715,0.0755096360820588,25,down,down,0.9197157999733464,1.3009772473567032,,experiment,cRDM,3.0,,,,1994.3828788000392,66,25,female,True
716,0.0755096360820588,25,up,up,1.0934868999756873,0.3922173182907063,,experiment,cRDM,3.0,,,,1995.9660973000573,66,25,female,True
717,0.0755096360820588,25,up,up,1.090900200069882,1.4105093636400166,,experiment,cRDM,3.0,,,,1998.7326830000384,66,25,female,True
718,0.0755096360820588,25,down,down,1.109321300056763,0.8139052030566423,,experiment,cRDM,3.0,,,,2000.899270700058,66,25,female,True
719,0.0755096360820588,25,down,up,1.1672361000673843,1.2156082864466218,,experiment,cRDM,3.0,,,,2003.4824230000377,66,25,female,True
720,0.0755096360820588,25,up,down,0.9444142000284046,1.73313886418944,,experiment,cRDM,3.0,,,,2006.632386500016,66,25,female,True
721,0.0755096360820588,25,up,down,1.0635568000143394,1.2684629323059764,,experiment,cRDM,3.0,,,,2009.09901450004,66,25,female,True
722,0.0755096360820588,25,up,up,1.2279878000263125,0.5283267909216449,,experiment,cRDM,3.0,,,,2010.9655658000847,66,25,female,True
723,0.0755096360820588,25,up,down,0.8064120999770239,0.9873043674702606,,experiment,cRDM,3.0,,,,2013.432154500042,66,25,female,True
724,0.0755096360820588,25,up,down,0.9467921999748796,0.53226061451716,,experiment,cRDM,3.0,,,,2015.0487555,66,25,female,True
725,0.0755096360820588,25,down,down,0.8317753999726847,1.1301568980980177,,experiment,cRDM,3.0,,,,2017.3818590000735,66,25,female,True
726,0.0755096360820588,25,down,up,0.4239734000293538,0.772197695719139,,experiment,cRDM,3.0,,,,2019.2485900999743,66,25,female,True
727,0.0755096360820588,25,up,up,0.8906956999562681,1.4427526121745982,,experiment,cRDM,3.0,,,,2021.3818895000727,66,25,female,True
728,0.0755096360820588,25,down,down,1.0305224999319762,1.5809171864306977,,experiment,cRDM,3.0,,,,2024.1150573000775,66,25,female,True
729,0.0755096360820588,25,down,up,0.6021853999700397,1.18899106431261,,experiment,cRDM,3.0,,,,2026.598377300077,66,25,female,True
730,0.0755096360820588,25,down,down,0.4879959000973031,1.2657803349494816,,experiment,cRDM,3.0,,,,2028.731579300016,66,25,female,True
731,0.0755096360820588,25,up,up,0.7054023999953642,1.379638063291818,,experiment,cRDM,3.0,,,,2030.8481745000463,66,25,female,True
732,0.0755096360820588,25,down,up,0.7404640999156982,0.3389209090604029,,experiment,cRDM,3.0,,,,2032.148115399992,66,25,female,True
