,stimLvl,stimTime,rand,response,rt,precedingITI,trialNumber,trialType,stimuli,block,estIntens,estThres,estSlope,trialStart,subject,age,gender,headRest
0,0.9,100,down,,,1.2559670466741932,,introTrial,cRDM,,,,,184.6345343999565,72,23,female,True
1,150.0,100,F,,,1.0212541119872096,,introTrial,emotion,,,,,189.617670299951,72,23,female,True
2,200.0,25,M,up,0.8451558999950066,0.638705365612847,,tutorial,emotion,,,,,223.432703199971,72,23,female,True
3,200.0,25,M,up,0.6010876000509597,0.6420505007495358,,tutorial,emotion,,,,,225.1827664999873,72,23,female,True
4,200.0,25,F,up,0.4808472000295296,0.4498033121022385,,tutorial,emotion,,,,,226.5329695999972,72,23,female,True
5,0.0,25,M,down,0.4595763999968767,1.3186266362023085,,tutorial,emotion,,,,,228.6492984999786,72,23,female,True
6,0.0,25,F,down,0.5184213999891654,0.8385901890042922,,tutorial,emotion,,,,,230.23249079997183,72,23,female,True
7,200.0,25,M,up,0.4166082000010647,1.9724315327629056,,tutorial,emotion,,,,,233.0158780000056,72,23,female,True
8,0.0,25,M,up,0.3835318999481387,1.8861362602385885,,tutorial,emotion,,,,,235.61568699998315,72,23,female,True
9,200.0,25,F,up,0.6928451000130735,1.7251605258501217,,tutorial,emotion,,,,,238.0489900999819,72,23,female,True
10,0.0,25,F,down,0.4439352999906987,1.0816172598019993,,tutorial,emotion,,,,,240.0988727999502,72,23,female,True
11,0.0,25,F,down,0.5763588000554591,1.94475157374444,,tutorial,emotion,,,,,242.7654695999809,72,23,female,True
12,0.9,25,up,up,0.7447553999954835,1.926362509480964,,tutorial,cRDM,,,,,250.9320793999941,72,23,female,True
13,0.9,25,up,up,0.7348089999868535,1.9483934707329151,,tutorial,cRDM,,,,,253.91503669996743,72,23,female,True
14,0.9,25,down,down,0.4305328000336885,1.0078750384065291,,tutorial,cRDM,,,,,255.94831569999224,72,23,female,True
15,0.9,25,down,down,0.5672678000410087,0.4188296406180626,,tutorial,cRDM,,,,,257.0816003999789,72,23,female,True
16,0.9,25,up,up,0.5279890999663621,1.1257224469566156,,tutorial,cRDM,,,,,259.0648411999573,72,23,female,True
17,0.9,25,down,down,0.4167676999932155,1.4231452131113962,,tutorial,cRDM,,,,,261.2814481999958,72,23,female,True
18,0.9,25,up,up,0.6467675000312738,0.787696806600644,,tutorial,cRDM,,,,,262.74806670000544,72,23,female,True
19,0.9,25,up,up,0.560565099993255,0.3188664087836289,,tutorial,cRDM,,,,,263.98134080000455,72,23,female,True
20,0.9,25,down,down,0.4167676000506617,0.967977655461284,,tutorial,cRDM,,,,,265.7812859999831,72,23,female,True
21,0.9,25,down,down,0.5969252000213601,0.9224687937552822,,tutorial,cRDM,,,,,267.39788780000526,72,23,female,True
22,100.0,25,M,down,1.1656539000105113,1.1626503035590667,,psi_staircase_training,emotion,,100.0,100.0,25.00050000000001,276.2642196999513,72,23,female,True
23,145.0,25,M,up,0.714762499963399,1.7260938445428728,,psi_staircase_training,emotion,,145.25719053245996,145.25719053245996,25.00050000000028,279.51408489997266,72,23,female,True
24,121.0,25,F,up,0.4794635000289418,1.7175319923853405,,psi_staircase_training,emotion,,120.36392901436103,120.36392901436103,25.71326925488699,282.2973564999993,72,23,female,True
25,97.0,25,F,down,0.6144587000017054,1.819278438374533,,psi_staircase_training,emotion,,102.3887610608496,102.3887610608496,26.14633372628729,284.9304074999527,72,23,female,True
26,113.0,25,M,down,0.6913272999809124,0.7783782423974795,,psi_staircase_training,emotion,,114.01123255420406,114.01123255420406,23.00305641778335,286.68052919994807,72,23,female,True
27,127.0,25,F,down,0.8362397000310011,0.9855329563610582,,psi_staircase_training,emotion,,123.15505271238727,123.15505271238727,23.86267166612523,288.713743100001,72,23,female,True
28,145.0,25,M,down,0.8105247999774292,0.6397487959934103,,psi_staircase_training,emotion,,133.76245959025556,133.76245959025556,29.226287156732635,290.5302910999744,72,23,female,True
29,159.0,25,F,up,0.7471998000401072,0.924818713308458,,psi_staircase_training,emotion,,145.4672174054665,145.4672174054665,34.07518146954166,292.6136327999993,72,23,female,True
30,156.0,25,F,up,0.7650035999831744,0.7177530165360027,,psi_staircase_training,emotion,,139.7991031030753,139.7991031030753,32.474348189490215,294.4468743999605,72,23,female,True
31,154.0,25,M,down,0.7433903000201099,0.7371508291936397,,psi_staircase_training,emotion,,135.5990092115404,135.5990092115404,30.972631885178444,296.31346979999216,72,23,female,True
32,164.0,25,F,down,0.9477526000118814,1.3822405373618472,,psi_staircase_training,emotion,,143.78722151518863,143.78722151518863,34.48390530977039,298.78006699995603,72,23,female,True
33,171.0,25,F,up,0.7252113999566063,1.2794538232106352,,psi_staircase_training,emotion,,151.72933006160187,151.72933006160187,37.31847104337844,301.34664319996955,72,23,female,True
34,170.0,25,F,up,0.823654500010889,1.1696037168470137,,psi_staircase_training,emotion,,148.47845172640092,148.47845172640092,36.43961053305262,303.6132006999688,72,23,female,True
35,169.0,25,M,up,0.7270141000044532,1.4882729166890405,,psi_staircase_training,emotion,,145.7863867655708,145.7863867655708,35.60348355222055,306.2798051999998,72,23,female,True
36,122.0,25,M,down,0.8008145000203513,1.3012442954350454,,psi_staircase_training,emotion,,143.5352394900417,143.5352394900417,34.814661751436304,308.66302409995114,72,23,female,True
37,124.0,25,F,down,0.8785038000205532,0.50714295822097,,psi_staircase_training,emotion,,145.74593759034127,145.74593759034127,33.93320107995476,310.3463173999917,72,23,female,True
38,173.0,25,F,up,0.9179973000427708,1.882890596608333,,psi_staircase_training,emotion,,147.67636408615033,147.67636408615033,33.08833419214535,313.4628541999846,72,23,female,True
39,123.0,25,M,down,0.7214123000157997,1.050021511474498,,psi_staircase_training,emotion,,146.04450884851175,146.04450884851175,32.10341253603699,315.7794389000046,72,23,female,True
40,174.0,25,M,up,0.8635200000135228,1.9297627401255848,,psi_staircase_training,emotion,,147.5852253582347,147.5852253582347,31.174178065818232,318.77932129998226,72,23,female,True
41,123.0,25,M,down,0.6483032000251114,1.989288450433552,,psi_staircase_training,emotion,,146.29596562521448,146.29596562521448,30.16020797839028,321.96254969999427,72,23,female,True
42,173.0,25,M,up,0.6686689999769442,0.6341029339603778,,psi_staircase_training,emotion,,147.5726221470186,147.5726221470186,29.18298546333827,323.5791468999814,72,23,female,True
43,125.0,25,F,down,0.6791974999941885,1.6272329195030766,,psi_staircase_training,emotion,,146.48689443784943,146.48689443784943,28.158120194075664,326.21263559994986,72,23,female,True
44,173.0,25,F,up,0.9031624000053852,0.4697373585309885,,psi_staircase_training,emotion,,147.63591790626137,147.63591790626137,27.15580292998165,327.69563939998625,72,23,female,True
45,127.0,25,F,down,0.6725950000109151,0.7548527367256876,,psi_staircase_training,emotion,,146.7576214716939,146.7576214716939,26.160754989483564,329.712259699998,72,23,female,True
46,129.0,25,M,down,0.7346421999973245,0.4055805742861814,,psi_staircase_training,emotion,,147.80561036018713,147.80561036018713,25.161333190923,331.1621979000047,72,23,female,True
47,172.0,25,M,down,0.9006779000046663,0.6938488388471653,,psi_staircase_training,emotion,,148.77262622661655,148.77262622661655,24.21225304671585,332.9621368999942,72,23,female,True
48,180.0,25,F,up,0.7152029999997467,0.9615315388801164,,psi_staircase_training,emotion,,152.35100478652006,152.35100478652006,28.959339391469324,335.1787180999527,72,23,female,True
49,179.0,25,F,up,0.7801597999641672,0.6319155605304743,,psi_staircase_training,emotion,,151.52950902644378,151.52950902644378,28.026238112805,336.87865639996016,72,23,female,True
50,127.0,25,M,down,0.6942878000554629,1.4872039090635405,,psi_staircase_training,emotion,,150.81763422507643,150.81763422507643,27.153888717508337,339.4785564999911,72,23,female,True
51,178.0,25,M,up,0.8503473000018857,0.8498177313695277,,psi_staircase_training,emotion,,151.57128229702437,151.57128229702437,26.31383008907173,341.37850659998367,72,23,female,True
52,0.29,25,up,up,0.7968210999970324,0.4412474421484498,,psi_staircase_training,cRDM,,0.25,0.2569312402994632,0.105,346.3949907999486,72,23,female,True
53,0.25,25,up,up,0.6683047999977134,1.2359757137773235,,psi_staircase_training,cRDM,,0.2191026665318312,0.2260132002683492,0.1046863203387393,348.71156529994914,72,23,female,True
54,0.21,25,down,down,0.5233736000373028,1.895976505510467,,psi_staircase_training,cRDM,,0.1900540959403307,0.1968497961554001,0.1029467298424999,351.56146830000216,72,23,female,True
55,0.18,25,down,up,0.8431827999884263,1.3406008397759062,,psi_staircase_training,cRDM,,0.1635257589279754,0.1701521334256793,0.1003816477568649,353.7116342999507,72,23,female,True
56,0.28,25,up,up,1.0262128000031223,1.5542591284430889,,psi_staircase_training,cRDM,,0.2462894156509761,0.253676874431043,0.111911164292932,356.3946010999498,72,23,female,True
57,0.26,25,down,down,0.6153535000048578,1.8081054869631688,,psi_staircase_training,cRDM,,0.224020924517144,0.2312720210897802,0.1098454399547734,359.4944919999689,72,23,female,True
58,0.23,25,up,up,0.6150873000151478,1.3752759298862849,,psi_staircase_training,cRDM,,0.2047781477371871,0.211824604656558,0.106745393979666,361.77775399998063,72,23,female,True
59,0.23,25,down,down,0.5444820999982767,1.776880780750764,,psi_staircase_training,cRDM,,0.1874201716315257,0.1943184465858974,0.1045006144520947,364.4443514999584,72,23,female,True
60,0.21,25,down,down,0.8499015000415966,1.1445540631490327,,psi_staircase_training,cRDM,,0.1734597158637905,0.1801271287888497,0.1010033308447589,366.4109271999914,72,23,female,True
61,0.17,25,up,up,0.5766376000246964,1.9606534973681864,,psi_staircase_training,cRDM,,0.1604596670362223,0.167027966793554,0.0995018849040958,369.49417309998535,72,23,female,True
62,0.17,25,down,down,0.6482190000242554,1.8924576086553395,,psi_staircase_training,cRDM,,0.1444495168362478,0.1514653128703286,0.1062809182413607,372.2276245999965,72,23,female,True
63,0.16,25,down,down,0.7281528000021353,0.7083628146035426,,psi_staircase_training,cRDM,,0.129450188150751,0.1367437410700543,0.1104886028242535,373.8606438999996,72,23,female,True
64,0.16,25,down,up,0.7382787000387907,1.6600140601461435,,psi_staircase_training,cRDM,,0.1156905289793604,0.1231375720578864,0.1128137951451177,376.5105245999876,72,23,female,True
65,0.19,25,up,up,0.7910271000000648,0.5599336566679141,,psi_staircase_training,cRDM,,0.1605975675993044,0.1680496659611478,0.1128903766406925,378.0938026999938,72,23,female,True
66,0.16,25,up,down,0.6637521000229754,1.710401329618266,,psi_staircase_training,cRDM,,0.1491683409477305,0.1567653628909072,0.1150857955531169,380.87705539999297,72,23,female,True
67,0.22,25,down,down,0.6029645000235178,1.397908413544913,,psi_staircase_training,cRDM,,0.1812267840685635,0.1876324496221932,0.0970381712466677,383.2268366999924,72,23,female,True
68,0.21,25,down,down,0.8388167999801226,1.9927361754869573,,psi_staircase_training,cRDM,,0.1740457498739684,0.1800948263783671,0.0916362736711137,386.11000429996056,72,23,female,True
69,0.2,25,up,up,0.6631054000463337,1.7050587350805375,,psi_staircase_training,cRDM,,0.1680826395665373,0.173829461428732,0.0870574773720039,388.9267278999905,72,23,female,True
70,0.19,25,up,up,0.678389199951198,0.6758521566218902,,psi_staircase_training,cRDM,,0.162528825324998,0.1680907935787693,0.084257166309933,390.5434328999836,72,23,female,True
71,0.16,25,up,down,0.7963108999538235,0.4457523344696544,,psi_staircase_training,cRDM,,0.1565495146048564,0.1621149522710414,0.0843097237581961,391.9265184999677,72,23,female,True
72,0.2,25,up,down,0.9232712999801151,1.973811819422402,,psi_staircase_training,cRDM,,0.1762015267686995,0.1801978059326458,0.0605388493379538,394.9765367999789,72,23,female,True
73,0.23,25,down,down,0.7057042000233196,1.3100635902907682,,psi_staircase_training,cRDM,,0.1952362447372446,0.2009526368648103,0.0865965032897316,397.4931043999968,72,23,female,True
74,0.23,25,down,down,0.7021530999918468,1.87563653377646,,psi_staircase_training,cRDM,,0.1900705368604641,0.1953151396241353,0.0794494587394582,400.3596693999716,72,23,female,True
75,0.22,25,down,up,0.883228600025177,0.5216531651350828,,psi_staircase_training,cRDM,,0.1864568295595666,0.1912475319156187,0.0725734104795683,401.8596122000017,72,23,female,True
76,0.25,25,up,up,0.6449499999871477,0.6223255843662335,,psi_staircase_training,cRDM,,0.2061848196383349,0.2137512269214393,0.1146220200715716,403.6428812999511,72,23,female,True
77,0.24,25,up,up,0.7906778999604285,1.6716745291210977,,psi_staircase_training,cRDM,,0.1996801967740321,0.2068536372006255,0.1086690422276416,406.22612249996746,72,23,female,True
78,0.24,25,down,down,0.6457795000169426,1.7296929903419165,,psi_staircase_training,cRDM,,0.1944262028424458,0.2011987129937502,0.1025954281143624,409.0260211999994,72,23,female,True
79,0.24,25,down,down,0.6281896999571472,0.7947840166336421,,psi_staircase_training,cRDM,,0.1904615435593143,0.1968239090133522,0.0963822265296026,410.7426191999693,72,23,female,True
80,0.2,25,up,up,0.5632825000211596,0.9126395602359084,,psi_staircase_training,cRDM,,0.1875788005959896,0.1935323312644094,0.0901888685395139,412.54255359998206,72,23,female,True
81,0.2,25,up,down,0.7219871999695897,0.6234456715475234,,psi_staircase_training,cRDM,,0.1809453171585237,0.1872310870746888,0.0952218957476417,414.02584019995993,72,23,female,True
82,100.0,25,M,down,0.7728755999705754,1.1557473031436212,,psi_staircase,emotion,,100.0,100.0,25.00050000000001,428.6419416999561,72,23,female,True
83,145.0,25,M,up,0.8876248000306077,1.7608118451086443,,psi_staircase,emotion,,145.25719053245996,145.25719053245996,25.00050000000028,431.5251873999951,72,23,female,True
84,121.0,25,F,up,0.9056649000267498,1.2415687047219488,,psi_staircase,emotion,,120.36392901436103,120.36392901436103,25.71326925488699,434.0083008999936,72,23,female,True
85,97.0,25,F,down,0.6527742000180297,0.8225243821812074,,psi_staircase,emotion,,102.3887610608496,102.3887610608496,26.14633372628729,436.075021800003,72,23,female,True
86,113.0,25,M,down,0.644580899970606,1.3763060959669735,,psi_staircase,emotion,,114.01123255420406,114.01123255420406,23.00305641778335,438.45825019996846,72,23,female,True
87,127.0,25,F,down,0.6926193999825045,0.7574904984167312,,psi_staircase,emotion,,123.15505271238727,123.15505271238727,23.86267166612523,440.20821529999375,72,23,female,True
88,145.0,25,M,up,0.659703699988313,1.776164090112287,,psi_staircase,emotion,,133.76245959025556,133.76245959025556,29.226287156732635,443.0080722999992,72,23,female,True
89,140.0,25,F,up,0.6881168999825604,0.6430963140355188,,psi_staircase,emotion,,127.93269301967058,127.93269301967058,26.811207544202706,444.6747146999696,72,23,female,True
90,110.0,25,F,down,0.7008995999931358,1.2885207806339638,,psi_staircase,emotion,,123.88610585272784,123.88610585272784,24.784487732922976,447.0079061999568,72,23,female,True
91,137.0,25,M,up,0.9242841000086628,1.2154392341385856,,psi_staircase,emotion,,126.7347585660952,126.7347585660952,22.925322719564125,449.2745409999625,72,23,female,True
92,111.0,25,F,down,0.742660700052511,0.8666025606645029,,psi_staircase,emotion,,123.88369890517951,123.88369890517951,20.899202339967864,451.4411287999828,72,23,female,True
93,134.0,25,F,up,0.7465350000420585,1.070108650936431,,psi_staircase,emotion,,125.7885378881843,125.7885378881843,19.033043596315803,453.6242485999828,72,23,female,True
94,117.0,25,F,down,0.8190596000058576,0.3773994188892621,,psi_staircase,emotion,,123.6634519488382,123.6634519488382,17.210675921352436,455.0910016999696,72,23,female,True
95,136.0,25,M,down,0.8273456000024453,1.2618738702072505,,psi_staircase,emotion,,125.50607039304136,125.50607039304136,15.78959440452799,457.52448649995495,72,23,female,True
96,147.0,25,M,up,0.6524373000138439,1.589338631989566,,psi_staircase,emotion,,129.8163725307492,129.8163725307492,21.83657284763656,460.30744020000566,72,23,female,True
97,146.0,25,F,up,0.9412174999597482,1.907368853972684,,psi_staircase,emotion,,128.48148512949572,128.48148512949572,20.039111869872368,463.24066969996784,72,23,female,True
98,113.0,25,F,down,0.7675901000038721,1.572855065285287,,psi_staircase,emotion,,127.53408440305114,127.53408440305114,18.514909188694663,466.10723779996624,72,23,female,True
99,144.0,25,M,up,1.1772730000084266,0.5430218454320506,,psi_staircase,emotion,,128.51393541136946,128.51393541136946,17.069703878730706,467.7905105999671,72,23,female,True
100,115.0,25,M,down,0.713829500018619,1.1892147256094787,,psi_staircase,emotion,,127.78926711735102,127.78926711735102,15.785137084553105,470.5070469999919,72,23,female,True
101,118.0,25,M,down,0.7014842000207864,0.9800156035468084,,psi_staircase,emotion,,128.59176236356626,128.59176236356626,14.585075470248348,472.5403216999839,72,23,female,True
102,141.0,25,M,down,0.820918100012932,1.6664304672985772,,psi_staircase,emotion,,129.34701780209184,129.34701780209184,13.577466603804195,475.2568730000057,72,23,female,True
103,150.0,25,F,down,0.9426500000408852,1.8587106938109408,,psi_staircase,emotion,,132.15912594343462,132.15912594343462,18.041690916571977,478.2901092999964,72,23,female,True
104,158.0,25,F,down,0.581532199983485,1.442496042063657,,psi_staircase,emotion,,135.7566586288961,135.7566586288961,24.745674714031068,481.0232591999811,72,23,female,True
105,167.0,25,F,up,0.6798472999944352,0.7475227887817075,,psi_staircase,emotion,,140.08764655590454,140.08764655590454,31.11116403906574,482.70693539996864,72,23,female,True
106,166.0,25,M,up,0.715896799985785,0.892806738915354,,psi_staircase,emotion,,138.94959283053532,138.94959283053532,29.914628710006703,484.6398989000008,72,23,female,True
107,165.0,25,M,up,1.0073077999986708,0.5556128491173398,,psi_staircase,emotion,,137.98430401181236,137.98430401181236,28.77815128511723,486.2565077999607,72,23,female,True
108,164.0,25,F,up,0.9581204999703914,1.9802432240069687,,psi_staircase,emotion,,137.1633443206432,137.1633443206432,27.705481342189017,489.5896882999805,72,23,female,True
109,163.0,25,F,up,0.9515145999612288,1.0840612533286564,,psi_staircase,emotion,,136.4624083850501,136.4624083850501,26.698223674334987,491.9563158999663,72,23,female,True
110,110.0,25,M,down,0.6952108000405133,0.4891933444202108,,psi_staircase,emotion,,135.86073521789422,135.86073521789422,25.7562108513882,493.7395494999946,72,23,female,True
111,162.0,25,M,up,0.724328999989666,1.63558279285109,,psi_staircase,emotion,,136.42247695489203,136.42247695489203,24.845947046361285,496.4394594999612,72,23,female,True
112,111.0,25,F,down,0.693766999989748,0.739804672000162,,psi_staircase,emotion,,135.90323643024715,135.90323643024715,23.96997668445278,498.2560621000012,72,23,female,True
113,160.0,25,M,up,0.7701821000082418,1.6507315405816092,,psi_staircase,emotion,,136.3920145127718,136.3920145127718,23.13316738446037,500.9726316999877,72,23,female,True
114,113.0,25,F,down,0.7040133000118658,1.2259147180537775,,psi_staircase,emotion,,135.91751588597066,135.91751588597066,22.326850251804096,503.3057874999941,72,23,female,True
115,159.0,25,M,up,0.7202724000089802,0.4568983175661121,,psi_staircase,emotion,,136.3696874326342,136.3696874326342,21.56181047933917,504.8225130999927,72,23,female,True
116,114.0,25,F,down,0.7978035000269301,1.8007608911828488,,psi_staircase,emotion,,135.95091708787325,135.95091708787325,20.84467258919884,507.6890199999907,72,23,female,True
117,157.0,25,M,down,1.3461450000177138,1.0132167229615476,,psi_staircase,emotion,,136.35389441293702,136.35389441293702,20.167960951354377,509.8556394999614,72,23,female,True
118,164.0,25,F,up,0.7959511000080965,1.387608978079299,,psi_staircase,emotion,,138.50636671947973,138.50636671947973,23.629851545948927,512.93883249996,72,23,female,True
119,114.0,25,M,down,0.7396303999703377,0.4810640067240034,,psi_staircase,emotion,,138.11260008999187,138.11260008999187,22.9363344742042,514.5721589999739,72,23,female,True
120,163.0,25,M,up,0.7201139000244439,0.966805222658625,,psi_staircase,emotion,,138.4947210263555,138.4947210263555,22.284794994708623,516.6387145000044,72,23,female,True
121,115.0,25,F,down,0.7005736000137404,1.1855991353982676,,psi_staircase,emotion,,138.1414175462223,138.1414175462223,21.666806659219223,518.9052308999817,72,23,female,True
122,162.0,25,F,up,0.7062760000117123,1.7272424945946507,,psi_staircase,emotion,,138.49254661340285,138.49254661340285,21.084759696438915,521.6885237999959,72,23,female,True
123,116.0,25,F,down,0.6858353999559768,0.4554152705821243,,psi_staircase,emotion,,138.17124090791222,138.17124090791222,20.53904851376015,523.2049859999679,72,23,female,True
124,160.0,25,M,up,0.6257431000121869,0.6639077329373123,,psi_staircase,emotion,,138.49795737266015,138.49795737266015,20.02234032341188,524.9050630999845,72,23,female,True
125,118.0,25,M,down,0.6664532999857329,0.3224215884742601,,psi_staircase,emotion,,138.1826814066567,138.1826814066567,19.533265447999028,526.1883518999675,72,23,female,True
126,159.0,25,F,up,0.7205295999883674,1.6294235942377675,,psi_staircase,emotion,,138.51048335788374,138.51048335788374,19.066656155292357,528.8382772000041,72,23,female,True
127,119.0,25,F,down,0.6868947999901138,1.6379615947681678,,psi_staircase,emotion,,138.2147611938508,138.2147611938508,18.63496187932665,531.5548992999829,72,23,female,True
128,120.0,25,F,down,0.9809822000097485,0.4432358891451002,,psi_staircase,emotion,,138.5273524763253,138.5273524763253,18.219199501203367,533.0218072999851,72,23,female,True
129,157.0,25,M,up,0.6686522999661975,1.8701432109706349,,psi_staircase,emotion,,138.82781558936827,138.82781558936827,17.83355870974388,536.2211474999785,72,23,female,True
130,121.0,25,M,down,0.7212363000144251,0.8136712462229321,,psi_staircase,emotion,,138.52727740741716,138.52727740741716,17.45717848055957,538.0545867999899,72,23,female,True
131,156.0,25,M,up,0.8409727999824099,1.7756321373385573,,psi_staircase,emotion,,138.81975531737942,138.81975531737942,17.10963246873725,540.8878125000047,72,23,female,True
132,0.29,25,up,up,0.6254718999844044,0.4460934734926148,,psi_staircase,cRDM,,0.25,0.2569312402994632,0.105,546.554308199964,72,23,female,True
133,0.25,25,up,up,0.4198881000047549,1.020533602129956,,psi_staircase,cRDM,,0.2191026665318312,0.2260132002683492,0.1046863203387393,548.4708978999988,72,23,female,True
134,0.21,25,down,down,0.5166951999999583,0.600305288976435,,psi_staircase,cRDM,,0.1900540959403307,0.1968497961554001,0.1029467298424999,549.7541640999843,72,23,female,True
135,0.18,25,down,down,0.4907036999939009,0.5738933710623462,,psi_staircase,cRDM,,0.1635257589279754,0.1701521334256793,0.1003816477568649,551.1040909999865,72,23,female,True
136,0.15,25,up,up,0.491214299981948,1.562550337735848,,psi_staircase,cRDM,,0.1401895574244936,0.1466013351187503,0.0971307628663642,553.4205942999688,72,23,female,True
137,0.13,25,down,down,0.4869015999720432,1.0294959341516583,,psi_staircase,cRDM,,0.1198760602145479,0.1260554767618333,0.0936107694196103,555.2039375999593,72,23,female,True
138,0.11,25,up,up,0.5389283999684267,1.1408873699518456,,psi_staircase,cRDM,,0.1025773523696548,0.1084910344569865,0.0895852101993795,557.1038883999572,72,23,female,True
139,0.09,25,down,down,0.4956539000268094,1.0757306325481837,,psi_staircase,cRDM,,0.087844325958594,0.0934818215320969,0.0854013148647635,558.9871400999837,72,23,female,True
140,0.08,25,down,up,0.5440709000104107,1.9104657976487165,,psi_staircase,cRDM,,0.0751852092118086,0.0805556301471181,0.0813554535472043,561.6537352000014,72,23,female,True
141,0.13,25,up,up,0.6841174999717623,0.4855778308072951,,psi_staircase,cRDM,,0.1145374077699418,0.1210371210567565,0.0984628819128368,562.9536841999507,72,23,female,True
142,0.13,25,down,down,0.5531868999823928,1.7712949425786837,,psi_staircase,cRDM,,0.1023941484636293,0.108577482786431,0.0936701190325844,565.6535767999594,72,23,female,True
143,0.12,25,down,up,0.6592853000038303,1.37999003502873,,psi_staircase,cRDM,,0.093157405715179,0.098965388034743,0.0879839851464166,567.8534900999512,72,23,female,True
144,0.16,25,down,down,0.7694184000138193,1.5197527582980068,,psi_staircase,cRDM,,0.1290085181734406,0.136602985232638,0.1150470921167567,570.3034010999836,72,23,female,True
145,0.16,25,up,up,0.8321258000214584,0.7551338087029283,,psi_staircase,cRDM,,0.1173317507949223,0.1246537931796921,0.1109201841494908,572.086672299949,72,23,female,True
146,0.15,25,up,down,0.7120057999854907,1.5340148131085531,,psi_staircase,cRDM,,0.1084336674921715,0.115430444050328,0.105992795930524,574.7197689999593,72,23,female,True
147,0.2,25,down,down,0.9282805000548252,0.8858074725644356,,psi_staircase,cRDM,,0.1440985501660944,0.1528134769152337,0.1320207162245539,576.5865006999811,72,23,female,True
148,0.19,25,down,down,0.6653998999972828,1.796537566879178,,psi_staircase,cRDM,,0.1325912663771264,0.1411239034644318,0.1292592458865469,579.5864048999501,72,23,female,True
149,0.18,25,up,up,0.4885880999499932,1.9237489031913664,,psi_staircase,cRDM,,0.1233039328808346,0.1316215548003485,0.1260020232766401,582.4362811999745,72,23,female,True
150,0.14,25,up,down,0.8845339000108652,0.598219293279348,,psi_staircase,cRDM,,0.115722336329528,0.1238112601928907,0.1225375212743451,583.7862338999985,72,23,female,True
151,0.19,25,up,down,1.188688899972476,1.4601814632595576,,psi_staircase,cRDM,,0.1439071532112445,0.1517073382667783,0.1181634736995734,586.3861255999655,72,23,female,True
152,0.25,25,up,up,0.992070699983742,0.8188520386508253,,psi_staircase,cRDM,,0.1805514960257723,0.1899552348436357,0.1424553951696235,588.6527295999695,72,23,female,True
153,0.23,25,down,down,0.6547988000093028,0.5377768043816421,,psi_staircase,cRDM,,0.1689247627565658,0.1781996342304796,0.1405032090485096,590.4360112999566,72,23,female,True
154,0.22,25,down,down,0.6355381000321358,1.856026555737734,,psi_staircase,cRDM,,0.1589826371635703,0.1681072779937907,0.1382273944891694,593.219239099999,72,23,female,True
155,0.18,25,down,down,0.8915839000255801,1.1183889611425464,,psi_staircase,cRDM,,0.1506197719998871,0.1595753403312791,0.1356661483614953,595.2191915999865,72,23,female,True
156,0.18,25,up,up,0.5977505999617279,1.3901386719513993,,psi_staircase,cRDM,,0.141929505809857,0.150895208280746,0.1358196684533131,597.7690599999623,72,23,female,True
157,0.18,25,up,up,0.8341210000216961,1.5490542509501677,,psi_staircase,cRDM,,0.1344638771559712,0.1433773446137336,0.1350283704833497,600.1856785999844,72,23,female,True
158,0.18,25,down,down,0.7852858999976888,1.2062744190836074,,psi_staircase,cRDM,,0.1281246043649236,0.136936679001517,0.1334923905197682,602.4855475999648,72,23,female,True
159,0.13,25,down,down,0.7316053999820724,0.3221350818508127,,psi_staircase,cRDM,,0.1227915679817597,0.1314638450281904,0.1313746242423215,603.8521773999673,72,23,female,True
160,0.13,25,up,up,0.5393351000384428,0.4951804500602969,,psi_staircase,cRDM,,0.1154530875356387,0.1244606995465503,0.1364545478561691,605.3354472999927,72,23,female,True
161,0.13,25,up,down,1.0898712999769486,0.8731808788897966,,psi_staircase,cRDM,,0.1086597922209725,0.1179098749422691,0.1401276890964745,607.0019216999644,72,23,female,True
162,0.19,25,down,down,0.6660851999768056,0.6441744828580429,,psi_staircase,cRDM,,0.1275686181099299,0.1363136797612038,0.1324772239471879,609.0186840999522,72,23,female,True
163,0.13,25,up,up,0.6172116000088863,0.9741564845108388,,psi_staircase,cRDM,,0.1235618157913312,0.1321020452775931,0.1293742616493815,610.9185620999779,72,23,female,True
164,0.13,25,down,down,0.6513171000406146,1.8671408681575343,,psi_staircase,cRDM,,0.116872937518945,0.1257789739037973,0.1349157986171537,613.6684868999873,72,23,female,True
165,0.13,25,up,up,0.527712800016161,1.9033324403715135,,psi_staircase,cRDM,,0.1106332049881422,0.1198118568130148,0.1390455964549747,616.5020481999964,72,23,female,True
166,0.13,25,down,down,0.7431646999903023,1.4588573294429894,,psi_staircase,cRDM,,0.1048919932368349,0.1142657600889938,0.1420013557390156,618.7516390999663,72,23,female,True
167,0.12,25,up,up,0.66687269997783,1.130983141988366,,psi_staircase,cRDM,,0.0996458988180838,0.1091533753057288,0.1440268967849855,620.8848810999771,72,23,female,True
168,0.13,25,down,down,0.7069865000084974,0.720085524400755,,psi_staircase,cRDM,,0.0946553543489311,0.1042826614557257,0.1458421873343092,622.5348192999954,72,23,female,True
169,0.14,25,up,up,0.6104230999480933,1.940139944362078,,psi_staircase,cRDM,,0.0902779162000977,0.099955452136704,0.1466030940266705,625.4513554999721,72,23,female,True
170,0.17,25,up,up,0.6154604000039399,0.3278692794809195,,psi_staircase,cRDM,,0.086524622247216,0.0961948925697957,0.1464930286646519,626.6513405999867,72,23,female,True
171,0.11,25,down,down,0.5385225999634713,1.7331447280661418,,psi_staircase,cRDM,,0.0838220671226125,0.0934077712107523,0.1452119513635421,629.2512341999682,72,23,female,True
172,0.11,25,down,down,0.8259794999612495,1.9101531844714623,,psi_staircase,cRDM,,0.0798932367476233,0.0895430691485644,0.1461834185978625,631.9678064999753,72,23,female,True
173,0.18,25,down,down,0.7353879999718629,1.289467812912765,,psi_staircase,cRDM,,0.076262239198002,0.0859506645606126,0.1467680558056679,634.3344029999571,72,23,female,True
174,0.11,25,up,up,0.5179980000248179,1.6581852947110611,,psi_staircase,cRDM,,0.0742412018563168,0.0838375578518081,0.145373315019047,637.0007722000009,72,23,female,True
175,0.18,25,up,up,0.849599999957718,1.0998782404647236,,psi_staircase,cRDM,,0.071003932668406,0.0806196152493352,0.1456660896716785,638.8841920999694,72,23,female,True
176,0.17,25,down,down,0.7350059000309557,1.8427703918690028,,psi_staircase,cRDM,,0.0692522044368758,0.0787751983120195,0.1442619666450631,641.8507882999838,72,23,female,True
177,0.11,25,down,down,0.7028197000036016,1.1369740893455689,,psi_staircase,cRDM,,0.0674797293187252,0.0769145218538646,0.1429258218426445,643.9840149999945,72,23,female,True
178,0.17,25,down,down,0.8078712999704294,1.4909697063980851,,psi_staircase,cRDM,,0.0646929186385417,0.0741296543294652,0.1429552583285414,646.4339327999623,72,23,female,True
179,0.12,25,up,up,0.5669097999925725,1.3348592153961556,,psi_staircase,cRDM,,0.0631387959399956,0.0724854613475571,0.1415908012697172,648.833845999965,72,23,female,True
180,0.15,25,up,up,0.6230041000526398,0.7235851497367436,,psi_staircase,cRDM,,0.0608268799781861,0.0701410886924598,0.1410991211882332,650.3837805999792,72,23,female,True
181,0.15,25,up,up,0.7947042000014335,1.155826833678458,,psi_staircase,cRDM,,0.0591815388821899,0.0684157991103388,0.1398879972507551,652.4170651999884,72,23,female,True
182,145.0,25,F,up,0.90622840001015,0.986800909754445,,experiment,emotion,0.0,,,,658.3834688999923,72,23,female,True
183,131.0,25,M,up,0.781375799968373,0.5070962088423415,,experiment,emotion,0.0,,,,660.1004207999795,72,23,female,True
184,140.0,25,F,up,0.6743626999668777,0.42172945831009,,experiment,emotion,0.0,,,,661.5833893999807,72,23,female,True
185,145.0,25,M,up,0.6527835000306368,0.6241191503586538,,experiment,emotion,0.0,,,,663.1499800999882,72,23,female,True
186,140.0,25,F,down,0.5999747000169009,1.626252134322561,,experiment,emotion,0.0,,,,665.6998084999504,72,23,female,True
187,136.0,25,F,down,0.5233240999514237,1.1227104874269862,,experiment,emotion,0.0,,,,667.7165223999764,72,23,female,True
188,131.0,25,M,down,0.5824132999987341,1.7024908934213128,,experiment,emotion,0.0,,,,670.2164036000031,72,23,female,True
189,136.0,25,F,down,0.7314206999726593,0.5092170179683605,,experiment,emotion,0.0,,,,671.5663584999857,72,23,female,True
190,145.0,25,M,up,0.86784219997935,0.9784668825551162,,experiment,emotion,0.0,,,,673.5329173999489,72,23,female,True
191,136.0,25,M,down,0.9713542999816128,0.720876582002174,,experiment,emotion,0.0,,,,675.3994109999621,72,23,female,True
192,140.0,25,F,up,0.972624599991832,1.7311333727996934,,experiment,emotion,0.0,,,,678.3661366999731,72,23,female,True
193,145.0,25,M,up,0.7441118999850005,0.920907786557545,,experiment,emotion,0.0,,,,680.5326900999644,72,23,female,True
194,140.0,25,M,up,0.7395302000222728,1.3175162339592994,,experiment,emotion,0.0,,,,682.8492542000022,72,23,female,True
195,131.0,25,M,up,0.7732131999800913,1.315783217509892,,experiment,emotion,0.0,,,,685.1825415999629,72,23,female,True
196,136.0,25,F,up,0.7123577000456862,1.4583967217249636,,experiment,emotion,0.0,,,,687.6824078999925,72,23,female,True
197,131.0,25,F,up,0.7594291000277735,0.6098726110937823,,experiment,emotion,0.0,,,,689.2823525999556,72,23,female,True
198,145.0,25,M,up,0.6288018000195734,0.5014180335217242,,experiment,emotion,0.0,,,,690.8489808999584,72,23,female,True
199,131.0,25,M,up,0.6812290000380017,1.67555412279476,,experiment,emotion,0.0,,,,693.4155735999811,72,23,female,True
200,140.0,25,F,up,0.8663613999960944,1.642379173327241,,experiment,emotion,0.0,,,,696.015445899975,72,23,female,True
201,140.0,25,F,up,0.7176775999832898,0.532066757907552,,experiment,emotion,0.0,,,,697.682037099963,72,23,female,True
202,136.0,25,M,up,0.7271910000126809,1.6820465046641797,,experiment,emotion,0.0,,,,700.3486106999917,72,23,female,True
203,136.0,25,F,up,0.7682060999795794,0.6177320444639379,,experiment,emotion,0.0,,,,701.9485580999753,72,23,female,True
204,131.0,25,M,up,0.8349570999853313,1.578851971774862,,experiment,emotion,0.0,,,,704.5817946000025,72,23,female,True
205,145.0,25,F,up,0.8900070000090636,0.3478756777423351,,experiment,emotion,0.0,,,,706.0317470000009,72,23,female,True
206,140.0,25,F,up,0.8424494999926537,0.5989514400326454,,experiment,emotion,0.0,,,,707.7983357000048,72,23,female,True
207,131.0,25,M,up,0.8298153000068851,1.6538746380998854,,experiment,emotion,0.0,,,,710.5649118999718,72,23,female,True
208,145.0,25,M,up,0.9778877000208012,1.3469319233861483,,experiment,emotion,0.0,,,,713.0148496999755,72,23,female,True
209,145.0,25,F,up,0.6763365999795496,0.5127943420420542,,experiment,emotion,0.0,,,,714.7814143999713,72,23,female,True
210,136.0,25,M,up,0.7544405999942683,1.1366150721244557,,experiment,emotion,0.0,,,,716.8813370999997,72,23,female,True
211,131.0,25,F,up,0.8497671000077389,0.3296046694004105,,experiment,emotion,0.0,,,,718.2479687999585,72,23,female,True
212,136.0,25,M,up,0.7189069000305608,0.3819386391650102,,experiment,emotion,0.0,,,,719.7479123999947,72,23,female,True
213,140.0,25,F,up,0.7692965000169352,0.633558333438889,,experiment,emotion,0.0,,,,721.3645140999579,72,23,female,True
214,131.0,25,M,down,0.8203358000027947,0.963216487764076,,experiment,emotion,0.0,,,,723.3644399999757,72,23,female,True
215,145.0,25,F,up,0.6957485000020824,1.2818390403438686,,experiment,emotion,0.0,,,,725.7310520999599,72,23,female,True
216,140.0,25,M,up,0.6634555999771692,0.8740857123948227,,experiment,emotion,0.0,,,,727.5642953999923,72,23,female,True
217,145.0,25,F,up,0.6665512000326999,1.6639259519450844,,experiment,emotion,0.0,,,,730.1641820999794,72,23,female,True
218,131.0,25,M,up,0.659308800008148,0.5477215405323742,,experiment,emotion,0.0,,,,731.647465099988,72,23,female,True
219,140.0,25,F,up,0.7387069000396878,1.788309090746245,,experiment,emotion,0.0,,,,734.3640381000005,72,23,female,True
220,136.0,25,M,up,0.8428774999920279,1.8940934447298916,,experiment,emotion,0.0,,,,737.2639123999979,72,23,female,True
221,136.0,25,F,up,0.7125447999569587,1.1759803463143912,,experiment,emotion,0.0,,,,739.5472265999997,72,23,female,True
222,140.0,25,F,up,0.8573101999936625,1.1084607944184082,,experiment,emotion,0.0,,,,741.6304309999687,72,23,female,True
223,145.0,25,M,up,0.9037380000227132,1.6740877781193513,,experiment,emotion,0.0,,,,744.447049499955,72,23,female,True
224,136.0,25,F,up,0.8278969000093639,1.72675495156787,,experiment,emotion,0.0,,,,747.346882599988,72,23,female,True
225,131.0,25,M,up,1.5781448999769054,1.9185523494436032,,experiment,emotion,0.0,,,,750.3966349999537,72,23,female,True
226,131.0,25,M,up,0.8930780999944545,0.8440216858223819,,experiment,emotion,0.0,,,,753.0966718999553,72,23,female,True
227,136.0,25,F,up,0.8688057999825105,0.9589258948927128,,experiment,emotion,0.0,,,,755.2299347999506,72,23,female,True
228,145.0,25,F,up,0.6689159999950789,0.594482033139082,,experiment,emotion,0.0,,,,756.9798605999677,72,23,female,True
229,140.0,25,M,up,0.7438002999988385,1.5717148673601138,,experiment,emotion,0.0,,,,759.5129370999639,72,23,female,True
230,131.0,25,F,up,0.7883233000175096,0.3832692683672324,,experiment,emotion,0.0,,,,760.8963762999629,72,23,female,True
231,145.0,25,M,up,0.8464608000358567,0.8901619037220436,,experiment,emotion,0.0,,,,762.8463190000039,72,23,female,True
232,140.0,25,M,up,0.8468351000337861,0.7044728114483345,,experiment,emotion,0.0,,,,764.6629161000019,72,23,female,True
233,140.0,25,M,up,0.7793099000118673,1.3047866656889668,,experiment,emotion,0.0,,,,767.0794710000046,72,23,female,True
234,131.0,25,M,down,1.224346400005743,1.45157965560956,,experiment,emotion,0.0,,,,769.5794034999562,72,23,female,True
235,136.0,25,M,up,0.6844915000256151,1.4972456082231418,,experiment,emotion,0.0,,,,772.579297099961,72,23,female,True
236,145.0,25,F,up,0.5912222000188194,1.8273769228672416,,experiment,emotion,0.0,,,,775.362523799995,72,23,female,True
237,136.0,25,F,up,0.5099545999546535,1.518957729292347,,experiment,emotion,0.0,,,,777.7457997999736,72,23,female,True
238,136.0,25,F,up,0.4370834999717772,1.51476065500323,,experiment,emotion,0.0,,,,780.0456864999724,72,23,female,True
239,136.0,25,M,up,0.693766099982895,0.4782160597457839,,experiment,emotion,0.0,,,,781.2289774999954,72,23,female,True
240,145.0,25,F,up,0.5968589000403881,0.8303850661360817,,experiment,emotion,0.0,,,,783.0289164999849,72,23,female,True
241,140.0,25,F,up,0.3501676999730989,1.2367738316861363,,experiment,emotion,0.0,,,,785.1621699999669,72,23,female,True
242,131.0,25,F,up,0.4220582999987528,1.126775193274674,,experiment,emotion,0.0,,,,786.9956884999992,72,23,female,True
243,131.0,25,M,up,0.6130731999874115,1.933895227293025,,experiment,emotion,0.0,,,,789.6286768999998,72,23,female,True
244,140.0,25,F,up,0.492226300004404,0.8721609309431355,,experiment,emotion,0.0,,,,791.3955264999531,72,23,female,True
245,145.0,25,M,up,0.2668247999972664,1.847971910548496,,experiment,emotion,0.0,,,,794.0118441999657,72,23,female,True
246,145.0,25,M,up,0.525698299985379,0.7471576982763929,,experiment,emotion,0.0,,,,795.4451047999901,72,23,female,True
247,131.0,25,F,up,0.3001715000136755,1.6108244309151518,,experiment,emotion,0.0,,,,797.8450487999944,72,23,female,True
248,145.0,25,M,up,0.540751900000032,0.4115270179816375,,experiment,emotion,0.0,,,,798.9450004999526,72,23,female,True
249,136.0,25,F,up,0.5171872000209987,0.544882436639816,,experiment,emotion,0.0,,,,800.3116009999649,72,23,female,True
250,140.0,25,M,up,0.3168222000240348,0.5735487952958227,,experiment,emotion,0.0,,,,801.6615491999546,72,23,female,True
251,136.0,25,F,up,0.4002553999889642,1.0633173848304116,,experiment,emotion,0.0,,,,803.4114862999995,72,23,female,True
252,131.0,25,M,up,0.3166666000033729,1.5828522938431806,,experiment,emotion,0.0,,,,805.6780810999917,72,23,female,True
253,140.0,25,F,up,0.2668441000278108,1.622320078531381,,experiment,emotion,0.0,,,,807.9779851000058,72,23,female,True
254,136.0,25,F,up,0.4167812000378035,0.4633251403997657,,experiment,emotion,0.0,,,,809.1279420999927,72,23,female,True
255,140.0,25,F,up,0.2002237999695353,1.2826865944853874,,experiment,emotion,0.0,,,,811.0944165999535,72,23,female,True
256,131.0,25,F,up,0.2501756999990903,1.1753180682093154,,experiment,emotion,0.0,,,,812.9611415999825,72,23,female,True
257,145.0,25,F,up,0.4766908000456169,0.4979063943318073,,experiment,emotion,0.0,,,,814.1610801999923,72,23,female,True
258,140.0,25,M,up,0.5366884000250138,0.5905554987955748,,experiment,emotion,0.0,,,,815.5110451999935,72,23,female,True
259,145.0,25,M,up,0.3168317999807186,0.8493324176502748,,experiment,emotion,0.0,,,,817.1609988999553,72,23,female,True
260,131.0,25,M,up,0.3334732000366784,0.3991546735604617,,experiment,emotion,0.0,,,,818.244295099983,72,23,female,True
261,136.0,25,M,up,0.4435035000205971,0.4173446425797155,,experiment,emotion,0.0,,,,819.3442411999567,72,23,female,True
262,0.0576427606711273,25,up,down,0.7151557999895886,0.3853661425554736,,experiment,cRDM,0.0,,,,823.3106309999712,72,23,female,True
263,0.0576427606711273,25,up,up,0.6847649000119418,1.5448784589405886,,experiment,cRDM,0.0,,,,825.8440016999957,72,23,female,True
264,0.0576427606711273,25,down,down,0.5750151000102051,1.922482783418508,,experiment,cRDM,0.0,,,,828.6937124999822,72,23,female,True
265,0.0576427606711273,25,down,down,0.7592282999539748,1.1449260912941124,,experiment,cRDM,0.0,,,,830.660488399968,72,23,female,True
266,0.0576427606711273,25,up,down,0.8372406999696977,0.5207422911408999,,experiment,cRDM,0.0,,,,832.2104882999556,72,23,female,True
267,0.0576427606711273,25,down,down,0.7087502999929711,1.7680689052573035,,experiment,cRDM,0.0,,,,835.076989299967,72,23,female,True
268,0.0576427606711273,25,up,down,1.0358593999990262,1.3266178247986156,,experiment,cRDM,0.0,,,,837.3768956999993,72,23,female,True
269,0.0576427606711273,25,up,up,1.0730268000042995,0.7965554810008653,,experiment,cRDM,0.0,,,,839.4767277999781,72,23,female,True
270,0.0576427606711273,25,down,down,0.7250817999592982,1.9636622367235037,,experiment,cRDM,0.0,,,,842.7766976999701,72,23,female,True
271,0.0576427606711273,25,down,down,1.006151800043881,1.8120060330039296,,experiment,cRDM,0.0,,,,845.5766177999903,72,23,female,True
272,0.0576427606711273,25,down,down,1.0595296999672428,0.602363868732309,,experiment,cRDM,0.0,,,,847.4431983999675,72,23,female,True
273,0.0576427606711273,25,down,up,0.6933183000073768,1.512615874255941,,experiment,cRDM,0.0,,,,850.2764210999594,72,23,female,True
274,0.0576427606711273,25,down,down,0.7979907999979332,1.470922350063398,,experiment,cRDM,0.0,,,,852.7097417999757,72,23,female,True
275,0.0576427606711273,25,down,down,0.7458137000212446,1.1694394794238463,,experiment,cRDM,0.0,,,,854.9429203000036,72,23,female,True
276,0.0576427606711273,25,up,down,0.804198500001803,0.5976112459466166,,experiment,cRDM,0.0,,,,856.5595311999787,72,23,female,True
277,0.0576427606711273,25,up,down,0.7270714000333101,0.6574210009272752,,experiment,cRDM,0.0,,,,858.2926676999778,72,23,female,True
278,0.0576427606711273,25,up,down,0.7081856000004336,1.525137872003642,,experiment,cRDM,0.0,,,,860.7925509999623,72,23,female,True
279,0.0576427606711273,25,up,down,0.7294757000054233,1.9417506592897955,,experiment,cRDM,0.0,,,,863.7092918999842,72,23,female,True
280,0.0576427606711273,25,down,down,0.8975692999665625,0.8066945924386539,,experiment,cRDM,0.0,,,,865.5092309999745,72,23,female,True
281,0.0576427606711273,25,up,down,0.8789342999807559,1.8569057931849136,,experiment,cRDM,0.0,,,,868.525748999964,72,23,female,True
282,0.0576427606711273,25,up,down,0.8876831000088714,0.9367956174074414,,experiment,cRDM,0.0,,,,870.6090488999616,72,23,female,True
283,0.0576427606711273,25,down,down,0.9767831999924964,1.8401911651332816,,experiment,cRDM,0.0,,,,873.6089457999915,72,23,female,True
284,0.0576427606711273,25,up,down,0.8852825000067241,1.834610591446304,,experiment,cRDM,0.0,,,,876.6754522999981,72,23,female,True
285,0.0576427606711273,25,down,down,0.8293917999835685,1.559941488572174,,experiment,cRDM,0.0,,,,879.3753369000042,72,23,female,True
286,0.0576427606711273,25,down,down,0.7470919000334106,0.895012633393633,,experiment,cRDM,0.0,,,,881.3586322999909,72,23,female,True
287,0.0576427606711273,25,up,down,0.9611615000176243,1.4541121572854276,,experiment,cRDM,0.0,,,,883.8085483000032,72,23,female,True
288,0.0576427606711273,25,up,down,0.846274400013499,1.7658704937189644,,experiment,cRDM,0.0,,,,886.808453399979,72,23,female,True
289,0.0576427606711273,25,down,down,0.7967869999702089,1.846014151076936,,experiment,cRDM,0.0,,,,889.7749545999686,72,23,female,True
290,0.0576427606711273,25,up,down,0.9077856999938376,1.7771411333911633,,experiment,cRDM,0.0,,,,892.6249259999604,72,23,female,True
291,0.0576427606711273,25,down,down,0.9320218000211752,1.2818277030263383,,experiment,cRDM,0.0,,,,895.0747386000003,72,23,female,True
292,0.0576427606711273,25,down,down,0.9160255999886432,0.6433958046454833,,experiment,cRDM,0.0,,,,896.9247050999547,72,23,female,True
293,0.0576427606711273,25,down,down,0.9772544999723324,1.075334846349533,,experiment,cRDM,0.0,,,,899.1744990999578,72,23,female,True
294,0.0576427606711273,25,up,down,0.7642433000146411,0.6634739325042345,,experiment,cRDM,0.0,,,,901.0745493999566,72,23,female,True
295,0.0576427606711273,25,up,down,0.6035728999995627,1.5956755790190622,,experiment,cRDM,0.0,,,,903.691151099978,72,23,female,True
296,0.0576427606711273,25,up,up,0.9250202999683096,1.6383504902838093,,experiment,cRDM,0.0,,,,906.207700799976,72,23,female,True
297,0.0576427606711273,25,down,down,1.2661311999545433,1.7515941991495303,,experiment,cRDM,0.0,,,,909.1575916999718,72,23,female,True
298,0.0576427606711273,25,down,down,1.0140019999817014,1.6983303304419275,,experiment,cRDM,0.0,,,,912.3907126999692,72,23,female,True
299,0.0576427606711273,25,up,down,0.7753241999889724,1.239497570119152,,experiment,cRDM,0.0,,,,914.9073964999988,72,23,female,True
300,0.0576427606711273,25,down,down,1.082376500009559,1.161262712558725,,experiment,cRDM,0.0,,,,917.1073390999808,72,23,female,True
301,0.0576427606711273,25,up,down,0.937498199986294,0.8908251953967392,,experiment,cRDM,0.0,,,,919.3572360999532,72,23,female,True
302,0.0576427606711273,25,up,down,0.9942469999659806,1.682488239228374,,experiment,cRDM,0.0,,,,922.2404711999698,72,23,female,True
303,0.0576427606711273,25,up,up,0.8650545999989845,0.880866229080018,,experiment,cRDM,0.0,,,,924.3737287999828,72,23,female,True
304,0.0576427606711273,25,down,down,0.897764100052882,1.355446079992214,,experiment,cRDM,0.0,,,,926.8569425999884,72,23,female,True
305,0.0576427606711273,25,down,down,1.4022338000359014,1.665060393475828,,experiment,cRDM,0.0,,,,929.673486099986,72,23,female,True
306,0.0576427606711273,25,up,up,1.0213118999963626,1.2364796796136628,,experiment,cRDM,0.0,,,,932.5733645999572,72,23,female,True
307,0.0576427606711273,25,down,down,1.0320574000361376,0.8086341568900075,,experiment,cRDM,0.0,,,,934.6566603999818,72,23,female,True
308,0.0576427606711273,25,down,down,0.9371231000404804,0.4976972499869176,,experiment,cRDM,0.0,,,,936.4565943999914,72,23,female,True
309,0.0576427606711273,25,up,down,1.1368511999608018,1.5769449192570557,,experiment,cRDM,0.0,,,,939.239843999967,72,23,female,True
310,0.0576427606711273,25,up,up,0.9483308999915608,1.3600108204746404,,experiment,cRDM,0.0,,,,942.0064144999488,72,23,female,True
311,0.0576427606711273,25,down,up,1.0140913000213914,1.1133869065048156,,experiment,cRDM,0.0,,,,944.3396459999494,72,23,female,True
312,0.0576427606711273,25,up,down,0.8304549000458792,0.6853112375942519,,experiment,cRDM,0.0,,,,946.3062596999808,72,23,female,True
313,0.0576427606711273,25,down,down,0.9676247999886982,1.9536875926377355,,experiment,cRDM,0.0,,,,949.3561116000056,72,23,female,True
314,0.0576427606711273,25,down,down,0.9930394000257364,1.1959835262329226,,experiment,cRDM,0.0,,,,951.7726790999876,72,23,female,True
315,0.0576427606711273,25,down,down,1.0345760000054725,0.3638936580503483,,experiment,cRDM,0.0,,,,953.3891548999818,72,23,female,True
316,0.0576427606711273,25,up,down,0.8808291999739595,1.4032025873411125,,experiment,cRDM,0.0,,,,956.1058930999716,72,23,female,True
317,0.0576427606711273,25,up,down,0.7466054999968037,1.394596922336088,,experiment,cRDM,0.0,,,,958.6391148999684,72,23,female,True
318,0.0576427606711273,25,down,down,1.2587002999498509,1.287577634006013,,experiment,cRDM,0.0,,,,960.939010299975,72,23,female,True
319,0.0576427606711273,25,down,down,0.8514741000253707,1.922911886965802,,experiment,cRDM,0.0,,,,964.3722386999872,72,23,female,True
320,0.0576427606711273,25,up,down,0.9565989000257104,1.6792412387891222,,experiment,cRDM,0.0,,,,967.17211699998,72,23,female,True
321,0.0576427606711273,25,up,down,0.8859957000240684,1.744300958394031,,experiment,cRDM,0.0,,,,970.1387434999924,72,23,female,True
322,0.0576427606711273,25,up,down,1.177305500023067,1.7898823679130835,,experiment,cRDM,0.0,,,,973.0884111999768,72,23,female,True
323,0.0576427606711273,25,up,up,1.0349216000176966,1.7948400263387765,,experiment,cRDM,0.0,,,,976.321794699994,72,23,female,True
324,0.0576427606711273,25,up,down,0.9571248999563976,0.9416496779045422,,experiment,cRDM,0.0,,,,978.5715853999718,72,23,female,True
325,0.0576427606711273,25,down,down,1.32851349998964,1.599041580981657,,experiment,cRDM,0.0,,,,981.3882844999898,72,23,female,True
326,0.0576427606711273,25,down,down,1.470418900018558,1.507027825721334,,experiment,cRDM,0.0,,,,984.471293999988,72,23,female,True
327,0.0576427606711273,25,up,down,1.470980400044937,1.5005581936560988,,experiment,cRDM,0.0,,,,987.7047279999824,72,23,female,True
328,0.0576427606711273,25,down,down,0.7881082000094466,1.671489482956955,,experiment,cRDM,0.0,,,,991.104600199964,72,23,female,True
329,0.0576427606711273,25,down,down,0.8788366000517271,0.7315645029364729,,experiment,cRDM,0.0,,,,992.8878557999852,72,23,female,True
330,0.0576427606711273,25,down,down,0.8542790999636054,1.2716963711451663,,experiment,cRDM,0.0,,,,995.3044367999536,72,23,female,True
331,0.0576427606711273,25,up,up,1.1537283000070602,0.8378893278181805,,experiment,cRDM,0.0,,,,997.2709888999816,72,23,female,True
332,0.0576427606711273,25,down,down,0.8937623999663629,1.4355727410070582,,experiment,cRDM,0.0,,,,1000.120942999958,72,23,female,True
333,0.0576427606711273,25,down,down,1.3839000000152737,1.289006499878036,,experiment,cRDM,0.0,,,,1002.5708070999826,72,23,female,True
334,0.0576427606711273,25,down,down,1.2084126999834552,0.6690120788284812,,experiment,cRDM,0.0,,,,1004.8872921000002,72,23,female,True
335,0.0576427606711273,25,up,down,1.1187682999880053,1.7619832392737544,,experiment,cRDM,0.0,,,,1008.103962299996,72,23,female,True
336,0.0576427606711273,25,up,up,0.8585287000169046,1.5475352911470808,,experiment,cRDM,0.0,,,,1011.03718069999,72,23,female,True
337,0.0576427606711273,25,down,down,0.8296786999562755,1.3254947129799994,,experiment,cRDM,0.0,,,,1013.4870308999672,72,23,female,True
338,0.0576427606711273,25,up,down,0.9014153000316584,1.935453437605953,,experiment,cRDM,0.0,,,,1016.52031599998,72,23,female,True
339,0.0576427606711273,25,down,down,0.8468061000457965,1.047562205463204,,experiment,cRDM,0.0,,,,1018.736903299985,72,23,female,True
340,0.0576427606711273,25,up,down,0.8815889999968931,1.9768687188022944,,experiment,cRDM,0.0,,,,1021.8201166999644,72,23,female,True
341,0.0576427606711273,25,up,down,0.8817843999713659,1.3110905967709114,,experiment,cRDM,0.0,,,,1024.270017599978,72,23,female,True
342,145.0,25,M,up,0.84400410001399,1.1052538687842497,,experiment,emotion,1.0,,,,1033.41970139998,72,23,female,True
343,131.0,25,M,up,0.6834816999617033,1.510881330171224,,experiment,emotion,1.0,,,,1036.0362295999655,72,23,female,True
344,140.0,25,F,up,0.5692289999569766,1.806743128338405,,experiment,emotion,1.0,,,,1038.8194745999645,72,23,female,True
345,145.0,25,F,up,0.7403354999842122,1.1172657025590564,,experiment,emotion,1.0,,,,1040.7694038999616,72,23,female,True
346,140.0,25,M,up,0.7046964000328444,0.943515599464434,,experiment,emotion,1.0,,,,1042.736003500002,72,23,female,True
347,136.0,25,F,up,0.3667754000052809,0.5899914929734349,,experiment,emotion,1.0,,,,1044.319267899962,72,23,female,True
348,131.0,25,M,down,0.7051929999724962,1.91048130393463,,experiment,emotion,1.0,,,,1046.9025134999538,72,23,female,True
349,136.0,25,M,down,0.7002751000109129,1.3129773283314223,,experiment,emotion,1.0,,,,1049.2024300000048,72,23,female,True
350,145.0,25,F,up,0.6680112000321969,0.5660468392469773,,experiment,emotion,1.0,,,,1050.735689299996,72,23,female,True
351,136.0,25,F,up,0.6788109999615699,0.7042688379980555,,experiment,emotion,1.0,,,,1052.3859043999691,72,23,female,True
352,140.0,25,F,up,0.4708341999794356,1.2159111004014238,,experiment,emotion,1.0,,,,1054.5689101999742,72,23,female,True
353,145.0,25,F,up,1.480295000015758,1.990360033080771,,experiment,emotion,1.0,,,,1057.2853700999983,72,23,female,True
354,140.0,25,F,up,0.8080250000348315,1.633122834328454,,experiment,emotion,1.0,,,,1060.6686711999937,72,23,female,True
355,131.0,25,F,up,0.6698104000533931,1.290643396037077,,experiment,emotion,1.0,,,,1063.0519569999888,72,23,female,True
356,136.0,25,M,up,1.0081838000332937,1.2867101201126874,,experiment,emotion,1.0,,,,1065.2685124999844,72,23,female,True
357,131.0,25,M,up,0.7816152999876067,1.391549072564438,,experiment,emotion,1.0,,,,1067.9350705999532,72,23,female,True
358,145.0,25,M,up,0.3001718000159599,1.89316458376994,,experiment,emotion,1.0,,,,1070.8683431999525,72,23,female,True
359,131.0,25,M,up,0.4358519000234082,1.993470527334615,,experiment,emotion,1.0,,,,1073.5348564999877,72,23,female,True
360,140.0,25,F,up,0.7132679999922402,1.687524271961392,,experiment,emotion,1.0,,,,1075.951432699978,72,23,female,True
361,140.0,25,M,up,0.7976838999893516,0.8254350053652992,,experiment,emotion,1.0,,,,1077.767996099952,72,23,female,True
362,136.0,25,M,down,0.9067297000437976,1.5701589540272478,,experiment,emotion,1.0,,,,1080.4179530999972,72,23,female,True
363,136.0,25,F,up,0.9351819000439718,1.32796935489923,,experiment,emotion,1.0,,,,1082.9345175999915,72,23,female,True
364,131.0,25,M,down,0.8770823000231758,1.9419744128792584,,experiment,emotion,1.0,,,,1086.067629600002,72,23,female,True
365,145.0,25,F,up,1.0076900999993086,1.6737390684435371,,experiment,emotion,1.0,,,,1088.901006,72,23,female,True
366,140.0,25,F,up,0.8098142999806441,1.6291740728994046,,experiment,emotion,1.0,,,,1091.8008813000051,72,23,female,True
367,131.0,25,M,up,0.7142221999820322,0.4352796859017958,,experiment,emotion,1.0,,,,1093.3174705999554,72,23,female,True
368,145.0,25,M,up,0.6972813000320457,0.3178061335143448,,experiment,emotion,1.0,,,,1094.6174388999934,72,23,female,True
369,145.0,25,F,up,0.744990199978929,0.4276635868714427,,experiment,emotion,1.0,,,,1096.0007108999998,72,23,female,True
370,136.0,25,M,up,0.4001798999961465,1.2230892360146066,,experiment,emotion,1.0,,,,1098.250614899967,72,23,female,True
371,131.0,25,F,up,0.4564719999907538,0.921236058499008,,experiment,emotion,1.0,,,,1099.867229599971,72,23,female,True
372,136.0,25,F,up,0.7372379999724217,1.710761345763081,,experiment,emotion,1.0,,,,1102.3004718999728,72,23,female,True
373,140.0,25,F,up,0.663580099993851,0.5497437763918416,,experiment,emotion,1.0,,,,1103.867097499955,72,23,female,True
374,131.0,25,M,up,0.6933562000049278,1.1186162243307158,,experiment,emotion,1.0,,,,1105.900339099986,72,23,female,True
375,145.0,25,M,up,0.7314340000157245,0.9670911076720567,,experiment,emotion,1.0,,,,1107.850261899992,72,23,female,True
376,140.0,25,M,up,0.8148322000051849,0.6717518758066199,,experiment,emotion,1.0,,,,1109.516862999997,72,23,female,True
377,145.0,25,F,up,0.9872251999913716,0.6911710354398282,,experiment,emotion,1.0,,,,1111.2834779999685,72,23,female,True
378,131.0,25,F,up,1.075958699977491,0.8813272098536455,,experiment,emotion,1.0,,,,1113.4167421999737,72,23,female,True
379,140.0,25,M,up,0.8696816000156105,0.535078220147313,,experiment,emotion,1.0,,,,1115.3000082999934,72,23,female,True
380,136.0,25,F,up,0.8951686999644153,1.2502913139599223,,experiment,emotion,1.0,,,,1117.7165741999634,72,23,female,True
381,136.0,25,M,down,0.914744600013364,0.3058077000072787,,experiment,emotion,1.0,,,,1119.1829856999684,72,23,female,True
382,140.0,25,M,up,0.7032378999865614,0.8449724226775592,,experiment,emotion,1.0,,,,1121.2164535999764,72,23,female,True
383,145.0,25,M,down,0.7513342999736778,1.0338853068645966,,experiment,emotion,1.0,,,,1123.216358799953,72,23,female,True
384,136.0,25,F,up,0.7454581000492908,1.6741958025800006,,experiment,emotion,1.0,,,,1125.9162689999794,72,23,female,True
385,131.0,25,F,down,0.6039476000005379,1.324911748489504,,experiment,emotion,1.0,,,,1128.2826909999712,72,23,female,True
386,131.0,25,M,up,0.9175970000214876,1.2931565967152845,,experiment,emotion,1.0,,,,1130.4660887999926,72,23,female,True
387,136.0,25,F,down,0.5920225000008941,1.7647059302115422,,experiment,emotion,1.0,,,,1133.4326648999704,72,23,female,True
388,145.0,25,F,up,0.7197715000365861,1.3042703056784528,,experiment,emotion,1.0,,,,1135.6159167999867,72,23,female,True
389,140.0,25,M,up,0.7645289999782108,1.448527002402935,,experiment,emotion,1.0,,,,1138.04915539996,72,23,female,True
390,131.0,25,M,down,0.6233264000038616,1.9304336412484489,,experiment,emotion,1.0,,,,1141.0323659999997,72,23,female,True
391,145.0,25,F,down,1.0237049999996088,1.527521849218583,,experiment,emotion,1.0,,,,1143.448989299999,72,23,female,True
392,140.0,25,M,down,0.8258134000352584,1.7977056041899249,,experiment,emotion,1.0,,,,1146.5488636999507,72,23,female,True
393,140.0,25,F,up,0.8839260999811813,0.892556649051377,,experiment,emotion,1.0,,,,1148.5487820999697,72,23,female,True
394,131.0,25,F,down,0.914333099965006,1.3046180877009002,,experiment,emotion,1.0,,,,1151.015346399974,72,23,female,True
395,136.0,25,F,down,0.6480387999908999,0.4870458596748098,,experiment,emotion,1.0,,,,1152.698648199963,72,23,female,True
396,145.0,25,M,up,0.8061650000163354,0.8771000332440575,,experiment,emotion,1.0,,,,1154.4985188999565,72,23,female,True
397,136.0,25,M,up,0.9502340999897568,1.6072864482704068,,experiment,emotion,1.0,,,,1157.198458799976,72,23,female,True
398,136.0,25,F,up,0.6853222000063397,1.282755847909577,,experiment,emotion,1.0,,,,1159.6983498999616,72,23,female,True
399,136.0,25,F,down,0.6503652000101283,1.59015509387991,,experiment,emotion,1.0,,,,1162.2483091999893,72,23,female,True
400,145.0,25,M,up,0.7742154000443406,1.7056036710386149,,experiment,emotion,1.0,,,,1164.881457599986,72,23,female,True
401,140.0,25,M,down,0.6286059999838471,0.860444413045713,,experiment,emotion,1.0,,,,1166.7980948999757,72,23,female,True
402,131.0,25,M,down,0.7613028999767266,0.7214563394355242,,experiment,emotion,1.0,,,,1168.4313672999851,72,23,female,True
403,131.0,25,M,down,0.5744236999889836,1.665653528466822,,experiment,emotion,1.0,,,,1171.1312640999677,72,23,female,True
404,140.0,25,M,down,0.6324378999997862,0.3648974329710269,,experiment,emotion,1.0,,,,1172.3312253999757,72,23,female,True
405,145.0,25,F,up,0.712896200013347,1.4020301925533585,,experiment,emotion,1.0,,,,1174.6478059999645,72,23,female,True
406,145.0,25,F,up,0.8813092000200413,1.2229331052813333,,experiment,emotion,1.0,,,,1176.8643760999548,72,23,female,True
407,131.0,25,M,down,0.7704627999919467,1.8484377774670129,,experiment,emotion,1.0,,,,1179.8642596999998,72,23,female,True
408,145.0,25,F,down,0.4637796000461094,0.7707691226753617,,experiment,emotion,1.0,,,,1181.680886099988,72,23,female,True
409,136.0,25,F,up,0.63487799995346,0.7585362496691429,,experiment,emotion,1.0,,,,1183.1808308999753,72,23,female,True
410,140.0,25,F,up,0.5666590000037104,1.7035312897808392,,experiment,emotion,1.0,,,,1185.8140671,72,23,female,True
411,136.0,25,M,up,0.4793802000349387,1.498360958353108,,experiment,emotion,1.0,,,,1188.1472985,72,23,female,True
412,131.0,25,F,down,0.7351309000514448,1.5227811184577422,,experiment,emotion,1.0,,,,1190.4305497999885,72,23,female,True
413,140.0,25,F,up,0.7449662999715656,0.5340893039146345,,experiment,emotion,1.0,,,,1191.9637304999633,72,23,female,True
414,136.0,25,F,down,0.6739490999607369,1.3317196635397104,,experiment,emotion,1.0,,,,1194.313749199966,72,23,female,True
415,140.0,25,M,up,0.6513202000060119,0.5150323443120866,,experiment,emotion,1.0,,,,1195.7803548999946,72,23,female,True
416,131.0,25,M,up,0.7363874000147916,1.0886181595005693,,experiment,emotion,1.0,,,,1197.7802896999638,72,23,female,True
417,145.0,25,F,up,0.5605072999605909,0.3948585361769623,,experiment,emotion,1.0,,,,1199.1802340999711,72,23,female,True
418,140.0,25,M,up,0.5797737999819219,0.3806343431451164,,experiment,emotion,1.0,,,,1200.3968568999553,72,23,female,True
419,145.0,25,F,up,0.283509100030642,0.7125549554150489,,experiment,emotion,1.0,,,,1201.946796299948,72,23,female,True
420,131.0,25,M,up,0.300189399975352,0.3758869897752382,,experiment,emotion,1.0,,,,1203.0134050999768,72,23,female,True
421,136.0,25,M,,,1.4136703989695707,,experiment,emotion,1.0,,,,1205.1466676999698,72,23,female,True
422,0.0576427606711273,25,up,up,1.3082199999480508,1.7310358115042417,,experiment,cRDM,1.0,,,,1219.629484199977,72,23,female,True
423,0.0576427606711273,25,up,down,0.7966486999648623,1.8979374859058031,,experiment,cRDM,1.0,,,,1223.0960235999664,72,23,female,True
424,0.0576427606711273,25,down,down,0.8070575000019744,0.7055705123816555,,experiment,cRDM,1.0,,,,1224.862613299978,72,23,female,True
425,0.0576427606711273,25,down,down,0.6384747999836691,0.5021668868051086,,experiment,cRDM,1.0,,,,1226.4292293000035,72,23,female,True
426,0.0576427606711273,25,up,down,0.6396282000350766,0.9486953217330668,,experiment,cRDM,1.0,,,,1228.2790463999845,72,23,female,True
427,0.0576427606711273,25,down,down,0.7583154999883845,1.6348441014178554,,experiment,cRDM,1.0,,,,1230.812408800004,72,23,female,True
428,0.0576427606711273,25,up,up,0.9266586999874562,1.5459130496268274,,experiment,cRDM,1.0,,,,1233.3790141999489,72,23,female,True
429,0.0576427606711273,25,up,down,0.7041270000045188,1.4784315543954407,,experiment,cRDM,1.0,,,,1236.045545400004,72,23,female,True
430,0.0576427606711273,25,down,down,0.7520646000048146,1.4651464072983518,,experiment,cRDM,1.0,,,,1238.4786251999903,72,23,female,True
431,0.0576427606711273,25,down,down,0.5750102999736555,0.4856497954771342,,experiment,cRDM,1.0,,,,1239.9786818999564,72,23,female,True
432,0.0576427606711273,25,down,down,0.7823265999904834,1.7927106989420498,,experiment,cRDM,1.0,,,,1242.595334899961,72,23,female,True
433,0.0576427606711273,25,down,up,0.7367606000043452,0.4683474334158639,,experiment,cRDM,1.0,,,,1244.1119033999855,72,23,female,True
434,0.0576427606711273,25,down,down,0.7668639000039548,0.744250199395049,,experiment,cRDM,1.0,,,,1245.8618479999714,72,23,female,True
435,0.0576427606711273,25,down,down,0.5865841999766417,1.2422083386245504,,experiment,cRDM,1.0,,,,1248.145089900005,72,23,female,True
436,0.0576427606711273,25,up,down,0.7419219999574125,1.1245933773493662,,experiment,cRDM,1.0,,,,1250.1117251999676,72,23,female,True
437,0.0576427606711273,25,up,down,0.69673279998824,1.4449978782497863,,experiment,cRDM,1.0,,,,1252.5449582999572,72,23,female,True
438,0.0576427606711273,25,up,up,0.6961419999715872,1.711248681662593,,experiment,cRDM,1.0,,,,1255.2115144999698,72,23,female,True
439,0.0576427606711273,25,up,up,0.9252003000001424,0.7923915433330347,,experiment,cRDM,1.0,,,,1256.9614249999868,72,23,female,True
440,0.0576427606711273,25,down,down,0.6266216000076383,0.8841289647110895,,experiment,cRDM,1.0,,,,1259.0280529999873,72,23,female,True
441,0.0576427606711273,25,up,up,0.6924544000066817,1.7458609651643922,,experiment,cRDM,1.0,,,,1261.6612429999514,72,23,female,True
442,0.0576427606711273,25,up,up,0.7764862000476569,0.4942542002126414,,experiment,cRDM,1.0,,,,1263.1112150999834,72,23,female,True
443,0.0576427606711273,25,down,down,0.6589900000253692,1.7326587101355049,,experiment,cRDM,1.0,,,,1265.8777136999995,72,23,female,True
444,0.0576427606711273,25,up,up,0.7316776000079699,0.7283704080234914,,experiment,cRDM,1.0,,,,1267.5110674999887,72,23,female,True
445,0.0576427606711273,25,down,down,0.7276998000452295,0.6051183979378492,,experiment,cRDM,1.0,,,,1269.1109857999836,72,23,female,True
446,0.0576427606711273,25,down,up,0.9743587999837472,1.8903391922188133,,experiment,cRDM,1.0,,,,1271.9942387999615,72,23,female,True
447,0.0576427606711273,25,up,up,0.6303796999854967,1.0318955687199107,,experiment,cRDM,1.0,,,,1274.2773370999494,72,23,female,True
448,0.0576427606711273,25,up,down,0.6494538999977522,1.1996909090879804,,experiment,cRDM,1.0,,,,1276.3772392999963,72,23,female,True
449,0.0576427606711273,25,down,down,0.5380072999978438,1.0225197829660668,,experiment,cRDM,1.0,,,,1278.3106620999752,72,23,female,True
450,0.0576427606711273,25,up,up,0.7993225999525748,1.345980016032024,,experiment,cRDM,1.0,,,,1280.4604070999776,72,23,female,True
451,0.0576427606711273,25,down,down,0.6317817000090145,0.3671897032585165,,experiment,cRDM,1.0,,,,1281.8938249999774,72,23,female,True
452,0.0576427606711273,25,down,down,0.5855121000204235,0.7859407699346661,,experiment,cRDM,1.0,,,,1283.577147999953,72,23,female,True
453,0.0576427606711273,25,down,up,0.6416395999840461,1.3610871581030854,,experiment,cRDM,1.0,,,,1285.77706199995,72,23,female,True
454,0.0576427606711273,25,up,up,0.9750139000243508,0.64985419112388,,experiment,cRDM,1.0,,,,1287.3436513000051,72,23,female,True
455,0.0576427606711273,25,up,down,1.0687986999982968,0.5573985899388582,,experiment,cRDM,1.0,,,,1289.126913599961,72,23,female,True
456,0.0576427606711273,25,up,up,0.9855468000168912,1.2621265083138782,,experiment,cRDM,1.0,,,,1291.710158999951,72,23,female,True
457,0.0576427606711273,25,down,down,0.6686386999790557,1.4833887127756964,,experiment,cRDM,1.0,,,,1294.460031399969,72,23,female,True
458,0.0576427606711273,25,down,down,0.9560026000253856,1.1797620549745222,,experiment,cRDM,1.0,,,,1296.5766625999822,72,23,female,True
459,0.0576427606711273,25,up,up,0.8261074999463744,1.4184628020321397,,experiment,cRDM,1.0,,,,1299.2265434999715,72,23,female,True
460,0.0576427606711273,25,down,down,0.5961890000035055,1.516332759768949,,experiment,cRDM,1.0,,,,1301.8264702999732,72,23,female,True
461,0.0576427606711273,25,up,up,0.7295989000122063,0.7665910878843998,,experiment,cRDM,1.0,,,,1303.443055199983,72,23,female,True
462,0.0576427606711273,25,up,down,0.7940469000022858,1.175859755756749,,experiment,cRDM,1.0,,,,1305.6096504000016,72,23,female,True
463,0.0576427606711273,25,up,up,0.6657818999956362,1.4614471937335791,,experiment,cRDM,1.0,,,,1308.1428789999918,72,23,female,True
464,0.0576427606711273,25,down,up,0.6172052000183612,1.9366368436237376,,experiment,cRDM,1.0,,,,1311.0094311999856,72,23,female,True
465,0.0576427606711273,25,down,down,0.6920288000255823,1.8432770475922289,,experiment,cRDM,1.0,,,,1313.7426535999984,72,23,female,True
466,0.0576427606711273,25,up,up,0.7045404000091366,1.2597236153739568,,experiment,cRDM,1.0,,,,1315.9591168999905,72,23,female,True
467,0.0576427606711273,25,down,down,1.0374749000184238,0.7893507097577681,,experiment,cRDM,1.0,,,,1317.7092105000047,72,23,female,True
468,0.0576427606711273,25,down,up,1.0158629000070505,1.2240903985457483,,experiment,cRDM,1.0,,,,1320.2257913999492,72,23,female,True
469,0.0576427606711273,25,up,down,0.7083311000023969,1.9837770485530768,,experiment,cRDM,1.0,,,,1323.4923074999824,72,23,female,True
470,0.0576427606711273,25,up,down,0.6017466000048444,1.5331535182397562,,experiment,cRDM,1.0,,,,1326.0089084999636,72,23,female,True
471,0.0576427606711273,25,down,down,0.6355935999890789,1.5695868831320308,,experiment,cRDM,1.0,,,,1328.4421264999546,72,23,female,True
472,0.0576427606711273,25,up,up,0.8422962999902666,1.896207618351733,,experiment,cRDM,1.0,,,,1331.2253625000012,72,23,female,True
473,0.0576427606711273,25,down,down,0.8547289000125602,1.1060356494845398,,experiment,cRDM,1.0,,,,1333.441923699982,72,23,female,True
474,0.0576427606711273,25,down,down,0.7752625999855809,0.3084496924841722,,experiment,cRDM,1.0,,,,1334.8583844999666,72,23,female,True
475,0.0576427606711273,25,down,down,0.8158391999895684,1.5945857662177938,,experiment,cRDM,1.0,,,,1337.4918188999873,72,23,female,True
476,0.0576427606711273,25,up,down,1.127467499987688,1.7785011163486817,,experiment,cRDM,1.0,,,,1340.3581888999906,72,23,female,True
477,0.0576427606711273,25,up,up,1.1200402000104075,0.8965028616863246,,experiment,cRDM,1.0,,,,1342.6416119999485,72,23,female,True
478,0.0576427606711273,25,down,down,0.6519922000006773,1.949882028816736,,experiment,cRDM,1.0,,,,1345.9746741999988,72,23,female,True
479,0.0576427606711273,25,down,down,0.7640409999876283,0.6906170572257053,,experiment,cRDM,1.0,,,,1347.574655299948,72,23,female,True
480,0.0576427606711273,25,up,down,0.73781829996733,1.5540307239007098,,experiment,cRDM,1.0,,,,1350.1578359999694,72,23,female,True
481,0.0576427606711273,25,up,down,0.7076975999516435,1.037696191091655,,experiment,cRDM,1.0,,,,1352.2079526999732,72,23,female,True
482,0.0576427606711273,25,up,up,0.9134380000177772,0.5645789022742032,,experiment,cRDM,1.0,,,,1353.7411908999784,72,23,female,True
483,0.0576427606711273,25,up,up,0.7102029999950901,1.0022982607808084,,experiment,cRDM,1.0,,,,1355.924448899983,72,23,female,True
484,0.0576427606711273,25,up,up,0.8036771999904886,1.5322071701905482,,experiment,cRDM,1.0,,,,1358.4410297999857,72,23,female,True
485,0.0576427606711273,25,down,down,1.3267056999611668,0.9425803402353894,,experiment,cRDM,1.0,,,,1360.44094999996,72,23,female,True
486,0.0576427606711273,25,down,down,0.68811220000498,0.3292309977628181,,experiment,cRDM,1.0,,,,1362.357541699952,72,23,female,True
487,0.0576427606711273,25,up,down,0.7421707000466995,0.5497407195317577,,experiment,cRDM,1.0,,,,1363.8574768999824,72,23,female,True
488,0.0576427606711273,25,down,down,1.180246600008104,1.7018674666161226,,experiment,cRDM,1.0,,,,1366.5574028999545,72,23,female,True
489,0.0576427606711273,25,down,down,0.6834012999897823,1.958180584913184,,experiment,cRDM,1.0,,,,1369.9572478999617,72,23,female,True
490,0.0576427606711273,25,down,down,0.7360974000184797,1.084281717330796,,experiment,cRDM,1.0,,,,1371.9905640999789,72,23,female,True
491,0.0576427606711273,25,up,down,0.654910999990534,1.0406791571079417,,experiment,cRDM,1.0,,,,1374.0237839999609,72,23,female,True
492,0.0576427606711273,25,down,down,0.7352359999786131,0.8892346057385891,,experiment,cRDM,1.0,,,,1375.8237244999618,72,23,female,True
493,0.0576427606711273,25,down,down,0.6826631000149064,0.8875097878267952,,experiment,cRDM,1.0,,,,1377.7069871999556,72,23,female,True
494,0.0576427606711273,25,down,down,0.9369690000312404,1.8998101851055935,,experiment,cRDM,1.0,,,,1380.5566888999892,72,23,female,True
495,0.0576427606711273,25,up,up,1.0458508000010625,0.7609591710793815,,experiment,cRDM,1.0,,,,1382.5068017999874,72,23,female,True
496,0.0576427606711273,25,up,down,0.653398800001014,0.8700147648197802,,experiment,cRDM,1.0,,,,1384.6732528999564,72,23,female,True
497,0.0576427606711273,25,down,down,0.7983843000256456,1.6339883986933357,,experiment,cRDM,1.0,,,,1387.2233069999493,72,23,female,True
498,0.0576427606711273,25,up,down,0.7406395000289194,1.9911847107022351,,experiment,cRDM,1.0,,,,1390.2730089999968,72,23,female,True
499,0.0576427606711273,25,down,down,0.8662375000421889,1.877148510774862,,experiment,cRDM,1.0,,,,1393.156399999978,72,23,female,True
500,0.0576427606711273,25,up,up,0.8999914000160061,1.7990879097117172,,experiment,cRDM,1.0,,,,1396.0896744999918,72,23,female,True
501,0.0576427606711273,25,up,down,0.9814117000205442,1.2571668888892429,,experiment,cRDM,1.0,,,,1398.5062201999826,72,23,female,True
502,145.0,25,M,up,0.8309425999759696,1.5694615235372424,,experiment,emotion,2.0,,,,1428.97171969997,72,23,female,True
503,131.0,25,M,down,0.8096482999972068,1.6144108835998408,,experiment,emotion,2.0,,,,1431.7049945999752,72,23,female,True
504,140.0,25,F,down,0.8657526999595575,1.7546340735663604,,experiment,emotion,2.0,,,,1434.5549135999754,72,23,female,True
505,145.0,25,F,down,0.6709926999756135,1.6661322585902114,,experiment,emotion,2.0,,,,1437.3546441999497,72,23,female,True
506,140.0,25,M,down,0.713974500016775,1.5035517469633752,,experiment,emotion,2.0,,,,1439.804695400002,72,23,female,True
507,136.0,25,F,down,0.654404999979306,1.701693080826074,,experiment,emotion,2.0,,,,1442.5212475999724,72,23,female,True
508,131.0,25,M,down,0.6917340999934822,0.6517641156839484,,experiment,emotion,2.0,,,,1444.0878752999706,72,23,female,True
509,136.0,25,M,up,0.9498807999771088,1.8375460933006165,,experiment,emotion,2.0,,,,1446.8877679999568,72,23,female,True
510,145.0,25,F,down,1.2202919999836013,0.748708969395375,,experiment,emotion,2.0,,,,1448.8543548999587,72,23,female,True
511,136.0,25,F,down,0.7710832000011578,1.9968089913217453,,experiment,emotion,2.0,,,,1452.337541899993,72,23,female,True
512,140.0,25,F,up,1.0311305999639444,1.2524887556439706,,experiment,emotion,2.0,,,,1454.6374634999663,72,23,female,True
513,145.0,25,F,down,0.6915808999910951,1.276849997661005,,experiment,emotion,2.0,,,,1457.204063399986,72,23,female,True
514,140.0,25,F,down,0.8376546000363305,0.6303745309302503,,experiment,emotion,2.0,,,,1458.8039899999858,72,23,female,True
515,131.0,25,F,down,0.6560036999871954,0.4063549427548505,,experiment,emotion,2.0,,,,1460.3206374999718,72,23,female,True
516,136.0,25,M,down,1.1424676000024192,0.3833365919087317,,experiment,emotion,2.0,,,,1461.637205899984,72,23,female,True
517,131.0,25,M,down,0.6478016000473872,0.6095107617640052,,experiment,emotion,2.0,,,,1463.653840199986,72,23,female,True
518,145.0,25,M,up,1.2431907000136562,0.4009888839697553,,experiment,emotion,2.0,,,,1464.9704548000009,72,23,female,True
519,131.0,25,M,up,1.1989261000417173,1.609074030475499,,experiment,emotion,2.0,,,,1468.1036639999948,72,23,female,True
520,140.0,25,F,up,1.0124197999830358,1.3449927789154146,,experiment,emotion,2.0,,,,1470.9202283999766,72,23,female,True
521,140.0,25,M,up,0.7181858000112697,1.3182778255512326,,experiment,emotion,2.0,,,,1473.5034494999563,72,23,female,True
522,136.0,25,M,up,0.6352675999514759,1.0929450630285549,,experiment,emotion,2.0,,,,1475.6033710999764,72,23,female,True
523,136.0,25,F,up,0.7844235000084154,0.3552234175737627,,experiment,emotion,2.0,,,,1476.8532169999671,72,23,female,True
524,131.0,25,M,up,0.811037799983751,0.7348341538673777,,experiment,emotion,2.0,,,,1478.6365856999764,72,23,female,True
525,145.0,25,F,up,0.8474448000197299,0.3103200666590552,,experiment,emotion,2.0,,,,1480.0531899000052,72,23,female,True
526,140.0,25,F,up,0.8161972999805585,1.3150417774135277,,experiment,emotion,2.0,,,,1482.4864404999537,72,23,female,True
527,131.0,25,M,up,0.7846281999954954,0.9659228861995768,,experiment,emotion,2.0,,,,1484.553006699949,72,23,female,True
528,145.0,25,M,up,0.8193373000249267,1.526034654836107,,experiment,emotion,2.0,,,,1487.1362599999993,72,23,female,True
529,145.0,25,F,up,0.719453799945768,1.5469209583783463,,experiment,emotion,2.0,,,,1489.7861849999754,72,23,female,True
530,136.0,25,M,down,1.1829712999751791,0.86841611905126,,experiment,emotion,2.0,,,,1491.652666399954,72,23,female,True
531,131.0,25,F,down,0.7836749000125565,1.1340904176572988,,experiment,emotion,2.0,,,,1494.2360051999567,72,23,female,True
532,136.0,25,F,down,0.6740490999654867,1.665348942054854,,experiment,emotion,2.0,,,,1496.9525478999713,72,23,female,True
533,140.0,25,F,up,0.7828461999888532,1.9212142159592385,,experiment,emotion,2.0,,,,1499.8357808999715,72,23,female,True
534,131.0,25,M,down,1.5309091999661175,0.7863906067331229,,experiment,emotion,2.0,,,,1501.6857387999771,72,23,female,True
535,145.0,25,M,,,0.9313261367463684,,experiment,emotion,2.0,,,,1504.4356221999624,72,23,female,True
536,140.0,25,M,up,0.8054649999830872,1.378546920123763,,experiment,emotion,2.0,,,,1508.5021502999589,72,23,female,True
537,145.0,25,F,up,0.7512725000269711,1.6071287959556506,,experiment,emotion,2.0,,,,1511.1853824999998,72,23,female,True
538,131.0,25,F,up,0.9387194999726488,0.7312586593169793,,experiment,emotion,2.0,,,,1512.9519120999612,72,23,female,True
539,140.0,25,M,up,0.9471071000443771,1.2992147887838803,,experiment,emotion,2.0,,,,1515.4685657999944,72,23,female,True
540,136.0,25,F,up,0.7475070999935269,0.5815160453081261,,experiment,emotion,2.0,,,,1517.285160599975,72,23,female,True
541,136.0,25,M,down,0.759577699995134,1.9344004019399732,,experiment,emotion,2.0,,,,1520.2350482000038,72,23,female,True
542,140.0,25,M,up,0.6400444000028074,1.3732924621005458,,experiment,emotion,2.0,,,,1522.6515636999975,72,23,female,True
543,145.0,25,M,up,0.6593968000379391,1.1663283561764772,,experiment,emotion,2.0,,,,1524.7182303000009,72,23,female,True
544,136.0,25,F,up,0.3669030999881215,0.7084264520407131,,experiment,emotion,2.0,,,,1526.3514204999665,72,23,female,True
545,131.0,25,F,up,0.6493899999768473,1.5974873900872335,,experiment,emotion,2.0,,,,1528.6512157999678,72,23,female,True
546,131.0,25,M,up,0.6943796999985352,1.7929132404076196,,experiment,emotion,2.0,,,,1531.3512522999663,72,23,female,True
547,136.0,25,F,up,0.6734732000040822,1.0285711403053022,,experiment,emotion,2.0,,,,1533.3511346000014,72,23,female,True
548,145.0,25,F,up,0.56177430000389,0.3794163830269743,,experiment,emotion,2.0,,,,1534.6678535999963,72,23,female,True
549,140.0,25,M,up,0.4885937999933958,1.231111766599338,,experiment,emotion,2.0,,,,1536.7510304999887,72,23,female,True
550,131.0,25,M,up,0.4199702000478282,1.6006982174576851,,experiment,emotion,2.0,,,,1539.117660799995,72,23,female,True
551,145.0,25,F,up,0.5077291000052355,1.0046505474051777,,experiment,emotion,2.0,,,,1540.800958799955,72,23,female,True
552,140.0,25,M,up,0.4001811000052839,1.2682241922046025,,experiment,emotion,2.0,,,,1542.8342224999797,72,23,female,True
553,140.0,25,F,up,0.4544369000359438,1.174362959531477,,experiment,emotion,2.0,,,,1544.6841800999828,72,23,female,True
554,131.0,25,F,up,0.7804884000215679,0.4780759621439248,,experiment,emotion,2.0,,,,1545.8841279000044,72,23,female,True
555,136.0,25,F,up,0.5271249999641441,1.898231123749616,,experiment,emotion,2.0,,,,1548.8504960999708,72,23,female,True
556,145.0,25,M,up,0.4721469000214711,1.6052287846420723,,experiment,emotion,2.0,,,,1551.2504666000025,72,23,female,True
557,136.0,25,M,up,0.7894666999927722,1.4351851718047142,,experiment,emotion,2.0,,,,1553.41716479999,72,23,female,True
558,136.0,25,F,up,0.6785526999738067,1.3273439864652528,,experiment,emotion,2.0,,,,1555.8170741999638,72,23,female,True
559,136.0,25,F,up,0.6769246000330895,0.4330898948120651,,experiment,emotion,2.0,,,,1557.1836985999837,72,23,female,True
560,145.0,25,M,up,0.6980221000267193,1.2042500938321667,,experiment,emotion,2.0,,,,1559.3336067000057,72,23,female,True
561,140.0,25,M,up,0.350148800003808,1.2696628554630849,,experiment,emotion,2.0,,,,1561.5668915999704,72,23,female,True
562,131.0,25,M,up,0.3501671999692917,1.444932185455535,,experiment,emotion,2.0,,,,1563.7167808999657,72,23,female,True
563,131.0,25,M,up,0.7045989999896847,1.7044755113310672,,experiment,emotion,2.0,,,,1566.1000513999606,72,23,female,True
564,140.0,25,M,up,0.4260206000180915,1.7006799257481986,,experiment,emotion,2.0,,,,1568.7666103999943,72,23,female,True
565,145.0,25,F,up,0.6124185000080615,1.2564858439257476,,experiment,emotion,2.0,,,,1570.7332049999968,72,23,female,True
566,145.0,25,F,down,0.7219101999653503,1.231670076311673,,experiment,emotion,2.0,,,,1572.8497303999611,72,23,female,True
567,131.0,25,M,down,0.5908668999909423,0.7121511251022651,,experiment,emotion,2.0,,,,1574.5497511999563,72,23,female,True
568,145.0,25,F,up,0.7830717000178993,0.5499630132382025,,experiment,emotion,2.0,,,,1575.9495528999832,72,23,female,True
569,136.0,25,F,up,0.9003712999983691,1.5432817764748925,,experiment,emotion,2.0,,,,1578.566249299969,72,23,female,True
570,140.0,25,F,up,0.8477880000136793,0.8292128369845901,,experiment,emotion,2.0,,,,1580.5828364999616,72,23,female,True
571,136.0,25,M,up,0.8345562000176869,1.670751672406764,,experiment,emotion,2.0,,,,1583.3660696999868,72,23,female,True
572,131.0,25,F,up,0.8037311999942176,1.3706487454597638,,experiment,emotion,2.0,,,,1585.865881799953,72,23,female,True
573,140.0,25,F,up,0.6373885000357404,0.3018470091865115,,experiment,emotion,2.0,,,,1587.2492968000006,72,23,female,True
574,136.0,25,F,up,0.6544355000369251,0.7822487024538624,,experiment,emotion,2.0,,,,1588.9491859999837,72,23,female,True
575,140.0,25,M,up,0.7208381000091322,0.8268457001749832,,experiment,emotion,2.0,,,,1590.7157786999596,72,23,female,True
576,131.0,25,M,up,0.7586740999831818,1.75287971847391,,experiment,emotion,2.0,,,,1593.4489430999963,72,23,female,True
577,145.0,25,F,up,0.7240255000069737,1.4693154442436185,,experiment,emotion,2.0,,,,1595.9655910999863,72,23,female,True
578,140.0,25,M,down,0.7714673000155017,1.9313314437263536,,experiment,emotion,2.0,,,,1598.8821540999925,72,23,female,True
579,145.0,25,F,up,0.6131457000155933,0.7253833781332244,,experiment,emotion,2.0,,,,1600.6654398999526,72,23,female,True
580,131.0,25,M,up,0.8225863000261597,0.3806861147484685,,experiment,emotion,2.0,,,,1601.932019800006,72,23,female,True
581,136.0,25,M,up,0.66833289997885,1.2834046883214782,,experiment,emotion,2.0,,,,1604.3152886999887,72,23,female,True
582,0.0576427606711273,25,up,up,0.7954392000101507,1.0596974842561495,,experiment,cRDM,2.0,,,,1616.2481760999651,72,23,female,True
583,0.0576427606711273,25,up,up,0.6148671999690123,1.8147077377976495,,experiment,cRDM,2.0,,,,1619.114745399973,72,23,female,True
584,0.0576427606711273,25,down,down,0.5446377000189386,0.761592836286256,,experiment,cRDM,2.0,,,,1620.7479715999798,72,23,female,True
585,0.0576427606711273,25,down,down,0.6677414000150748,1.84474971358657,,experiment,cRDM,2.0,,,,1623.3979199999594,72,23,female,True
586,0.0576427606711273,25,up,down,0.7582856999943033,1.537177734936196,,experiment,cRDM,2.0,,,,1625.8643269999884,72,23,female,True
587,0.0576427606711273,25,down,down,0.6039233999908902,1.9664734848451395,,experiment,cRDM,2.0,,,,1628.8477111999528,72,23,female,True
588,0.0576427606711273,25,up,up,0.6280780999804847,1.3436724295163718,,experiment,cRDM,2.0,,,,1631.0475093999994,72,23,female,True
589,0.0576427606711273,25,up,down,0.5887209000065923,1.6503418497625892,,experiment,cRDM,2.0,,,,1633.5808939999552,72,23,female,True
590,0.0576427606711273,25,down,down,0.7144922000006773,1.5876052330909078,,experiment,cRDM,2.0,,,,1636.0141163999797,72,23,female,True
591,0.0576427606711273,25,down,down,0.759652599983383,0.5599213014103764,,experiment,cRDM,2.0,,,,1637.563965599984,72,23,female,True
592,0.0576427606711273,25,down,up,0.6388315999647602,1.7732322566994054,,experiment,cRDM,2.0,,,,1640.363826899964,72,23,female,True
593,0.0576427606711273,25,down,down,0.5766689000301994,0.4552944451337656,,experiment,cRDM,2.0,,,,1641.713924199983,72,23,female,True
594,0.0576427606711273,25,down,down,0.8030613999580964,1.708054884004249,,experiment,cRDM,2.0,,,,1644.2805342999636,72,23,female,True
595,0.0576427606711273,25,down,down,0.5755629999912344,0.3970606450373161,,experiment,cRDM,2.0,,,,1645.7471054999623,72,23,female,True
596,0.0576427606711273,25,up,down,0.7978851000079885,0.4180344624280191,,experiment,cRDM,2.0,,,,1647.013726199977,72,23,female,True
597,0.0576427606711273,25,up,down,0.5816225000307895,0.6568182774482461,,experiment,cRDM,2.0,,,,1648.7470087999827,72,23,female,True
598,0.0576427606711273,25,up,down,0.5730531000299379,1.925224870326821,,experiment,cRDM,2.0,,,,1651.5135527999955,72,23,female,True
599,0.0576427606711273,25,up,down,0.6242856000317261,1.4293870633528478,,experiment,cRDM,2.0,,,,1653.763307199988,72,23,female,True
600,0.0576427606711273,25,down,up,0.7265461999922991,0.7170450452539937,,experiment,cRDM,2.0,,,,1655.380114300002,72,23,female,True
601,0.0576427606711273,25,up,up,0.852668099978473,1.96907641965458,,experiment,cRDM,2.0,,,,1658.3299638999742,72,23,female,True
602,0.0576427606711273,25,up,up,0.947674900002312,0.6311924718693065,,experiment,cRDM,2.0,,,,1660.079930799955,72,23,female,True
603,0.0576427606711273,25,down,down,0.6181509000016376,0.4110891035147377,,experiment,cRDM,2.0,,,,1661.6964848999633,72,23,female,True
604,0.0576427606711273,25,up,down,0.9654877000139096,1.7280723738673711,,experiment,cRDM,2.0,,,,1664.31308969995,72,23,female,True
605,0.0576427606711273,25,down,down,0.6363055999972858,0.5967050029093354,,experiment,cRDM,2.0,,,,1666.1463407999836,72,23,female,True
606,0.0576427606711273,25,down,down,0.7993409999762662,1.2613734318876628,,experiment,cRDM,2.0,,,,1668.2962666999665,72,23,female,True
607,0.0576427606711273,25,up,up,0.8321594999870285,1.8529506837728456,,experiment,cRDM,2.0,,,,1671.229489499994,72,23,female,True
608,0.0576427606711273,25,up,down,0.759480300010182,0.3762165829439112,,experiment,cRDM,2.0,,,,1672.696123200003,72,23,female,True
609,0.0576427606711273,25,down,up,0.7698640000307932,0.4385400413563689,,experiment,cRDM,2.0,,,,1674.162737799983,72,23,female,True
610,0.0576427606711273,25,up,down,0.7856822999892756,1.9090342189198053,,experiment,cRDM,2.0,,,,1677.095938399958,72,23,female,True
611,0.0576427606711273,25,down,up,0.9321211999631488,1.5811637467351598,,experiment,cRDM,2.0,,,,1679.7125001999666,72,23,female,True
612,0.0576427606711273,25,down,up,0.7874836000264622,0.8699467929984317,,experiment,cRDM,2.0,,,,1681.7791244999971,72,23,female,True
613,0.0576427606711273,25,down,down,0.7319132999982685,0.4784354013301925,,experiment,cRDM,2.0,,,,1683.2957125999965,72,23,female,True
614,0.0576427606711273,25,up,up,0.6606000000028871,0.981758525607768,,experiment,cRDM,2.0,,,,1685.2790039999527,72,23,female,True
615,0.0576427606711273,25,up,down,0.751126800023485,1.891578833229863,,experiment,cRDM,2.0,,,,1688.0955223999918,72,23,female,True
616,0.0576427606711273,25,up,down,0.777190699998755,1.9479012476402289,,experiment,cRDM,2.0,,,,1691.0454671999903,72,23,female,True
617,0.0576427606711273,25,down,down,0.8229772000340745,1.3412790595949644,,experiment,cRDM,2.0,,,,1693.4286543999915,72,23,female,True
618,0.0576427606711273,25,down,down,0.637310600024648,0.3298532931968697,,experiment,cRDM,2.0,,,,1694.8452945000026,72,23,female,True
619,0.0576427606711273,25,up,up,0.6980719999992289,0.7785873798792425,,experiment,cRDM,2.0,,,,1696.5285523999482,72,23,female,True
620,0.0576427606711273,25,down,down,0.6591656999662519,1.0393732680624015,,experiment,cRDM,2.0,,,,1698.5284710999697,72,23,female,True
621,0.0576427606711273,25,up,up,0.6882034000009298,1.121647789834428,,experiment,cRDM,2.0,,,,1700.5783999999985,72,23,female,True
622,0.0576427606711273,25,up,down,0.8138999000075273,1.3332910576854426,,experiment,cRDM,2.0,,,,1702.8616946999682,72,23,female,True
623,0.0576427606711273,25,up,up,0.7107792000169866,1.1136779153493557,,experiment,cRDM,2.0,,,,1705.0448274999508,72,23,female,True
624,0.0576427606711273,25,down,down,0.6869530999683775,1.9171320266802985,,experiment,cRDM,2.0,,,,1707.945102699974,72,23,female,True
625,0.0576427606711273,25,down,up,0.6935799000202678,1.538180550202286,,experiment,cRDM,2.0,,,,1710.428019899991,72,23,female,True
626,0.0576427606711273,25,up,down,0.5599568000179715,0.3630738046379446,,experiment,cRDM,2.0,,,,1711.7446429999543,72,23,female,True
627,0.0576427606711273,25,down,down,0.7539829000015743,0.5312583669666445,,experiment,cRDM,2.0,,,,1713.0946134999976,72,23,female,True
628,0.0576427606711273,25,down,down,0.734556799987331,1.7516167497512694,,experiment,cRDM,2.0,,,,1715.8610479999916,72,23,female,True
629,0.0576427606711273,25,up,up,0.6670510999974795,0.8721976024019322,,experiment,cRDM,2.0,,,,1717.7445454999688,72,23,female,True
630,0.0576427606711273,25,up,down,0.532005199987907,0.5443713064016378,,experiment,cRDM,2.0,,,,1719.2277114999597,72,23,female,True
631,0.0576427606711273,25,down,down,0.7453131999936886,1.4664485321414742,,experiment,cRDM,2.0,,,,1721.4942810999928,72,23,female,True
632,0.0576427606711273,25,up,up,0.6798126999638043,0.960428791274434,,experiment,cRDM,2.0,,,,1723.460794399958,72,23,female,True
633,0.0576427606711273,25,down,down,0.7074436999973841,1.103140142309257,,experiment,cRDM,2.0,,,,1725.4941484999729,72,23,female,True
634,0.0576427606711273,25,down,down,0.5715230999630876,1.979929622902869,,experiment,cRDM,2.0,,,,1728.444063199975,72,23,female,True
635,0.0576427606711273,25,down,down,0.716907900001388,0.5823082637155632,,experiment,cRDM,2.0,,,,1729.8606998999603,72,23,female,True
636,0.0576427606711273,25,up,down,0.7624063999974169,1.4737928882243931,,experiment,cRDM,2.0,,,,1732.3272144999935,72,23,female,True
637,0.0576427606711273,25,up,up,0.7991030000266619,1.4613791149504791,,experiment,cRDM,2.0,,,,1734.8104740999988,72,23,female,True
638,0.0576427606711273,25,down,down,0.6055407000239938,1.1488413211336514,,experiment,cRDM,2.0,,,,1737.027046400006,72,23,female,True
639,0.0576427606711273,25,down,down,0.7553245999733917,1.9976331916688952,,experiment,cRDM,2.0,,,,1739.9102824999718,72,23,female,True
640,0.0576427606711273,25,up,down,0.6864155999501236,1.8679485042749997,,experiment,cRDM,2.0,,,,1742.810251499992,72,23,female,True
641,0.0576427606711273,25,up,up,0.6675591000239365,1.4508470099903858,,experiment,cRDM,2.0,,,,1745.2100962999975,72,23,female,True
642,0.0576427606711273,25,up,down,0.5290862999972887,1.9891351457271476,,experiment,cRDM,2.0,,,,1748.1265287999995,72,23,female,True
643,0.0576427606711273,25,up,up,0.6203444999991916,1.835513423484356,,experiment,cRDM,2.0,,,,1750.743250200001,72,23,female,True
644,0.0576427606711273,25,up,down,0.6494479999528266,1.2622488482765903,,experiment,cRDM,2.0,,,,1752.8931437999709,72,23,female,True
645,0.0576427606711273,25,down,down,0.639892199949827,1.110981215072595,,experiment,cRDM,2.0,,,,1754.909739899973,72,23,female,True
646,0.0576427606711273,25,down,up,0.7486109000165015,0.9689136791116966,,experiment,cRDM,2.0,,,,1756.793011599977,72,23,female,True
647,0.0576427606711273,25,up,up,0.7606693999841809,1.5807101449024532,,experiment,cRDM,2.0,,,,1759.3929059999646,72,23,female,True
648,0.0576427606711273,25,down,down,0.7204290999798104,1.357227778488923,,experiment,cRDM,2.0,,,,1761.776161799964,72,23,female,True
649,0.0576427606711273,25,down,down,0.5115369000122882,1.5213014479731728,,experiment,cRDM,2.0,,,,1764.276036299998,72,23,female,True
650,0.0576427606711273,25,down,down,0.5252991000306793,0.4627354894675224,,experiment,cRDM,2.0,,,,1765.5093478999916,72,23,female,True
651,0.0576427606711273,25,up,down,0.7793428999721073,0.9004639707788105,,experiment,cRDM,2.0,,,,1767.2092806999572,72,23,female,True
652,0.0576427606711273,25,down,down,0.4246947999927215,0.3326958299235247,,experiment,cRDM,2.0,,,,1768.575854199997,72,23,female,True
653,0.0576427606711273,25,down,down,0.9047783000278288,1.9196198655432424,,experiment,cRDM,2.0,,,,1771.1758105999909,72,23,female,True
654,0.0576427606711273,25,down,down,0.9301364999846556,0.4486285721321631,,experiment,cRDM,2.0,,,,1772.792426,72,23,female,True
655,0.0576427606711273,25,up,down,1.037577399984002,0.4320518838123668,,experiment,cRDM,2.0,,,,1774.4090265999548,72,23,female,True
656,0.0576427606711273,25,up,down,1.2307206999976188,1.890021682263014,,experiment,cRDM,2.0,,,,1777.6089001999935,72,23,female,True
657,0.0576427606711273,25,down,up,0.7435907999752089,1.0473336751545967,,experiment,cRDM,2.0,,,,1780.142031700001,72,23,female,True
658,0.0576427606711273,25,up,down,0.7737083999672905,1.4844605840390528,,experiment,cRDM,2.0,,,,1782.6418892999643,72,23,female,True
659,0.0576427606711273,25,down,up,0.7736202999949455,0.5084143910018204,,experiment,cRDM,2.0,,,,1784.1919905999675,72,23,female,True
660,0.0576427606711273,25,up,up,0.9643135999795048,0.6616083144455517,,experiment,cRDM,2.0,,,,1785.8752613999532,72,23,female,True
661,0.0576427606711273,25,up,down,0.8987775000277907,1.1894972539347712,,experiment,cRDM,2.0,,,,1788.2918383999497,72,23,female,True
662,145.0,25,M,up,1.2491719999816269,1.6070309640446878,,experiment,emotion,3.0,,,,1795.3414390999824,72,23,female,True
663,131.0,25,M,up,0.6538319000392221,0.6964884537241842,,experiment,emotion,3.0,,,,1797.5748536000028,72,23,female,True
664,140.0,25,F,up,0.7141770000453107,1.196346639660422,,experiment,emotion,3.0,,,,1799.6914282999933,72,23,female,True
665,145.0,25,F,up,0.634036700008437,0.6558455748391463,,experiment,emotion,3.0,,,,1801.3245606999844,72,23,female,True
666,140.0,25,M,up,0.5856358999735676,1.3202970641011142,,experiment,emotion,3.0,,,,1803.5579579999903,72,23,female,True
667,136.0,25,F,up,0.450743599969428,1.4212409194939932,,experiment,emotion,3.0,,,,1805.8578575999709,72,23,female,True
668,131.0,25,M,up,0.6258387999841943,1.9202994023660789,,experiment,emotion,3.0,,,,1808.507746999967,72,23,female,True
669,136.0,25,M,up,0.6382601000368595,0.9151598345910954,,experiment,emotion,3.0,,,,1810.324325099995,72,23,female,True
670,145.0,25,F,up,0.7275610999786295,0.3065454219649504,,experiment,emotion,3.0,,,,1811.5410239999765,72,23,female,True
671,136.0,25,F,up,0.6854016999714077,1.3847711206153623,,experiment,emotion,3.0,,,,1813.924194799969,72,23,female,True
672,140.0,25,F,up,0.5758510999730788,1.3609969571064016,,experiment,emotion,3.0,,,,1816.2407152999656,72,23,female,True
673,145.0,25,F,up,0.4181871000328101,0.8242666753394772,,experiment,emotion,3.0,,,,1817.9074305999677,72,23,female,True
674,140.0,25,F,up,0.4002053999574855,1.5250790448008438,,experiment,emotion,3.0,,,,1820.1239721999737,72,23,female,True
675,131.0,25,F,up,0.8101601999951527,1.8115712539164703,,experiment,emotion,3.0,,,,1822.640424799989,72,23,female,True
676,136.0,25,M,up,0.7744798999628983,1.7353261426960265,,experiment,emotion,3.0,,,,1825.4571433999809,72,23,female,True
677,131.0,25,M,down,1.2308803000487387,1.276877988954241,,experiment,emotion,3.0,,,,1827.77370239998,72,23,female,True
678,145.0,25,M,up,0.7296448000124656,0.9336759389820616,,experiment,emotion,3.0,,,,1830.206930699991,72,23,female,True
679,131.0,25,M,down,0.6981065000290982,0.4245100203685191,,experiment,emotion,3.0,,,,1831.6234777999923,72,23,female,True
680,140.0,25,F,down,0.6217900000046939,0.4894006249355611,,experiment,emotion,3.0,,,,1833.1068259999736,72,23,female,True
681,140.0,25,M,down,0.718089499976486,0.382346177596735,,experiment,emotion,3.0,,,,1834.373489299964,72,23,female,True
682,136.0,25,M,up,0.8411899000057019,1.215655813463142,,experiment,emotion,3.0,,,,1836.5734157999975,72,23,female,True
683,136.0,25,F,up,0.5905839999904856,0.3054862555969578,,experiment,emotion,3.0,,,,1837.990018399956,72,23,female,True
684,131.0,25,M,up,0.7080164999933913,1.4993731267663502,,experiment,emotion,3.0,,,,1840.3565770999996,72,23,female,True
685,145.0,25,F,down,0.6261654000263661,1.725359866845683,,experiment,emotion,3.0,,,,1843.0564777999532,72,23,female,True
686,140.0,25,F,down,0.6325213999953121,0.4294484760749066,,experiment,emotion,3.0,,,,1844.373100499972,72,23,female,True
687,131.0,25,M,down,0.614282299997285,0.9380124501177836,,experiment,emotion,3.0,,,,1846.206358199997,72,23,female,True
688,145.0,25,M,down,0.5729666000115685,0.4524506688506149,,experiment,emotion,3.0,,,,1847.5396119999928,72,23,female,True
689,145.0,25,F,down,0.6066776000079699,0.7483312855519073,,experiment,emotion,3.0,,,,1849.122905199998,72,23,female,True
690,136.0,25,M,down,0.7723883999860846,1.337368047746628,,experiment,emotion,3.0,,,,1851.3561915999744,72,23,female,True
691,131.0,25,F,down,0.7621839999919757,1.090295051767654,,experiment,emotion,3.0,,,,1853.4894316999707,72,23,female,True
692,136.0,25,F,down,0.6249795999610797,1.606748334968557,,experiment,emotion,3.0,,,,1856.122634499974,72,23,female,True
693,140.0,25,F,down,0.9569363000337034,0.9510747875392184,,experiment,emotion,3.0,,,,1857.972626499948,72,23,female,True
694,131.0,25,M,down,0.6340624000295065,0.7804646574831744,,experiment,emotion,3.0,,,,1859.9725256999957,72,23,female,True
695,145.0,25,M,down,0.5424216000246815,0.6000212271093543,,experiment,emotion,3.0,,,,1861.489138899953,72,23,female,True
696,140.0,25,M,down,0.7061702000210062,1.064360533418518,,experiment,emotion,3.0,,,,1863.3724093000053,72,23,female,True
697,145.0,25,F,up,1.0492561000282876,1.8724899960385688,,experiment,emotion,3.0,,,,1866.2223025999847,72,23,female,True
698,131.0,25,F,down,0.7883874000399373,1.634300283016501,,experiment,emotion,3.0,,,,1869.172171299986,72,23,female,True
699,140.0,25,M,down,0.6591303999884985,1.5244931213432529,,experiment,emotion,3.0,,,,1871.7554493999924,72,23,female,True
700,136.0,25,F,down,0.9236479999963194,1.6556682838623404,,experiment,emotion,3.0,,,,1874.3719914999676,72,23,female,True
701,136.0,25,M,down,0.6280858999816701,1.47489326755236,,experiment,emotion,3.0,,,,1877.0384583999985,72,23,female,True
702,140.0,25,M,down,0.8101467000087723,1.96343363083539,,experiment,emotion,3.0,,,,1879.8884669999825,72,23,female,True
703,145.0,25,M,down,1.107234299997799,1.8371782806187276,,experiment,emotion,3.0,,,,1882.8383412999683,72,23,female,True
704,136.0,25,F,down,0.6540252999984659,0.3967720955410871,,experiment,emotion,3.0,,,,1884.621525399969,72,23,female,True
705,131.0,25,F,down,0.641369599965401,0.3715705696217442,,experiment,emotion,3.0,,,,1885.938205799961,72,23,female,True
706,131.0,25,M,down,0.6751585999736562,1.5159405969109083,,experiment,emotion,3.0,,,,1888.3714626999567,72,23,female,True
707,136.0,25,F,down,0.5848029000335373,0.8280821950099284,,experiment,emotion,3.0,,,,1890.154758299992,72,23,female,True
708,145.0,25,F,up,0.7930078000063077,1.609878888915556,,experiment,emotion,3.0,,,,1892.6215801999788,72,23,female,True
709,140.0,25,M,down,0.939044400001876,1.590848963676326,,experiment,emotion,3.0,,,,1895.3045316999776,72,23,female,True
710,131.0,25,M,down,0.8447469000238925,1.281188136878283,,experiment,emotion,3.0,,,,1897.7877940000035,72,23,female,True
711,145.0,25,F,down,0.5475148999830708,0.5166034047371748,,experiment,emotion,3.0,,,,1899.421054299979,72,23,female,True
712,140.0,25,M,down,0.691571399976965,0.3869338573201768,,experiment,emotion,3.0,,,,1900.6209986999747,72,23,female,True
713,140.0,25,F,down,0.9120489000342786,1.6596263696889313,,experiment,emotion,3.0,,,,1903.2375153999888,72,23,female,True
714,131.0,25,F,down,0.6167093999683857,1.1377632811186789,,experiment,emotion,3.0,,,,1905.570852899982,72,23,female,True
715,136.0,25,F,down,0.4857979999505915,0.7603969646460258,,experiment,emotion,3.0,,,,1907.2207969999872,72,23,female,True
716,145.0,25,M,down,0.508227700018324,1.815234363897772,,experiment,emotion,3.0,,,,1909.7873479999837,72,23,female,True
717,136.0,25,M,down,0.7069587000296451,1.0945709697741808,,experiment,emotion,3.0,,,,1911.6706119999872,72,23,female,True
718,136.0,25,F,down,0.5676885999855585,1.3063943060236494,,experiment,emotion,3.0,,,,1913.9538865999784,72,23,female,True
719,136.0,25,F,down,0.6247557000024244,0.4121623819475647,,experiment,emotion,3.0,,,,1915.2038063999496,72,23,female,True
720,145.0,25,M,down,0.6266231000190601,0.5519591281730246,,experiment,emotion,3.0,,,,1916.6370023000052,72,23,female,True
721,140.0,25,M,down,0.7105586999678053,0.6341002142885014,,experiment,emotion,3.0,,,,1918.1870147999723,72,23,female,True
722,131.0,25,M,down,0.689691000035964,1.3672826004158969,,experiment,emotion,3.0,,,,1920.5369198999836,72,23,female,True
723,131.0,25,M,down,0.706402399984654,0.787481733354048,,experiment,emotion,3.0,,,,1922.270230199967,72,23,female,True
724,140.0,25,M,down,0.6497705999645405,1.3301172385510287,,experiment,emotion,3.0,,,,1924.586795799958,72,23,female,True
725,145.0,25,F,down,0.7161854000296444,0.9454926178288744,,experiment,emotion,3.0,,,,1926.45339889999,72,23,female,True
726,145.0,25,F,down,0.6432108999579214,0.6296202427336769,,experiment,emotion,3.0,,,,1928.053386899992,72,23,female,True
727,131.0,25,M,down,0.4976547000114806,1.648936047726253,,experiment,emotion,3.0,,,,1930.6199020000056,72,23,female,True
728,145.0,25,F,up,1.0248062000027858,1.7756140551559627,,experiment,emotion,3.0,,,,1933.1698126999545,72,23,female,True
729,136.0,25,F,down,0.7008254999527708,1.7066111724051112,,experiment,emotion,3.0,,,,1936.1697389999756,72,23,female,True
730,140.0,25,F,down,0.7552670000004582,0.4861562611518916,,experiment,emotion,3.0,,,,1937.6362754,72,23,female,True
731,136.0,25,M,down,0.7083861000137404,0.8396539888540484,,experiment,emotion,3.0,,,,1939.4862760999824,72,23,female,True
732,131.0,25,F,down,0.6703946000197902,0.9093204420495744,,experiment,emotion,3.0,,,,1941.3862088999597,72,23,female,True
733,140.0,25,F,up,0.8544645999791101,0.6485110579861919,,experiment,emotion,3.0,,,,1942.986128199962,72,23,female,True
734,136.0,25,F,up,0.5421791999833658,0.5538149497571172,,experiment,emotion,3.0,,,,1944.6693862999675,72,23,female,True
735,140.0,25,M,up,0.4666474999976344,1.9985437531790915,,experiment,emotion,3.0,,,,1947.4859558999888,72,23,female,True
736,131.0,25,M,down,1.0659144999808632,1.5063678476757474,,experiment,emotion,3.0,,,,1949.7357019999763,72,23,female,True
737,145.0,25,F,down,0.6044690999551676,1.970727141933783,,experiment,emotion,3.0,,,,1953.0690949999844,72,23,female,True
