,stimLvl,stimTime,rand,response,rt,precedingITI,trialNumber,trialType,stimuli,block,estIntens,estThres,estSlope,trialStart,subject,age,gender,headRest
0,0.9,100,down,,,1.674725824054818,,introTrial,cRDM,,,,,206.14125019998755,132,22,male,True
1,150.0,100,F,,,1.872369832614293,,introTrial,emotion,,,,,211.97436309990007,132,22,male,True
2,200.0,25,M,up,0.4638469000346958,0.343472792023359,,tutorial,emotion,,,,,282.9885467999848,132,22,male,True
3,200.0,25,M,up,0.4001859000418335,0.9029920078567252,,tutorial,emotion,,,,,284.6384948999621,132,22,male,True
4,200.0,25,F,up,0.4393745999550447,1.1884451628126558,,tutorial,emotion,,,,,286.55509039992467,132,22,male,True
5,0.0,25,F,down,0.4660018000286072,0.7960046027302394,,tutorial,emotion,,,,,288.0883780999575,132,22,male,True
6,0.0,25,F,down,0.4588807000545785,1.8201935290671447,,tutorial,emotion,,,,,290.67156489996705,132,22,male,True
7,200.0,25,M,up,0.3834908000426367,1.340341192261705,,tutorial,emotion,,,,,292.73820349993184,132,22,male,True
8,0.0,25,M,down,0.4779183999635279,1.1761373109998203,,tutorial,emotion,,,,,294.6214706999017,132,22,male,True
9,200.0,25,F,up,0.4287154999328777,1.4844504104730336,,tutorial,emotion,,,,,296.87165089999326,132,22,male,True
10,0.0,25,F,down,0.4638305999105796,1.4777639150224662,,tutorial,emotion,,,,,299.0545526999049,132,22,male,True
11,0.0,25,M,up,0.3336846999591216,1.0636635761160984,,tutorial,emotion,,,,,300.8544175999705,132,22,male,True
12,0.9,25,up,up,0.5003393999068066,1.7104981284187766,,tutorial,cRDM,,,,,310.3542102999054,132,22,male,True
13,0.9,25,up,up,0.4238492000149563,0.6426843566549193,,tutorial,cRDM,,,,,311.787531399983,132,22,male,True
14,0.9,25,down,down,0.3005180000327527,0.7606800811814247,,tutorial,cRDM,,,,,313.23742519994266,132,22,male,True
15,0.9,25,down,down,0.267159599927254,0.8027917736983181,,tutorial,cRDM,,,,,314.7207255999092,132,22,male,True
16,0.9,25,up,up,0.3338132000062614,0.7861996075148383,,tutorial,cRDM,,,,,316.2040143999038,132,22,male,True
17,0.9,25,down,up,0.3506268999772146,0.4435642104369487,,tutorial,cRDM,,,,,317.35395219991915,132,22,male,True
18,0.9,25,up,up,0.5055418000556529,1.0302043107632337,,tutorial,cRDM,,,,,319.0708381999284,132,22,male,True
19,0.9,25,up,down,0.2338341999566182,1.2359736241521715,,tutorial,cRDM,,,,,321.10382929991465,132,22,male,True
20,0.9,25,down,up,0.3837935000192374,0.9351826710082414,,tutorial,cRDM,,,,,322.7371194999432,132,22,male,True
21,0.9,25,down,down,0.5446856999769807,0.790574918586864,,tutorial,cRDM,,,,,324.20371469995007,132,22,male,True
22,100.0,25,M,up,0.4001299999654293,0.9962099253222508,,psi_staircase_training,emotion,,100.0,100.0,25.00050000000001,334.9699923999142,132,22,male,True
23,55.0,25,M,down,0.4991760000120848,0.7218138415879836,,psi_staircase_training,emotion,,54.7428094675419,54.7428094675419,25.00050000000011,336.4532615999924,132,22,male,True
24,79.0,25,F,down,0.4958661000709981,1.4825102651335542,,psi_staircase_training,emotion,,79.636070985635,79.636070985635,25.713269254886413,338.7865377999842,132,22,male,True
25,103.0,25,F,down,0.46364370000083,1.949293461883034,,psi_staircase_training,emotion,,97.61123893914808,97.61123893914808,26.1463337262867,341.56977399997413,132,22,male,True
26,127.0,25,M,down,0.461413100012578,1.549887414575074,,psi_staircase_training,emotion,,117.15641007867752,117.15641007867752,31.432291447829705,343.9529832999688,132,22,male,True
27,148.0,25,F,down,0.4915087999543175,0.3263529209864014,,psi_staircase_training,emotion,,137.43317204546625,137.43317204546625,34.340881921268554,345.10296719998587,132,22,male,True
28,161.0,25,M,down,0.5222148000029847,1.3259958160394474,,psi_staircase_training,emotion,,155.46247000016731,155.46247000016731,34.28003647002313,347.3361994998995,132,22,male,True
29,170.0,25,F,down,0.5510717999422923,1.7198090212354475,,psi_staircase_training,emotion,,168.74231077445515,168.74231077445515,32.256557694803945,349.96939280000515,132,22,male,True
30,178.0,25,F,up,0.4579597000265494,0.9097837233940018,,psi_staircase_training,emotion,,177.81522725932615,177.81522725932615,29.379914408971896,351.8193632999901,132,22,male,True
31,160.0,25,M,down,0.6757300000172108,0.9975788377820848,,psi_staircase_training,emotion,,170.28813072702997,170.28813072702997,32.919420469590186,353.6526143999072,132,22,male,True
32,162.0,25,F,up,0.3838083000155166,1.4821020631606814,,psi_staircase_training,emotion,,175.14463428568746,175.14463428568746,30.05374418083329,356.18588030000683,132,22,male,True
33,151.0,25,F,up,0.4340052000479772,1.0730123218929286,,psi_staircase_training,emotion,,167.66950696470056,167.66950696470056,37.0136405995492,358.0524497999577,132,22,male,True
34,147.0,25,F,up,0.4909680000273511,1.2938772949000388,,psi_staircase_training,emotion,,160.03472693925536,160.03472693925536,39.77725350899309,360.15240279992577,132,22,male,True
35,145.0,25,M,up,0.428360000019893,1.3809197978946928,,psi_staircase_training,emotion,,153.40445857018793,153.40445857018793,40.68602005055852,362.3689930998953,132,22,male,True
36,141.0,25,M,up,0.4960978000890463,0.929816128354267,,psi_staircase_training,emotion,,147.80330213433805,147.80330213433805,41.05939018248879,364.1022733999416,132,22,male,True
37,134.0,25,F,up,0.4936533999862149,0.5250675696046856,,psi_staircase_training,emotion,,142.82056094678765,142.82056094678765,41.33560679658127,365.4687908999622,132,22,male,True
38,127.0,25,F,up,0.3835076000541448,0.8071611383848807,,psi_staircase_training,emotion,,138.0551676572169,138.0551676572169,41.69007089734203,367.1354943999322,132,22,male,True
39,121.0,25,M,up,0.3334693999495357,0.6236249351130387,,psi_staircase_training,emotion,,133.4191376402462,133.4191376402462,42.122945177403096,368.5354105998995,132,22,male,True
40,116.0,25,M,up,0.3334741999860853,1.933829861531116,,psi_staircase_training,emotion,,128.91787864195086,128.91787864195086,42.59124987818772,371.21865619998425,132,22,male,True
41,112.0,25,M,up,0.4471345000201836,0.4519219698481643,,psi_staircase_training,emotion,,124.5669233084034,124.5669233084034,43.05607649500741,372.4352959999815,132,22,male,True
42,108.0,25,M,up,0.4522016999544576,1.1384999678899308,,psi_staircase_training,emotion,,120.38920452574574,120.38920452574574,43.48815890299188,374.3851988000097,132,22,male,True
43,104.0,25,F,down,1.34188850002829,1.5354450312686985,,psi_staircase_training,emotion,,116.34372626924176,116.34372626924176,43.891044124664056,376.7184425999876,132,22,male,True
44,107.0,25,F,down,0.4637881000526249,1.9998693673904504,,psi_staircase_training,emotion,,118.89756431252944,118.89756431252944,43.64823318348214,380.4016541999299,132,22,male,True
45,109.0,25,F,up,0.459468699991703,1.0610089897723949,,psi_staircase_training,emotion,,121.27379455498756,121.27379455498756,43.42068380328311,382.284926299937,132,22,male,True
46,106.0,25,M,up,0.4168120000977069,1.2644748638100949,,psi_staircase_training,emotion,,117.86878514116172,117.86878514116172,43.75348892550706,384.3681571999332,132,22,male,True
47,103.0,25,M,down,0.3168362999567762,1.273554667203614,,psi_staircase_training,emotion,,114.57560595407482,114.57560595407482,44.06997466953507,386.40142199990805,132,22,male,True
48,105.0,25,F,down,0.426087100058794,1.531172916219819,,psi_staircase_training,emotion,,116.70561131734472,116.70561131734472,43.86990902483081,388.70133319997694,132,22,male,True
49,107.0,25,F,up,0.600440299953334,1.4524387836103134,,psi_staircase_training,emotion,,118.6996918399778,118.6996918399778,43.68082770135388,390.91792769997846,132,22,male,True
50,104.0,25,M,up,0.2835014999145642,1.220461050764294,,psi_staircase_training,emotion,,115.84646671795284,115.84646671795284,43.9481518285812,393.10116959991865,132,22,male,True
51,100.0,25,M,down,0.2501801999751478,1.242385586230153,,psi_staircase_training,emotion,,113.05519574990596,113.05519574990596,44.217788007165154,395.1177584999241,132,22,male,True
52,0.29,25,up,up,0.4992680000141263,1.6395748501087464,,psi_staircase_training,cRDM,,0.25,0.2569312402994632,0.105,403.184142199927,132,22,male,True
53,0.25,25,up,down,0.5879765000427142,1.1046023182518434,,psi_staircase_training,cRDM,,0.2191026665318312,0.2260132002683492,0.1046863203387393,405.0674282999244,132,22,male,True
54,0.36,25,down,down,0.6300999999511987,1.8746461497140048,,psi_staircase_training,cRDM,,0.3202997408361979,0.3276103223604739,0.1107465658214764,407.8172866000096,132,22,male,True
55,0.33,25,down,down,0.3671198999509215,1.4646215852552762,,psi_staircase_training,cRDM,,0.2990372097977385,0.3064139828071687,0.1117492876491608,410.1838940999005,132,22,male,True
56,0.31,25,up,up,0.5079852000344545,1.4677683230183265,,psi_staircase_training,cRDM,,0.2780189805609542,0.2853981109641391,0.1117849993448387,412.350454499945,132,22,male,True
57,0.31,25,down,up,0.4640028999419883,1.0812691128656584,,psi_staircase_training,cRDM,,0.2582073586141265,0.2655339603556145,0.1109892529502702,414.2003875999944,132,22,male,True
58,0.37,25,up,up,0.3838563000317663,1.4437372941513067,,psi_staircase_training,cRDM,,0.330892122409387,0.3389100246100726,0.1214616280346216,416.3670138999587,132,22,male,True
59,0.36,25,down,down,0.3338656999403611,1.6039403000302606,,psi_staircase_training,cRDM,,0.315264621841405,0.323274521657119,0.1213404014740481,418.65022750000935,132,22,male,True
60,0.35,25,down,up,0.4002515999600291,1.6901572115778911,,psi_staircase_training,cRDM,,0.3009767003442318,0.3088912535790747,0.1198960148190002,421.03347069991287,132,22,male,True
61,0.4,25,up,down,0.4852665000362322,0.8805395279924189,,psi_staircase_training,cRDM,,0.3557209941709502,0.3642219806111849,0.1287797764411305,422.6000860999338,132,22,male,True
62,0.45,25,down,down,0.4897015000460669,1.4357250805478732,,psi_staircase_training,cRDM,,0.4001205330987175,0.4086336716146946,0.128963865853392,424.8166634999216,132,22,male,True
63,0.44,25,down,up,0.621502099907957,0.3674202835329629,,psi_staircase_training,cRDM,,0.3915577411689954,0.4001602704308262,0.130318028731767,425.9499332999112,132,22,male,True
64,0.47,25,down,down,0.5274984000716358,1.3464700836054306,,psi_staircase_training,cRDM,,0.4239924260910829,0.4323911271080128,0.1272302746228442,428.19988899992313,132,22,male,True
65,0.47,25,up,up,0.4759322000900283,0.8586943683394919,,psi_staircase_training,cRDM,,0.4181306067798191,0.4265765908125858,0.1279465557570084,429.8665065999376,132,22,male,True
66,0.43,25,up,up,0.5576132000423968,1.3978322299668162,,psi_staircase_training,cRDM,,0.4128438111947475,0.4212434118321315,0.1272439027966788,431.9997307999293,132,22,male,True
67,0.42,25,down,down,0.5410125999478623,1.4267619957286504,,psi_staircase_training,cRDM,,0.4041041242177937,0.4129579333667527,0.1341246184629728,434.2663416999858,132,22,male,True
68,0.42,25,down,down,0.4201558999484405,1.5813959419347283,,psi_staircase_training,cRDM,,0.3950733578485832,0.4043215754582151,0.1400994348856359,436.666236699908,132,22,male,True
69,0.42,25,up,up,0.5305364000378177,0.5137647332551734,,psi_staircase_training,cRDM,,0.3862424976451378,0.3957673586518303,0.1442902514547308,437.88284909992944,132,22,male,True
70,0.42,25,up,up,0.5726153999567032,0.5422837842566147,,psi_staircase_training,cRDM,,0.3777329066981543,0.3874356386851708,0.1469847840530974,439.2327857000055,132,22,male,True
71,0.43,25,up,up,0.4611591999419033,1.4834888349528397,,psi_staircase_training,cRDM,,0.3696129118673546,0.3794147847708839,0.1484866503546663,441.5492437999928,132,22,male,True
72,0.39,25,up,down,0.7967056999914348,1.505740190482035,,psi_staircase_training,cRDM,,0.3624072209407007,0.3722109177158071,0.1485142798275056,443.7826360999607,132,22,male,True
73,0.44,25,down,down,0.4864690999966115,1.9041558584541167,,psi_staircase_training,cRDM,,0.3898563845873221,0.3992377399232066,0.1421163121907852,446.7659242999507,132,22,male,True
74,0.44,25,down,down,0.7653301999671385,1.4151811565474846,,psi_staircase_training,cRDM,,0.3841851221368915,0.3935065073248455,0.141207836180628,448.9490247999784,132,22,male,True
75,0.44,25,down,up,0.8416143000358716,0.3216709160427258,,psi_staircase_training,cRDM,,0.3789258083071621,0.3881428673987702,0.1396274206066396,450.3157271000091,132,22,male,True
76,0.43,25,up,up,0.8693697999697179,0.8138796116514866,,psi_staircase_training,cRDM,,0.4011602970958678,0.4110196267857387,0.1493570519430136,452.2490254999138,132,22,male,True
77,0.43,25,up,down,0.6205645999871194,1.5498014118722203,,psi_staircase_training,cRDM,,0.395244640343507,0.4051984371618014,0.1507881159454026,454.9488290000008,132,22,male,True
78,0.47,25,down,down,0.6745998999103904,1.905231972533228,,psi_staircase_training,cRDM,,0.4148987729384487,0.4246859384643959,0.1482638511759627,457.7487966999179,132,22,male,True
79,0.42,25,down,up,0.6463615000247955,1.976824037143981,,psi_staircase_training,cRDM,,0.4111420332199881,0.4208380370224153,0.1468828601042288,460.6820355999516,132,22,male,True
80,0.48,25,up,down,0.7817758000455797,1.8419026538421903,,psi_staircase_training,cRDM,,0.4266981874016868,0.4357867474436405,0.1376808137035791,463.44856399996206,132,22,male,True
81,0.47,25,up,up,0.7609172000084072,1.9925116198923905,,psi_staircase_training,cRDM,,0.4388040524965433,0.4488407692987604,0.1520442545202765,466.4984511999646,132,22,male,True
82,100.0,25,M,up,0.6490938999922946,1.6449790759053178,,psi_staircase,emotion,,100.0,100.0,25.00050000000001,480.73126859997865,132,22,male,True
83,55.0,25,M,down,0.5799179000314325,1.8843870894561887,,psi_staircase,emotion,,54.7428094675419,54.7428094675419,25.00050000000011,483.6144904999528,132,22,male,True
84,79.0,25,F,down,0.4400110999122262,0.905795170013322,,psi_staircase,emotion,,79.636070985635,79.636070985635,25.713269254886413,485.4643337999005,132,22,male,True
85,103.0,25,F,down,0.5503710000775754,1.470785455899449,,psi_staircase,emotion,,97.61123893914808,97.61123893914808,26.1463337262867,487.7310190999415,132,22,male,True
86,127.0,25,M,up,0.6816255999729037,0.870108438452831,,psi_staircase,emotion,,117.15641007867752,117.15641007867752,31.432291447829705,489.4977257999126,132,22,male,True
87,116.0,25,F,up,0.8477452000370249,0.583750581826985,,psi_staircase,emotion,,105.03864224082596,105.03864224082596,29.694064005485792,491.0975984999677,132,22,male,True
88,88.0,25,M,down,0.6468895999714732,0.7427516657829265,,psi_staircase,emotion,,98.16151255584974,98.16151255584974,27.875884705401127,493.0474713000003,132,22,male,True
89,116.0,25,F,down,0.7169051000382751,0.6226280012377827,,psi_staircase,emotion,,103.47850698803556,103.47850698803556,26.16750556784877,494.6474074999569,132,22,male,True
90,130.0,25,F,down,0.7356878999853507,1.5173400150945031,,psi_staircase,emotion,,112.6895003383148,112.6895003383148,31.119091853818805,497.2306875999784,132,22,male,True
91,141.0,25,M,up,0.6694723999826238,1.4866565698100571,,psi_staircase,emotion,,122.50914082163187,122.50914082163187,35.450157423660514,499.8139093999053,132,22,male,True
92,139.0,25,F,up,0.5705373999662697,1.3988606613685115,,psi_staircase,emotion,,118.30490814447234,118.30490814447234,34.1713924437793,502.2638228998985,132,22,male,True
93,137.0,25,F,up,0.6540002000983804,1.049820304849371,,psi_staircase,emotion,,115.12258572841245,115.12258572841245,33.00450260071313,504.2303902999265,132,22,male,True
94,92.0,25,F,down,0.7796202999306843,0.6678237947288536,,psi_staircase,emotion,,112.591161946921,112.591161946921,31.937784209656236,505.91368639993016,132,22,male,True
95,138.0,25,M,up,0.8771134000271559,1.93059026420966,,psi_staircase,emotion,,114.95817636560945,114.95817636560945,30.78888044505381,508.9802730999654,132,22,male,True
96,92.0,25,M,down,0.6532887999201193,1.4317673417452057,,psi_staircase,emotion,,113.07940107758796,113.07940107758796,29.64392150366457,511.6301229000092,132,22,male,True
97,138.0,25,F,up,0.8429713998921216,1.4402214591599043,,psi_staircase,emotion,,114.91198990448233,114.91198990448233,28.427665992558715,514.0633768999251,132,22,male,True
98,92.0,25,F,up,0.6381006999872625,0.838821402698692,,psi_staircase,emotion,,113.46241790018084,113.46241790018084,27.255830540481828,516.0633119998965,132,22,male,True
99,83.0,25,M,down,0.8814578000456095,1.2705191428764189,,psi_staircase,emotion,,108.25205045374824,108.25205045374824,31.710691590497916,518.3298918999499,132,22,male,True
100,84.0,25,M,down,0.8282233000500128,1.7924465152735527,,psi_staircase,emotion,,109.72004941097562,109.72004941097562,30.69596013794016,521.3631189999869,132,22,male,True
101,136.0,25,M,up,0.748291700030677,0.3707069252302704,,psi_staircase,emotion,,110.96060815285868,110.96060815285868,29.740213224485014,522.9130525999935,132,22,male,True
102,85.0,25,M,up,0.8212290999945253,1.4374157541761283,,psi_staircase,emotion,,109.76805170759214,109.76805170759214,28.743500353841668,525.4461826999905,132,22,male,True
103,77.0,25,F,down,0.7187865000450984,1.67868359194398,,psi_staircase,emotion,,105.47849161283727,105.47849161283727,32.643877937616054,528.2795593999326,132,22,male,True
104,134.0,25,F,up,0.6669250000268221,1.325788229568165,,psi_staircase,emotion,,106.56970613959244,106.56970613959244,31.812962070275653,530.6794589000056,132,22,male,True
105,78.0,25,F,down,0.846023999969475,0.7458026532175447,,psi_staircase,emotion,,105.54313841968968,105.54313841968968,30.991922309935283,532.4293560999213,132,22,male,True
106,133.0,25,M,up,0.6464439999544993,0.5212774785458468,,psi_staircase,emotion,,106.4990828184598,106.4990828184598,30.14817281030545,534.1459339999128,132,22,male,True
107,78.0,25,M,down,0.6117836999474093,0.3266983358231375,,psi_staircase,emotion,,105.5924035366273,105.5924035366273,29.3196402575654,535.4626261999365,132,22,male,True
108,133.0,25,F,up,0.6341598000144586,0.8655152231484429,,psi_staircase,emotion,,106.40095477116122,106.40095477116122,28.49298269190561,537.2791834999807,132,22,male,True
109,79.0,25,F,down,0.7605819000164047,1.8865243627051769,,psi_staircase,emotion,,105.62741109173328,105.62741109173328,27.686876835573308,540.145778200007,132,22,male,True
110,131.0,25,M,up,0.6420219000428915,0.945269413793544,,psi_staircase,emotion,,106.3400068829946,106.3400068829946,26.890971805694942,542.2123413999798,132,22,male,True
111,80.0,25,M,up,0.6044385000132024,1.3676893658008262,,psi_staircase,emotion,,105.61849598307758,105.61849598307758,26.11076002308233,544.5789112999337,132,22,male,True
112,73.0,25,F,up,0.8878041999414563,1.2104216703996735,,psi_staircase,emotion,,102.48597241293112,102.48597241293112,29.82780098458539,546.7455362000037,132,22,male,True
113,68.0,25,M,down,0.7706127999117598,0.4535948024577875,,psi_staircase,emotion,,99.21607994410648,99.21607994410648,33.47610604625272,548.4287565998966,132,22,male,True
114,68.0,25,F,up,0.922041799989529,1.543676861271843,,psi_staircase,emotion,,99.9568954425483,99.9568954425483,32.80249855043654,551.0953483999474,132,22,male,True
115,64.0,25,M,down,0.6651515000266954,0.8159650580335329,,psi_staircase,emotion,,96.79806626070187,96.79806626070187,35.91669199448607,553.1952602999518,132,22,male,True
116,64.0,25,F,down,0.6534572000382468,0.5243820780790683,,psi_staircase,emotion,,97.53173287194603,97.53173287194603,35.34932197680996,554.7118838999886,132,22,male,True
117,130.0,25,M,up,0.5618977999547496,1.2564665791030254,,psi_staircase,emotion,,98.19185579440462,98.19185579440462,34.79738305047143,556.9784714999842,132,22,male,True
118,64.0,25,F,down,0.6449789000907913,1.0478027216280783,,psi_staircase,emotion,,97.52394761785304,97.52394761785304,34.233743688275226,558.9283953999402,132,22,male,True
119,130.0,25,M,up,0.7244290000526235,0.3591277367870338,,psi_staircase,emotion,,98.11737563663397,98.11737563663397,33.67406464926487,560.2619356999639,132,22,male,True
120,64.0,25,M,up,0.7320481999777257,0.8048698220013917,,psi_staircase,emotion,,97.51294406587422,97.51294406587422,33.10349325599535,562.1283331000013,132,22,male,True
121,60.0,25,F,down,0.6396222999319434,1.767554491815329,,psi_staircase,emotion,,94.77220835068748,94.77220835068748,35.97505706325014,564.9948063999182,132,22,male,True
122,129.0,25,F,up,0.616277499939315,0.7407971188526621,,psi_staircase,emotion,,95.35862352537644,95.35862352537644,35.474217071241526,566.7280923000071,132,22,male,True
123,60.0,25,F,down,0.695946800056845,0.8600925279523577,,psi_staircase,emotion,,94.79109352118164,94.79109352118164,34.98136853448722,568.5613951999694,132,22,male,True
124,129.0,25,M,up,0.5990440000314265,0.4115181713677387,,psi_staircase,emotion,,95.32511282285476,95.32511282285476,34.474407852570444,570.0113212999422,132,22,male,True
125,61.0,25,M,down,0.6208420000039041,1.98797304041166,,psi_staircase,emotion,,94.80521932314872,94.80521932314872,33.97495557918457,572.9445247999392,132,22,male,True
126,128.0,25,F,up,0.6205551000311971,1.018812267818794,,psi_staircase,emotion,,95.30809396939952,95.30809396939952,33.462907626014136,574.9778077999363,132,22,male,True
127,61.0,25,F,down,0.5993046999210492,1.0893982968482745,,psi_staircase,emotion,,94.8140819709799,94.8140819709799,32.957930331196025,577.0110729999142,132,22,male,True
128,128.0,25,F,up,0.5390331000089645,0.5986338629657951,,psi_staircase,emotion,,95.27103045635444,95.27103045635444,32.452868915303384,578.5443189999787,132,22,male,True
129,61.0,25,M,down,0.6265077000716701,1.043727879500436,,psi_staircase,emotion,,94.81795101437557,94.81795101437557,31.95423236819054,580.4608850999502,132,22,male,True
130,127.0,25,M,up,0.8138768000062555,0.6427917514004219,,psi_staircase,emotion,,95.23297028759046,95.23297028759046,31.462805205066072,582.077530499897,132,22,male,True
131,62.0,25,M,down,0.628269899985753,0.6989253565314774,,psi_staircase,emotion,,94.80044891326938,94.80044891326938,30.970892961101637,583.9441255999263,132,22,male,True
132,0.29,25,up,up,0.6127657999750227,0.3896714868779045,,psi_staircase,cRDM,,0.25,0.2569312402994632,0.105,588.4605992999859,132,22,male,True
133,0.25,25,up,up,0.5775136000011116,0.9923660726584024,,psi_staircase,cRDM,,0.2191026665318312,0.2260132002683492,0.1046863203387393,590.3438867999939,132,22,male,True
134,0.21,25,down,down,0.5252402999904007,1.98321905675718,,psi_staircase,cRDM,,0.1900540959403307,0.1968497961554001,0.1029467298424999,593.1771737999516,132,22,male,True
135,0.18,25,down,up,0.910671600024216,1.9342726718383831,,psi_staircase,cRDM,,0.1635257589279754,0.1701521334256793,0.1003816477568649,595.893699200009,132,22,male,True
136,0.28,25,up,up,0.6120848000282422,0.9420171420959824,,psi_staircase,cRDM,,0.2462894156509761,0.253676874431043,0.111911164292932,598.010269899969,132,22,male,True
137,0.26,25,down,down,0.5064683000091463,1.4828478868236306,,psi_staircase,cRDM,,0.224020924517144,0.2312720210897802,0.1098454399547734,600.3768987999065,132,22,male,True
138,0.23,25,up,up,0.384125699987635,1.8392071945306951,,psi_staircase,cRDM,,0.2047781477371871,0.211824604656558,0.106745393979666,602.9767872999655,132,22,male,True
139,0.23,25,down,down,0.2835272999946028,1.602547910910155,,psi_staircase,cRDM,,0.1874201716315257,0.1943184465858974,0.1045006144520947,605.2602769999066,132,22,male,True
140,0.21,25,down,up,0.2504918999038636,1.2108726513855466,,psi_staircase,cRDM,,0.1734597158637905,0.1801271287888497,0.1010033308447589,607.1432731999084,132,22,male,True
141,0.26,25,up,up,0.4468219999689609,1.4964911933749467,,psi_staircase,cRDM,,0.2258097884912943,0.2328763215733389,0.1070495238308419,609.3265400999226,132,22,male,True
142,0.25,25,down,down,0.5419458999531344,1.6390944124561588,,psi_staircase,cRDM,,0.212450835613729,0.2191858551365866,0.102027489936369,611.676450299914,132,22,male,True
143,0.25,25,down,up,0.7140075999777764,1.1951939090939478,,psi_staircase,cRDM,,0.2017939937751558,0.2081851447054985,0.0968182920649778,613.6763889999129,132,22,male,True
144,0.29,25,down,up,0.6547636999748647,1.9492595417751504,,psi_staircase,cRDM,,0.2485375381337825,0.257084668859843,0.1294788071776774,616.6095515999477,132,22,male,True
145,0.37,25,up,up,0.5338162999833003,0.7299400059895678,,psi_staircase,cRDM,,0.3062733614191628,0.315553272460055,0.140579552460348,618.2595362999709,132,22,male,True
146,0.35,25,up,up,0.4952768000075593,1.0717714671275878,,psi_staircase,cRDM,,0.2915215236860453,0.3008648311383731,0.1415399322644156,620.1261118999682,132,22,male,True
147,0.33,25,down,down,0.6172203000169247,0.3277291718822149,,psi_staircase,cRDM,,0.2776913822288082,0.2870466775160696,0.1417215336248717,621.2260730999988,132,22,male,True
148,0.32,25,down,down,0.5153246000409126,0.6592777700901918,,psi_staircase,cRDM,,0.264665796958614,0.2740128755268929,0.1415970601603999,622.7760321999667,132,22,male,True
149,0.28,25,up,up,0.6007936000823975,1.625096612288811,,psi_staircase,cRDM,,0.2528337060246097,0.2621399826886683,0.1409789601150922,625.1925663999282,132,22,male,True
150,0.28,25,up,up,0.5515385000035167,1.2770222448214517,,psi_staircase,cRDM,,0.2404848806412938,0.2498685644283457,0.1421515854408838,627.3427906999132,132,22,male,True
151,0.28,25,up,down,0.3005622999044135,1.1666240566433297,,psi_staircase,cRDM,,0.2294397132937327,0.2388253755574407,0.1421815569957449,629.3257888999069,132,22,male,True
152,0.34,25,up,up,0.3171982000349089,1.7310129030405186,,psi_staircase,cRDM,,0.2683311887044298,0.2779442567599273,0.1456264827386522,631.742366499966,132,22,male,True
153,0.33,25,down,up,0.5151635999791324,1.972135385475679,,psi_staircase,cRDM,,0.2594059269628735,0.268907823632748,0.1439423692198474,634.3922635999043,132,22,male,True
154,0.38,25,down,up,0.4002623000415042,1.6198963767363654,,psi_staircase,cRDM,,0.2978491551799784,0.3079164874679769,0.152508042510327,636.7755123999668,132,22,male,True
155,0.41,25,down,down,0.5925759000238031,1.3688464091200725,,psi_staircase,cRDM,,0.3401075998493833,0.350554563215571,0.1582589992637617,638.8087768999394,132,22,male,True
156,0.4,25,up,up,0.6379565000534058,1.5155673025801026,,psi_staircase,cRDM,,0.3304452756827192,0.3409443101844938,0.1590478146850139,641.1753511999268,132,22,male,True
157,0.37,25,up,up,0.4600908000720665,0.5357584631963972,,psi_staircase,cRDM,,0.3212664322634542,0.3317822895921893,0.1593026603914863,642.625295399921,132,22,male,True
158,0.37,25,down,down,0.5687196999788284,0.8092827225881725,,psi_staircase,cRDM,,0.311741067077077,0.3222998773422267,0.1599533460016629,644.1585980999516,132,22,male,True
159,0.37,25,down,down,0.6444814000278711,1.30509771263139,,psi_staircase,cRDM,,0.3030094138532893,0.313565805426118,0.1599167057060269,646.291842799983,132,22,male,True
160,0.37,25,up,down,0.6719286000588909,1.4779006761315794,,psi_staircase,cRDM,,0.2950402937560086,0.3055617123662828,0.159386907154891,648.6584309999598,132,22,male,True
161,0.42,25,up,up,0.3338944000424817,1.4481229936624094,,psi_staircase,cRDM,,0.3279788872791946,0.3387631717552845,0.1633690106050896,651.0249755999539,132,22,male,True
162,0.37,25,down,down,0.583498900057748,1.6358875057732245,,psi_staircase,cRDM,,0.3212940190764512,0.3320156621829477,0.1624200687818177,653.3418338999618,132,22,male,True
163,0.37,25,up,up,0.5229243999347091,0.6573478178081644,,psi_staircase,cRDM,,0.3133853782922572,0.3241311356608912,0.1627853710098526,654.8414274000097,132,22,male,True
164,0.37,25,down,down,0.5069441000232473,1.2645759630902746,,psi_staircase,cRDM,,0.3060282514578452,0.316769135368865,0.162711543956196,656.8914460999658,132,22,male,True
165,0.36,25,up,up,0.6603458999888971,1.814288559278309,,psi_staircase,cRDM,,0.2991981383866845,0.3099134385810658,0.1623239812501027,659.4580177000025,132,22,male,True
166,0.36,25,down,up,0.6530982999829575,1.4994320581417149,,psi_staircase,cRDM,,0.2925722023715196,0.303264031492931,0.1619684225686318,661.8912689998979,132,22,male,True
167,0.41,25,up,up,0.4728203999111429,1.573668607881856,,psi_staircase,cRDM,,0.3189927172717565,0.3298400181770485,0.1643236341328196,664.3744975998998,132,22,male,True
168,0.41,25,down,down,0.4168117999797687,0.7394724441662857,,psi_staircase,cRDM,,0.3135772267513908,0.3243461053738277,0.1631356303493661,665.8577545000007,132,22,male,True
169,0.35,25,up,up,0.4003737000748515,1.5274479501042344,,psi_staircase,cRDM,,0.3085699341272704,0.3192532185199234,0.161838980148391,668.0743557999376,132,22,male,True
170,0.36,25,up,up,0.317154899938032,1.7443085744677842,,psi_staircase,cRDM,,0.30212775034111,0.312841688410349,0.1623033466834513,670.4909369999077,132,22,male,True
171,0.35,25,down,down,0.3505144999362528,1.1360582341958787,,psi_staircase,cRDM,,0.2963162300917711,0.3070224486149091,0.1621864047934601,672.2908696999075,132,22,male,True
172,0.36,25,down,down,0.464341500075534,1.080375816421803,,psi_staircase,cRDM,,0.2906137907373997,0.3013173798655199,0.1621465726039906,674.0410612999694,132,22,male,True
173,0.35,25,down,down,0.3338833000743761,0.5807116400328334,,psi_staircase,cRDM,,0.2854961312079614,0.2961708451938679,0.1617091487373442,675.3407157999463,132,22,male,True
174,0.36,25,up,up,0.3671634999336675,0.4262359224956042,,psi_staircase,cRDM,,0.2804354141404568,0.2910904123581296,0.1614104784308629,676.4406816998962,132,22,male,True
175,0.35,25,up,up,0.3174330999609083,0.4148089907012892,,psi_staircase,cRDM,,0.2759128681979432,0.2865285413869998,0.1608147512844492,677.5240021999925,132,22,male,True
176,0.31,25,down,down,0.4470157000469044,0.554939596512993,,psi_staircase,cRDM,,0.2714018878906992,0.2819889442422374,0.160381240424977,678.757316299947,132,22,male,True
177,0.31,25,down,down,0.4364920000080019,1.5713914685727242,,psi_staircase,cRDM,,0.2661581552061242,0.2767786526120714,0.1608878324000411,681.0408056000015,132,22,male,True
178,0.27,25,down,down,0.4354757000692189,0.8217416509518629,,psi_staircase,cRDM,,0.2611134846614261,0.2717605743235288,0.1612906732734903,682.5738226999529,132,22,male,True
179,0.26,25,up,up,0.367280300008133,0.8997104989247651,,psi_staircase,cRDM,,0.2554139446814262,0.2661514943255634,0.1626610338010811,684.1904326999793,132,22,male,True
180,0.24,25,up,up,0.4002439000178128,0.9051595039270324,,psi_staircase,cRDM,,0.2496360682373403,0.2604744886024898,0.1641891045717783,685.7737065999536,132,22,male,True
181,0.23,25,up,up,0.3004653999814763,1.1458292601877926,,psi_staircase,cRDM,,0.2436067415126775,0.2545731120371319,0.1661273964425783,687.6069918998983,132,22,male,True
182,107.0,25,F,down,0.5263358000665903,1.0793824144777535,,experiment,emotion,0.0,,,,696.789993399987,132,22,male,True
183,83.0,25,M,down,0.6271400999976322,1.3210379886155643,,experiment,emotion,0.0,,,,698.9232088999124,132,22,male,True
184,99.0,25,F,down,0.4875069999834522,0.758719240065032,,experiment,emotion,0.0,,,,700.5898453999544,132,22,male,True
185,107.0,25,M,down,0.4292587999952957,0.7616048991004549,,experiment,emotion,0.0,,,,702.1230905998964,132,22,male,True
186,99.0,25,F,up,0.6200050000334159,1.7294236590517496,,experiment,emotion,0.0,,,,704.5563439999241,132,22,male,True
187,91.0,25,F,down,0.6453757000854239,1.265164494434594,,experiment,emotion,0.0,,,,706.7229462999385,132,22,male,True
188,83.0,25,M,up,0.4001836000243202,0.3352256251866424,,experiment,emotion,0.0,,,,707.9562241999665,132,22,male,True
189,91.0,25,F,down,0.4525288000004366,1.0345796503255391,,experiment,emotion,0.0,,,,709.6728267999133,132,22,male,True
190,107.0,25,M,down,0.3501866000005975,0.3540243503657791,,experiment,emotion,0.0,,,,710.7394245999167,132,22,male,True
191,91.0,25,M,down,0.590599299990572,0.6388952253144526,,experiment,emotion,0.0,,,,712.0727443000069,132,22,male,True
192,99.0,25,F,down,0.5275137999560684,1.3260732486830755,,experiment,emotion,0.0,,,,714.239823199925,132,22,male,True
193,107.0,25,M,down,0.4420955999521538,1.700530582454964,,experiment,emotion,0.0,,,,716.7562277999241,132,22,male,True
194,99.0,25,M,down,0.300164399901405,0.621969220168805,,experiment,emotion,0.0,,,,718.1058464999078,132,22,male,True
195,83.0,25,M,down,0.5862893000012264,1.839836172652358,,experiment,emotion,0.0,,,,720.6391187999398,132,22,male,True
196,91.0,25,F,down,0.3335024999687448,0.9658862781233328,,experiment,emotion,0.0,,,,722.4556889999658,132,22,male,True
197,83.0,25,F,down,0.36679640004877,0.4238729396692783,,experiment,emotion,0.0,,,,723.5556604999583,132,22,male,True
198,107.0,25,M,down,0.3001733000855893,1.4820835490604742,,experiment,emotion,0.0,,,,725.7222261999268,132,22,male,True
199,83.0,25,M,down,0.4167972999857738,1.1841291433187198,,experiment,emotion,0.0,,,,727.6055004999507,132,22,male,True
200,99.0,25,F,down,0.3665767000056803,1.947707778153538,,experiment,emotion,0.0,,,,730.238998399931,132,22,male,True
201,99.0,25,F,down,0.3502792000072077,0.5608600338433218,,experiment,emotion,0.0,,,,731.5053412999259,132,22,male,True
202,91.0,25,M,down,0.3334944000234827,1.0864289512504008,,experiment,emotion,0.0,,,,733.2719548000023,132,22,male,True
203,91.0,25,F,up,0.5517356999916956,0.5374254393948761,,experiment,emotion,0.0,,,,734.4885819999035,132,22,male,True
204,83.0,25,M,up,0.3334831000538543,0.4501037637269471,,experiment,emotion,0.0,,,,735.7552059999434,132,22,male,True
205,107.0,25,F,down,0.3668556000338867,1.7331549270999675,,experiment,emotion,0.0,,,,738.18843129999,132,22,male,True
206,99.0,25,F,down,0.4763938999967649,1.9712059079261384,,experiment,emotion,0.0,,,,740.8549519999651,132,22,male,True
207,83.0,25,M,down,0.3167997999116778,0.879056547299613,,experiment,emotion,0.0,,,,742.4716726999031,132,22,male,True
208,107.0,25,M,down,0.7381212000036612,1.5311893850508898,,experiment,emotion,0.0,,,,744.6882001999766,132,22,male,True
209,107.0,25,F,down,0.5702210000017658,0.4500930216964103,,experiment,emotion,0.0,,,,746.1381315999897,132,22,male,True
210,91.0,25,M,down,0.3001622998854145,0.799550896537982,,experiment,emotion,0.0,,,,747.8047537999228,132,22,male,True
211,83.0,25,F,down,0.3168259999947622,1.6604340730256124,,experiment,emotion,0.0,,,,750.154672899982,132,22,male,True
212,91.0,25,M,down,0.3671032999409362,0.7156102356768892,,experiment,emotion,0.0,,,,751.5712754999986,132,22,male,True
213,99.0,25,F,up,0.3001722000772133,0.899498426065966,,experiment,emotion,0.0,,,,753.1545598999364,132,22,male,True
214,83.0,25,M,up,0.3335174999665469,1.0886924767386714,,experiment,emotion,0.0,,,,754.9211571000051,132,22,male,True
215,107.0,25,F,up,0.3501639999449253,0.3644848633114502,,experiment,emotion,0.0,,,,755.9711174999829,132,22,male,True
216,99.0,25,M,up,0.3001606999896467,1.5211013532681537,,experiment,emotion,0.0,,,,758.1877041999251,132,22,male,True
217,107.0,25,F,up,0.4176745000295341,0.706975663435909,,experiment,emotion,0.0,,,,759.5876453999663,132,22,male,True
218,83.0,25,M,up,0.3834888000274077,0.4340812650487823,,experiment,emotion,0.0,,,,760.7209444999462,132,22,male,True
219,99.0,25,F,down,0.3001635000109672,0.6102319737381988,,experiment,emotion,0.0,,,,762.0208963999758,132,22,male,True
220,91.0,25,M,up,0.3503238999983296,1.5210086372300806,,experiment,emotion,0.0,,,,764.2373330999399,132,22,male,True
221,91.0,25,F,up,0.3501526999752968,0.8102741193524758,,experiment,emotion,0.0,,,,765.7374351999024,132,22,male,True
222,99.0,25,F,down,0.4168412999715656,1.1311471386716372,,experiment,emotion,0.0,,,,767.5540248999605,132,22,male,True
223,107.0,25,M,up,0.7106796000152826,0.9272347979666936,,experiment,emotion,0.0,,,,769.1706373000052,132,22,male,True
224,91.0,25,F,down,0.7660754000535235,1.771807900803125,,experiment,emotion,0.0,,,,771.9372161999345,132,22,male,True
225,83.0,25,M,up,0.3501399999950081,1.876994691434518,,experiment,emotion,0.0,,,,774.8537614999805,132,22,male,True
226,83.0,25,M,down,0.3335044999839738,1.125433353583702,,experiment,emotion,0.0,,,,776.6703560999595,132,22,male,True
227,91.0,25,F,down,0.3668274000519886,1.0558380234599432,,experiment,emotion,0.0,,,,778.4202973999782,132,22,male,True
228,107.0,25,F,down,0.3168404999887571,1.7861803557966662,,experiment,emotion,0.0,,,,780.8868647000054,132,22,male,True
229,99.0,25,M,up,0.2835423999931663,0.7768514115296069,,experiment,emotion,0.0,,,,782.353490899899,132,22,male,True
230,83.0,25,F,up,0.4001783999847248,1.175984613147708,,experiment,emotion,0.0,,,,784.220060099964,132,22,male,True
231,107.0,25,M,down,0.2997437000740319,1.432443615735787,,experiment,emotion,0.0,,,,786.3376877999399,132,22,male,True
232,99.0,25,M,up,0.2834776999661699,0.5757547485348657,,experiment,emotion,0.0,,,,787.6033051999984,132,22,male,True
233,99.0,25,M,up,0.3174966999795288,1.4280929516731895,,experiment,emotion,0.0,,,,789.7198933999753,132,22,male,True
234,83.0,25,M,up,0.2335176999913528,1.388809967223147,,experiment,emotion,0.0,,,,791.8031132000033,132,22,male,True
235,91.0,25,M,up,0.3001800000201911,1.9421778718460456,,experiment,emotion,0.0,,,,794.4530570999486,132,22,male,True
236,107.0,25,F,up,0.3336661000503227,0.5681520293175937,,experiment,emotion,0.0,,,,795.7029705999885,132,22,male,True
237,91.0,25,F,up,0.2335175999905914,0.9412823272393718,,experiment,emotion,0.0,,,,797.336255799979,132,22,male,True
238,91.0,25,F,up,0.2501868999097496,1.3921446004319458,,experiment,emotion,0.0,,,,799.4195089999121,132,22,male,True
239,91.0,25,M,up,0.233501199982129,1.7870862546672408,,experiment,emotion,0.0,,,,801.902748499997,132,22,male,True
240,107.0,25,F,up,0.2837787999305874,0.8691950898722087,,experiment,emotion,0.0,,,,803.4693624000065,132,22,male,True
241,99.0,25,F,up,0.4290357999270782,0.4381340077194985,,experiment,emotion,0.0,,,,804.61931739992,132,22,male,True
242,83.0,25,F,up,0.2668428999604657,0.5668052262229437,,experiment,emotion,0.0,,,,805.9026109999977,132,22,male,True
243,83.0,25,M,down,0.2667741000186652,0.4295926258864088,,experiment,emotion,0.0,,,,807.0026297000004,132,22,male,True
244,99.0,25,F,up,0.2835151000181213,1.7549645502987254,,experiment,emotion,0.0,,,,809.4358023999957,132,22,male,True
245,107.0,25,M,up,0.3168411999940872,1.7530536160889345,,experiment,emotion,0.0,,,,811.885715499986,132,22,male,True
246,107.0,25,M,up,0.2834774000803008,1.2911237926247066,,experiment,emotion,0.0,,,,813.8689830999356,132,22,male,True
247,83.0,25,F,down,0.2668446999741718,1.1888424262326978,,experiment,emotion,0.0,,,,815.7355841998942,132,22,male,True
248,107.0,25,M,down,0.3501697999890893,0.511454781908028,,experiment,emotion,0.0,,,,816.9355212999508,132,22,male,True
249,91.0,25,F,down,0.3001716999569908,0.6103548306929716,,experiment,emotion,0.0,,,,818.2354934999021,132,22,male,True
250,99.0,25,M,down,0.5859775000717491,1.3882391546691606,,experiment,emotion,0.0,,,,820.335393599933,132,22,male,True
251,91.0,25,F,down,0.4956179999280721,1.781163312368126,,experiment,emotion,0.0,,,,822.968657999998,132,22,male,True
252,83.0,25,M,down,0.3001718999585137,1.842937495236606,,experiment,emotion,0.0,,,,825.5852324999869,132,22,male,True
253,99.0,25,F,up,0.3168112999992445,1.2319884929890963,,experiment,emotion,0.0,,,,827.501838499913,132,22,male,True
254,91.0,25,F,up,0.3835264999652281,0.8662468908831462,,experiment,emotion,0.0,,,,829.0517107999185,132,22,male,True
255,99.0,25,F,up,0.3001711000688374,1.9515256257498823,,experiment,emotion,0.0,,,,831.7016633999301,132,22,male,True
256,83.0,25,F,up,0.3335061999969184,0.6403029390087407,,experiment,emotion,0.0,,,,833.0349266999401,132,22,male,True
257,107.0,25,F,up,0.4001273999456316,0.3173632816811154,,experiment,emotion,0.0,,,,834.051527399919,132,22,male,True
258,99.0,25,M,up,0.3501706999959424,1.789146687817231,,experiment,emotion,0.0,,,,836.5348334999289,132,22,male,True
259,107.0,25,M,up,0.459221399971284,1.001850438283709,,experiment,emotion,0.0,,,,838.2180802999064,132,22,male,True
260,83.0,25,M,up,0.3834974999772385,0.951931937748191,,experiment,emotion,0.0,,,,839.9180119999219,132,22,male,True
261,91.0,25,M,up,0.250170600018464,1.2006680009734845,,experiment,emotion,0.0,,,,841.8346090998966,132,22,male,True
262,0.2374731046612135,25,up,up,0.5076096999691799,0.7552049394869709,,experiment,cRDM,0.0,,,,845.617795499973,132,22,male,True
263,0.2374731046612135,25,up,up,0.3338415999896824,0.7429490454869885,,experiment,cRDM,0.0,,,,847.1177543000085,132,22,male,True
264,0.2374731046612135,25,down,up,0.3005202999338507,0.7860479026116325,,experiment,cRDM,0.0,,,,848.5843645998975,132,22,male,True
265,0.2374731046612135,25,down,up,0.6886879000812769,1.4984363283737872,,experiment,cRDM,0.0,,,,850.7676181999268,132,22,male,True
266,0.2374731046612135,25,up,up,0.5107392999343574,1.2472766737142342,,experiment,cRDM,0.0,,,,852.9675607999088,132,22,male,True
267,0.2374731046612135,25,down,up,0.4338667000411078,1.3832179783843,,experiment,cRDM,0.0,,,,855.1174593999749,132,22,male,True
268,0.2374731046612135,25,up,up,0.424560800078325,0.5817394245533627,,experiment,cRDM,0.0,,,,856.4007383999415,132,22,male,True
269,0.2374731046612135,25,up,up,0.3505383000010624,1.7047911556194977,,experiment,cRDM,0.0,,,,858.7839910999173,132,22,male,True
270,0.2374731046612135,25,down,up,0.35054710006807,0.4960549447833375,,experiment,cRDM,0.0,,,,859.9672619999619,132,22,male,True
271,0.2374731046612135,25,down,down,0.7247789000393823,1.991572250438567,,experiment,cRDM,0.0,,,,862.650540899951,132,22,male,True
272,0.2374731046612135,25,down,down,0.4438498000381514,0.6067436698516575,,experiment,cRDM,0.0,,,,864.2504995999625,132,22,male,True
273,0.2374731046612135,25,down,down,0.5856277999700978,0.6321947549862426,,experiment,cRDM,0.0,,,,865.583760999958,132,22,male,True
274,0.2374731046612135,25,down,down,0.4239361999789253,0.4130297179135683,,experiment,cRDM,0.0,,,,866.8503841999918,132,22,male,True
275,0.2374731046612135,25,down,down,0.7617405999917537,1.6994419537668584,,experiment,cRDM,0.0,,,,869.2335887999507,132,22,male,True
276,0.2374731046612135,25,up,up,0.4981564000481739,1.1493682498796716,,experiment,cRDM,0.0,,,,871.4001781999832,132,22,male,True
277,0.2374731046612135,25,up,up,0.5742302000289783,0.7783056256206725,,experiment,cRDM,0.0,,,,872.9500883999281,132,22,male,True
278,0.2374731046612135,25,up,up,0.7186896000057459,1.918380199621347,,experiment,cRDM,0.0,,,,875.716693699942,132,22,male,True
279,0.2374731046612135,25,up,up,0.5513683999888599,1.0531515118824322,,experiment,cRDM,0.0,,,,877.7499319999479,132,22,male,True
280,0.2374731046612135,25,down,down,0.6557105999672785,0.7985433664008896,,experiment,cRDM,0.0,,,,879.3665862999624,132,22,male,True
281,0.2374731046612135,25,up,up,0.5481487000361085,1.7416537941081198,,experiment,cRDM,0.0,,,,882.033174399985,132,22,male,True
282,0.2374731046612135,25,up,up,0.6768745000008494,0.5626044926583645,,experiment,cRDM,0.0,,,,883.4164266999578,132,22,male,True
283,0.2374731046612135,25,down,down,0.5146425999701023,1.1494015554146992,,experiment,cRDM,0.0,,,,885.4996753999731,132,22,male,True
284,0.2374731046612135,25,up,up,0.6147437000181526,0.8095394877504412,,experiment,cRDM,0.0,,,,887.0996115999296,132,22,male,True
285,0.2374731046612135,25,down,down,0.7140742000192404,0.8016461626670843,,experiment,cRDM,0.0,,,,888.7662177999737,132,22,male,True
286,0.2374731046612135,25,down,down,0.8101876999717206,0.4691034749562659,,experiment,cRDM,0.0,,,,890.2161865999224,132,22,male,True
287,0.2374731046612135,25,up,up,0.5611987999873236,0.6290393329885744,,experiment,cRDM,0.0,,,,891.9161144999089,132,22,male,True
288,0.2374731046612135,25,up,down,0.8879832999082282,1.8571652524730025,,experiment,cRDM,0.0,,,,894.5993327999022,132,22,male,True
289,0.2374731046612135,25,down,down,0.8530421000905335,1.152536016002241,,experiment,cRDM,0.0,,,,896.8992533999262,132,22,male,True
290,0.2374731046612135,25,up,up,0.5471702999202535,1.2755628218169175,,experiment,cRDM,0.0,,,,899.2991562999086,132,22,male,True
291,0.2374731046612135,25,down,down,0.6105569000355899,1.8674552117950116,,experiment,cRDM,0.0,,,,901.965765699977,132,22,male,True
292,0.2374731046612135,25,down,down,0.5426237999927253,1.481061454071092,,experiment,cRDM,0.0,,,,904.3156339999988,132,22,male,True
293,0.2374731046612135,25,down,down,0.7367654999252409,1.8958131033285144,,experiment,cRDM,0.0,,,,907.0155508999014,132,22,male,True
294,0.2374731046612135,25,up,up,0.5431299000047147,0.3587674458750334,,experiment,cRDM,0.0,,,,908.3821470999392,132,22,male,True
295,0.2374731046612135,25,up,down,0.5728428999427706,0.5334866644499181,,experiment,cRDM,0.0,,,,909.7154455999844,132,22,male,True
296,0.2374731046612135,25,up,up,0.6352754000108689,1.4880601248685452,,experiment,cRDM,0.0,,,,912.0320070999442,132,22,male,True
297,0.2374731046612135,25,down,down,0.4989778000162914,1.0514772800174528,,experiment,cRDM,0.0,,,,913.9653164999328,132,22,male,True
298,0.2374731046612135,25,down,up,0.6828106000320986,0.770005329622176,,experiment,cRDM,0.0,,,,915.4985532999272,132,22,male,True
299,0.2374731046612135,25,up,up,0.3338863999815658,0.976692592324665,,experiment,cRDM,0.0,,,,917.4151355999056,132,22,male,True
300,0.2374731046612135,25,down,down,0.3506256999680772,1.5945626542211555,,experiment,cRDM,0.0,,,,919.6817308999598,132,22,male,True
301,0.2374731046612135,25,up,up,0.267121099983342,0.7899305987547612,,experiment,cRDM,0.0,,,,921.1483880999732,132,22,male,True
302,0.2374731046612135,25,up,down,0.3005790999159217,0.4806864576727868,,experiment,cRDM,0.0,,,,922.2982999999076,132,22,male,True
303,0.2374731046612135,25,up,up,0.3506192999193445,1.9830583384211695,,experiment,cRDM,0.0,,,,924.9648987998952,132,22,male,True
304,0.2374731046612135,25,down,down,0.4167859998997301,1.2370254194437498,,experiment,cRDM,0.0,,,,926.881485599908,132,22,male,True
305,0.2374731046612135,25,down,down,0.7085629999637604,1.6613612112835778,,experiment,cRDM,0.0,,,,929.214725799975,132,22,male,True
306,0.2374731046612135,25,up,up,0.4590112000005319,1.399527854928578,,experiment,cRDM,0.0,,,,931.5813021999784,132,22,male,True
307,0.2374731046612135,25,down,down,0.5226745000109076,0.7711552851069496,,experiment,cRDM,0.0,,,,933.0646090999944,132,22,male,True
308,0.2374731046612135,25,down,down,0.477133399923332,1.1771554875621442,,experiment,cRDM,0.0,,,,935.031160299899,132,22,male,True
309,0.2374731046612135,25,up,up,0.3004827999975532,0.6131922726736407,,experiment,cRDM,0.0,,,,936.3811184999068,132,22,male,True
310,0.2374731046612135,25,up,down,0.3171996999299153,1.344332222428824,,experiment,cRDM,0.0,,,,938.3977193000028,132,22,male,True
311,0.2374731046612135,25,down,down,0.3171240000519901,1.0124638356857851,,experiment,cRDM,0.0,,,,940.0810225999448,132,22,male,True
312,0.2374731046612135,25,up,up,0.3838209999958053,1.4384319944422737,,experiment,cRDM,0.0,,,,942.1975756000028,132,22,male,True
313,0.2374731046612135,25,down,down,0.3671678000828251,1.9340709657101796,,experiment,cRDM,0.0,,,,944.8141442999477,132,22,male,True
314,0.2374731046612135,25,down,up,0.3338497999357059,1.5571008087404643,,experiment,cRDM,0.0,,,,947.0640581999904,132,22,male,True
315,0.2374731046612135,25,down,down,0.3005675000604242,1.5113077026054065,,experiment,cRDM,0.0,,,,949.263966199942,132,22,male,True
316,0.2374731046612135,25,up,up,0.3671912000281736,1.1708772108604355,,experiment,cRDM,0.0,,,,951.1138593999204,132,22,male,True
317,0.2374731046612135,25,up,down,0.250484999967739,1.372309312027547,,experiment,cRDM,0.0,,,,953.1805120999924,132,22,male,True
318,0.2374731046612135,25,down,down,0.5292120000813156,1.7326222542716752,,experiment,cRDM,0.0,,,,955.5970732999268,132,22,male,True
319,0.2374731046612135,25,down,down,0.513922999962233,0.7374189801614482,,experiment,cRDM,0.0,,,,957.1303788999794,132,22,male,True
320,0.2374731046612135,25,up,up,0.4168288999935612,1.676544381074418,,experiment,cRDM,0.0,,,,959.5802616999716,132,22,male,True
321,0.2374731046612135,25,up,up,0.3839085000799969,1.3066138091899506,,experiment,cRDM,0.0,,,,961.563561399933,132,22,male,True
322,0.2374731046612135,25,up,up,0.4168282999889925,1.963320627263469,,experiment,cRDM,0.0,,,,964.1967189999996,132,22,male,True
323,0.2374731046612135,25,up,up,0.4241965999826789,0.3078312506135059,,experiment,cRDM,0.0,,,,965.1800825999816,132,22,male,True
324,0.2374731046612135,25,up,up,0.3005350000457838,0.466809982477304,,experiment,cRDM,0.0,,,,966.3466961999655,132,22,male,True
325,0.2374731046612135,25,down,down,0.6106686000712216,1.130751018518539,,experiment,cRDM,0.0,,,,968.146640599938,132,22,male,True
326,0.2374731046612135,25,down,down,0.4568068999797106,1.2415413643937416,,experiment,cRDM,0.0,,,,970.2464825999924,132,22,male,True
327,0.2374731046612135,25,up,up,0.5081059000222012,0.3447174798230382,,experiment,cRDM,0.0,,,,971.313177999924,132,22,male,True
328,0.2374731046612135,25,down,down,0.4248714999994263,1.361304794573917,,experiment,cRDM,0.0,,,,973.4464118999896,132,22,male,True
329,0.2374731046612135,25,down,down,0.4322032999480143,0.3741909137396164,,experiment,cRDM,0.0,,,,974.5130743999034,132,22,male,True
330,0.2374731046612135,25,down,up,0.2837353000650182,0.5063108064762126,,experiment,cRDM,0.0,,,,975.7130899999756,132,22,male,True
331,0.2374731046612135,25,up,up,0.4340143000008538,1.9054547709611744,,experiment,cRDM,0.0,,,,978.2962388999294,132,22,male,True
332,0.2374731046612135,25,down,down,0.3338541999692097,1.2085438131984858,,experiment,cRDM,0.0,,,,980.212833800004,132,22,male,True
333,0.2374731046612135,25,down,up,0.3671922000357881,0.4122784209311471,,experiment,cRDM,0.0,,,,981.2961211999644,132,22,male,True
334,0.2374731046612135,25,down,down,0.2838160999817773,0.4607085892645051,,experiment,cRDM,0.0,,,,982.4461090998956,132,22,male,True
335,0.2374731046612135,25,up,up,0.2838191000046208,0.4584368789242722,,experiment,cRDM,0.0,,,,983.5793895999668,132,22,male,True
336,0.2374731046612135,25,up,up,0.5503491000272334,1.93756661629812,,experiment,cRDM,0.0,,,,986.1959491999588,132,22,male,True
337,0.2374731046612135,25,down,down,0.5517667001113296,0.5953108201057307,,experiment,cRDM,0.0,,,,987.612544799922,132,22,male,True
338,0.2374731046612135,25,up,up,0.4481756000313908,1.987462380038292,,experiment,cRDM,0.0,,,,990.4291577999248,132,22,male,True
339,0.2374731046612135,25,down,down,0.3505479999585077,0.7899118750397733,,experiment,cRDM,0.0,,,,991.929025899968,132,22,male,True
340,0.2374731046612135,25,up,up,0.2838693999219686,0.7258950179827561,,experiment,cRDM,0.0,,,,993.3457075000042,132,22,male,True
341,0.2374731046612135,25,up,up,0.3837506999261677,0.5082546168632777,,experiment,cRDM,0.0,,,,994.5456692998996,132,22,male,True
342,107.0,25,M,up,0.6677324998890981,0.5508627587179207,,experiment,emotion,1.0,,,,998.4455312999198,132,22,male,True
343,83.0,25,M,up,0.4167496999725699,0.5999962769334739,,experiment,emotion,1.0,,,,999.995446399902,132,22,male,True
344,99.0,25,F,down,0.4167633999604732,1.8590771567269944,,experiment,emotion,1.0,,,,1002.5620304999176,132,22,male,True
345,107.0,25,F,down,0.3501808999571949,0.3996434713828378,,experiment,emotion,1.0,,,,1003.6453174999916,132,22,male,True
346,99.0,25,M,down,0.3335016000783071,0.6272083714289309,,experiment,emotion,1.0,,,,1004.96192469995,132,22,male,True
347,91.0,25,F,down,0.3502343000145629,0.5587545798722249,,experiment,emotion,1.0,,,,1006.2285011999776,132,22,male,True
348,83.0,25,M,down,0.540813000057824,0.8251927370376517,,experiment,emotion,1.0,,,,1007.728527899948,132,22,male,True
349,91.0,25,M,up,0.5148368000518531,1.4864172175645094,,experiment,emotion,1.0,,,,1010.0284445999424,132,22,male,True
350,107.0,25,F,up,0.3501833999762311,0.3025516839247622,,experiment,emotion,1.0,,,,1011.1116830999964,132,22,male,True
351,91.0,25,F,up,0.662331199971959,1.5039377643739351,,experiment,emotion,1.0,,,,1013.2949432999594,132,22,male,True
352,99.0,25,F,up,0.4754030999029055,1.505451943482612,,experiment,emotion,1.0,,,,1015.7448666999117,132,22,male,True
353,107.0,25,F,up,0.5368167000124231,1.0749006426993817,,experiment,emotion,1.0,,,,1017.5614606000016,132,22,male,True
354,99.0,25,F,up,0.3335358999902382,0.4187592955188084,,experiment,emotion,1.0,,,,1018.7947583999484,132,22,male,True
355,83.0,25,F,up,0.3001704999478534,0.6879206341948397,,experiment,emotion,1.0,,,,1020.1780342999846,132,22,male,True
356,91.0,25,M,up,0.3835144999902695,1.1607900141206318,,experiment,emotion,1.0,,,,1022.0112955999792,132,22,male,True
357,83.0,25,M,down,0.4005197000224143,1.9202417498237287,,experiment,emotion,1.0,,,,1024.6278427999932,132,22,male,True
358,107.0,25,M,down,0.3501618000445887,0.5308950798496296,,experiment,emotion,1.0,,,,1025.861160099972,132,22,male,True
359,83.0,25,M,down,0.5204807999543846,0.9005911134186306,,experiment,emotion,1.0,,,,1027.4277940999018,132,22,male,True
360,99.0,25,F,down,0.4001815000083297,0.9448598272357216,,experiment,emotion,1.0,,,,1029.1610299999593,132,22,male,True
361,99.0,25,M,up,0.3002481999574229,1.190167692013157,,experiment,emotion,1.0,,,,1031.0443109999178,132,22,male,True
362,91.0,25,M,up,0.3667933000251651,0.4505817797316696,,experiment,emotion,1.0,,,,1032.1942818999523,132,22,male,True
363,91.0,25,F,up,0.4313798999646678,0.5161071591207579,,experiment,emotion,1.0,,,,1033.4108944999753,132,22,male,True
364,83.0,25,M,up,0.3502728999592364,0.934294073279018,,experiment,emotion,1.0,,,,1035.0440919999965,132,22,male,True
365,107.0,25,F,up,0.5442637000232935,1.7016796081709378,,experiment,emotion,1.0,,,,1037.4440699999686,132,22,male,True
366,99.0,25,F,up,0.366841800045222,1.4498954517748468,,experiment,emotion,1.0,,,,1039.7106719999574,132,22,male,True
367,83.0,25,M,up,0.3002015000674873,0.7702107197065102,,experiment,emotion,1.0,,,,1041.1772518999642,132,22,male,True
368,107.0,25,M,up,0.2835151999024674,0.8454760414944913,,experiment,emotion,1.0,,,,1042.7105125999078,132,22,male,True
369,107.0,25,F,up,0.3001967000309378,1.6109365840102468,,experiment,emotion,1.0,,,,1044.9937562999548,132,22,male,True
370,91.0,25,M,up,0.333532000076957,1.453096102149602,,experiment,emotion,1.0,,,,1047.1437079999596,132,22,male,True
371,83.0,25,F,up,0.3001652000239119,1.0057372473910586,,experiment,emotion,1.0,,,,1048.826988999965,132,22,male,True
372,91.0,25,F,down,0.3001752999844029,0.9104676943826676,,experiment,emotion,1.0,,,,1050.410214399919,132,22,male,True
373,99.0,25,F,up,0.2834272000472992,0.7587037156222232,,experiment,emotion,1.0,,,,1051.8435159999644,132,22,male,True
374,83.0,25,M,up,0.3668706000316888,0.6435533627140069,,experiment,emotion,1.0,,,,1053.1768128999977,132,22,male,True
375,107.0,25,M,up,0.3168294999049976,1.4895331515075256,,experiment,emotion,1.0,,,,1055.3600671999156,132,22,male,True
376,99.0,25,M,up,0.4001837000250816,1.3728021024859156,,experiment,emotion,1.0,,,,1057.4100066999672,132,22,male,True
377,107.0,25,F,up,0.4323601999785751,1.2561028761273176,,experiment,emotion,1.0,,,,1059.3599222999765,132,22,male,True
378,83.0,25,F,up,0.4900497000198811,0.9197684200974612,,experiment,emotion,1.0,,,,1060.9931970000034,132,22,male,True
379,99.0,25,M,up,0.5371034999843687,0.6433811680991361,,experiment,emotion,1.0,,,,1062.39314499998,132,22,male,True
380,91.0,25,F,down,0.678155199973844,0.4309817877461315,,experiment,emotion,1.0,,,,1063.643118799897,132,22,male,True
381,91.0,25,M,up,0.50386980001349,0.4440233811277584,,experiment,emotion,1.0,,,,1065.0264263999416,132,22,male,True
382,99.0,25,M,up,0.3334988999413326,1.7614301983943148,,experiment,emotion,1.0,,,,1067.5596272998955,132,22,male,True
383,107.0,25,M,up,0.2835431999992579,1.704061594945642,,experiment,emotion,1.0,,,,1069.9428722999291,132,22,male,True
384,91.0,25,F,down,0.3336167000234127,0.9970298672716916,,experiment,emotion,1.0,,,,1071.6260201999685,132,22,male,True
385,83.0,25,F,up,0.2834855000255629,1.3440827341775854,,experiment,emotion,1.0,,,,1073.6760766999796,132,22,male,True
386,83.0,25,M,down,0.3334940000204369,1.5627032130385297,,experiment,emotion,1.0,,,,1075.9426457999507,132,22,male,True
387,91.0,25,F,down,0.4953479999676347,0.530129658320044,,experiment,emotion,1.0,,,,1077.1759253999917,132,22,male,True
388,107.0,25,F,up,0.3001842000521719,1.7661594668261795,,experiment,emotion,1.0,,,,1079.709157699952,132,22,male,True
389,99.0,25,M,up,0.366889200056903,0.924223499917876,,experiment,emotion,1.0,,,,1081.3257978999754,132,22,male,True
390,83.0,25,M,down,0.300291100051254,1.6384820381226537,,experiment,emotion,1.0,,,,1083.6590244999388,132,22,male,True
391,107.0,25,F,down,0.4956343999365344,0.4253061380894741,,experiment,emotion,1.0,,,,1084.7756549000042,132,22,male,True
392,99.0,25,M,up,0.3168350999476388,0.4634783372278338,,experiment,emotion,1.0,,,,1085.9922686999198,132,22,male,True
393,99.0,25,F,up,0.3001723000779748,1.174680276355705,,experiment,emotion,1.0,,,,1087.8588768999325,132,22,male,True
394,83.0,25,F,up,0.2835002000210807,0.5029286766718015,,experiment,emotion,1.0,,,,1089.042158599943,132,22,male,True
395,91.0,25,F,up,0.3335064999992028,0.5826005612324889,,experiment,emotion,1.0,,,,1090.3254401999293,132,22,male,True
396,107.0,25,M,up,0.3001736999722197,0.7717892144387007,,experiment,emotion,1.0,,,,1091.7753823999085,132,22,male,True
397,91.0,25,M,down,0.2834313999628648,1.1834320502686222,,experiment,emotion,1.0,,,,1093.6419981999788,132,22,male,True
398,91.0,25,F,down,0.2834950999822467,1.6913400990415235,,experiment,emotion,1.0,,,,1096.025273499894,132,22,male,True
399,91.0,25,F,up,0.2833365999395028,1.6132064392235044,,experiment,emotion,1.0,,,,1098.341781899915,132,22,male,True
400,107.0,25,M,down,0.266795799951069,0.8892678553342248,,experiment,emotion,1.0,,,,1099.9251347999088,132,22,male,True
401,99.0,25,M,up,0.2668176000006497,1.7395196778349171,,experiment,emotion,1.0,,,,1102.3583523998968,132,22,male,True
402,83.0,25,M,up,0.2835037000477314,1.9203743228974512,,experiment,emotion,1.0,,,,1104.9749228999715,132,22,male,True
403,83.0,25,M,down,0.4200922000454739,1.0872102721824657,,experiment,emotion,1.0,,,,1106.7581868999405,132,22,male,True
404,99.0,25,M,up,0.2835287998896092,1.6645579186579442,,experiment,emotion,1.0,,,,1109.1080648999196,132,22,male,True
405,107.0,25,F,up,0.3668847999069839,0.6112682139384285,,experiment,emotion,1.0,,,,1110.4079803999048,132,22,male,True
406,107.0,25,F,up,0.4002152000321075,0.5156259031800852,,experiment,emotion,1.0,,,,1111.6079613999464,132,22,male,True
407,83.0,25,M,up,0.3502607000991702,0.3936771255847249,,experiment,emotion,1.0,,,,1112.6912830999354,132,22,male,True
408,107.0,25,F,up,0.3168440000154078,1.0961338073104208,,experiment,emotion,1.0,,,,1114.491210899898,132,22,male,True
409,91.0,25,F,up,0.3001702999463305,0.7687255298867304,,experiment,emotion,1.0,,,,1115.9578350000083,132,22,male,True
410,99.0,25,F,up,0.3501333999447524,0.9342271254140532,,experiment,emotion,1.0,,,,1117.5744425999,132,22,male,True
411,91.0,25,M,up,0.4575850000837818,0.8073126334551766,,experiment,emotion,1.0,,,,1119.057706499938,132,22,male,True
412,83.0,25,F,up,0.4168482000241056,1.823577014368712,,experiment,emotion,1.0,,,,1121.6076102999505,132,22,male,True
413,99.0,25,F,up,0.3835056000389159,1.5155909924249862,,experiment,emotion,1.0,,,,1123.8075225999346,132,22,male,True
414,91.0,25,F,up,0.6338280000491068,1.7023591943561596,,experiment,emotion,1.0,,,,1126.20743509999,132,22,male,True
415,99.0,25,M,up,0.3001703999470919,1.850318856966156,,experiment,emotion,1.0,,,,1128.957345200004,132,22,male,True
416,83.0,25,M,up,0.3668595999479294,0.581110910044513,,experiment,emotion,1.0,,,,1130.2072833999991,132,22,male,True
417,107.0,25,F,up,0.2667935999343171,1.0767120563037271,,experiment,emotion,1.0,,,,1131.990601999918,132,22,male,True
418,99.0,25,M,up,0.266864400007762,1.8298483857905687,,experiment,emotion,1.0,,,,1134.5071316999383,132,22,male,True
419,107.0,25,F,up,0.3335009999573231,0.8134000393277789,,experiment,emotion,1.0,,,,1136.0070932999952,132,22,male,True
420,83.0,25,M,up,0.3168723999988287,1.7422703543974378,,experiment,emotion,1.0,,,,1138.440298700007,132,22,male,True
421,91.0,25,M,up,0.3668393999105319,0.7392125621159475,,experiment,emotion,1.0,,,,1139.8736119999085,132,22,male,True
422,0.2374731046612135,25,up,down,0.5381912000011653,1.1879297488998726,,experiment,cRDM,1.0,,,,1143.7901290999723,132,22,male,True
423,0.2374731046612135,25,up,up,0.4382043000077829,1.936981744200667,,experiment,cRDM,1.0,,,,1146.5400579998968,132,22,male,True
424,0.2374731046612135,25,down,down,0.4797118999995291,1.4568131768460428,,experiment,cRDM,1.0,,,,1148.7065978999017,132,22,male,True
425,0.2374731046612135,25,down,down,0.4907627999782562,1.3001010302005898,,experiment,cRDM,1.0,,,,1150.7565466999076,132,22,male,True
426,0.2374731046612135,25,up,up,0.4447172000072896,0.3541678896935214,,experiment,cRDM,1.0,,,,1151.8564958999632,132,22,male,True
427,0.2374731046612135,25,down,down,0.3338521999539807,0.5811966856796676,,experiment,cRDM,1.0,,,,1153.1398254999658,132,22,male,True
428,0.2374731046612135,25,up,up,0.3505613000597805,1.4484129390704812,,experiment,cRDM,1.0,,,,1155.2730335999513,132,22,male,True
429,0.2374731046612135,25,up,up,0.4179263000842184,1.851665682133261,,experiment,cRDM,1.0,,,,1157.8062859999482,132,22,male,True
430,0.2374731046612135,25,down,down,0.4002729000058025,1.854240109070879,,experiment,cRDM,1.0,,,,1160.3228416999336,132,22,male,True
431,0.2374731046612135,25,down,up,0.3337486999807879,1.9443741261201932,,experiment,cRDM,1.0,,,,1162.939459899906,132,22,male,True
432,0.2374731046612135,25,down,up,0.3671664000721648,0.6266252715589086,,experiment,cRDM,1.0,,,,1164.2394139999524,132,22,male,True
433,0.2374731046612135,25,down,down,0.317155500059016,1.3859387370473626,,experiment,cRDM,1.0,,,,1166.3059819999617,132,22,male,True
434,0.2374731046612135,25,down,up,0.3838334999745711,1.686069056872648,,experiment,cRDM,1.0,,,,1168.6725619999925,132,22,male,True
435,0.2374731046612135,25,down,up,0.4894547000294551,1.242458061124725,,experiment,cRDM,1.0,,,,1170.6057949999813,132,22,male,True
436,0.2374731046612135,25,up,up,0.4985813999082893,1.1063224078008047,,experiment,cRDM,1.0,,,,1172.4557283999166,132,22,male,True
437,0.2374731046612135,25,up,up,0.3838205999927595,0.5402268669195235,,experiment,cRDM,1.0,,,,1173.7556978999637,132,22,male,True
438,0.2374731046612135,25,up,up,0.3505751000484451,1.2403836320769457,,experiment,cRDM,1.0,,,,1175.6722950999392,132,22,male,True
439,0.2374731046612135,25,up,up,0.4002477000467479,1.479301823452566,,experiment,cRDM,1.0,,,,1177.822245099931,132,22,male,True
440,0.2374731046612135,25,down,up,0.3171752999769524,0.5617249317755617,,experiment,cRDM,1.0,,,,1179.0554867999165,132,22,male,True
441,0.2374731046612135,25,up,up,0.4168211999349296,1.772956172071982,,experiment,cRDM,1.0,,,,1181.522096099914,132,22,male,True
442,0.2374731046612135,25,up,up,0.4685620999662205,0.6971487892346082,,experiment,cRDM,1.0,,,,1182.888685099897,132,22,male,True
443,0.2374731046612135,25,down,down,0.5302889000158757,0.9043320622208226,,experiment,cRDM,1.0,,,,1184.521992999944,132,22,male,True
444,0.2374731046612135,25,up,up,0.3339922000886872,1.75226422266091,,experiment,cRDM,1.0,,,,1187.0718777999282,132,22,male,True
445,0.2374731046612135,25,down,down,0.4710917000193149,1.8981168380136857,,experiment,cRDM,1.0,,,,1189.6551106999395,132,22,male,True
446,0.2374731046612135,25,down,down,0.5236043999902904,1.382292966548518,,experiment,cRDM,1.0,,,,1191.7716774999865,132,22,male,True
447,0.2374731046612135,25,up,up,0.3005609000101685,0.8683998705112741,,experiment,cRDM,1.0,,,,1193.421629199991,132,22,male,True
448,0.2374731046612135,25,up,up,0.5276513999560848,0.8227333586719761,,experiment,cRDM,1.0,,,,1194.9215991999954,132,22,male,True
449,0.2374731046612135,25,down,down,0.4550991000141948,1.7187227185293852,,experiment,cRDM,1.0,,,,1197.4381849999772,132,22,male,True
450,0.2374731046612135,25,up,up,0.4003271000692621,1.165237982654164,,experiment,cRDM,1.0,,,,1199.3213274999289,132,22,male,True
451,0.2374731046612135,25,down,down,0.60219370003324,1.0261182644862428,,experiment,cRDM,1.0,,,,1201.0380606999388,132,22,male,True
452,0.2374731046612135,25,down,down,0.4790082999970764,1.8236476933201855,,experiment,cRDM,1.0,,,,1203.7212803999428,132,22,male,True
453,0.2374731046612135,25,down,up,0.267082400037907,1.087851457123565,,experiment,cRDM,1.0,,,,1205.5378970999736,132,22,male,True
454,0.2374731046612135,25,up,up,0.4002476999303326,1.2190568636228074,,experiment,cRDM,1.0,,,,1207.4544601999223,132,22,male,True
455,0.2374731046612135,25,up,up,0.3504918999969959,1.0768126108844345,,experiment,cRDM,1.0,,,,1209.2043718999485,132,22,male,True
456,0.2374731046612135,25,up,up,0.3838443000568077,1.5674633008480685,,experiment,cRDM,1.0,,,,1211.4376595999347,132,22,male,True
457,0.2374731046612135,25,down,down,0.4306527000153437,1.6182230803130186,,experiment,cRDM,1.0,,,,1213.7375942999497,132,22,male,True
458,0.2374731046612135,25,down,up,0.3838449000613764,0.4259117045395333,,experiment,cRDM,1.0,,,,1214.8541666999226,132,22,male,True
459,0.2374731046612135,25,up,up,0.4365213999990374,1.64848321868722,,experiment,cRDM,1.0,,,,1217.17075629998,132,22,male,True
460,0.2374731046612135,25,down,down,0.4898839000379666,1.5623003787320242,,experiment,cRDM,1.0,,,,1219.4373587999726,132,22,male,True
461,0.2374731046612135,25,up,up,0.4669494000263512,0.9464747979197096,,experiment,cRDM,1.0,,,,1221.137325199903,132,22,male,True
462,0.2374731046612135,25,up,up,0.442733500036411,1.6591077108627132,,experiment,cRDM,1.0,,,,1223.5205524999185,132,22,male,True
463,0.2374731046612135,25,up,up,0.4553948999382555,0.877036682762518,,experiment,cRDM,1.0,,,,1225.1037938999943,132,22,male,True
464,0.2374731046612135,25,down,down,0.4396023000590503,1.7810834907571549,,experiment,cRDM,1.0,,,,1227.6036794999382,132,22,male,True
465,0.2374731046612135,25,down,down,0.4632975999265909,1.8740724919874223,,experiment,cRDM,1.0,,,,1230.1869497000007,132,22,male,True
466,0.2374731046612135,25,up,up,0.4634242000756785,1.9318918281296655,,experiment,cRDM,1.0,,,,1232.8368681999857,132,22,male,True
467,0.2374731046612135,25,down,down,0.4601326999254524,0.5079143287005684,,experiment,cRDM,1.0,,,,1234.070131699904,132,22,male,True
468,0.2374731046612135,25,down,down,0.44984909996856,1.5621461202599112,,experiment,cRDM,1.0,,,,1236.3533816999989,132,22,male,True
469,0.2374731046612135,25,up,up,0.2838191000046208,1.689291076984046,,experiment,cRDM,1.0,,,,1238.7533130999657,132,22,male,True
470,0.2374731046612135,25,up,up,0.4374451000476256,1.1946151050853295,,experiment,cRDM,1.0,,,,1240.619824299938,132,22,male,True
471,0.2374731046612135,25,down,down,0.4002286000177264,0.6326003739241237,,experiment,cRDM,1.0,,,,1241.9531897999111,132,22,male,True
472,0.2374731046612135,25,up,up,0.3504463999997824,1.6811005289555456,,experiment,cRDM,1.0,,,,1244.3197729999663,132,22,male,True
473,0.2374731046612135,25,down,down,0.3671666999580338,1.4191698835103244,,experiment,cRDM,1.0,,,,1246.4030136999208,132,22,male,True
474,0.2374731046612135,25,down,down,0.4566131000174209,1.7379397054653851,,experiment,cRDM,1.0,,,,1248.8196071999846,132,22,male,True
475,0.2374731046612135,25,down,down,0.6717020000796765,1.924572560952045,,experiment,cRDM,1.0,,,,1251.4695213999366,132,22,male,True
476,0.2374731046612135,25,up,up,0.4317972999997437,0.4713031435585714,,experiment,cRDM,1.0,,,,1252.8694367998978,132,22,male,True
477,0.2374731046612135,25,up,up,0.563643499976024,1.5415667220243203,,experiment,cRDM,1.0,,,,1255.102634999901,132,22,male,True
478,0.2374731046612135,25,down,down,0.4189869000110775,0.4408490172594639,,experiment,cRDM,1.0,,,,1256.369308799971,132,22,male,True
479,0.2374731046612135,25,down,down,0.3671482999343425,0.3857185168844356,,experiment,cRDM,1.0,,,,1257.43597459991,132,22,male,True
480,0.2374731046612135,25,up,up,0.4507407000055536,1.8395987610180973,,experiment,cRDM,1.0,,,,1259.9525017999113,132,22,male,True
481,0.2374731046612135,25,up,down,0.4002679000841453,0.9027011500953244,,experiment,cRDM,1.0,,,,1261.5691106999293,132,22,male,True
482,0.2374731046612135,25,up,up,0.400246600038372,1.9882007785453448,,experiment,cRDM,1.0,,,,1264.2356889999935,132,22,male,True
483,0.2374731046612135,25,up,up,0.3671478000469506,0.7114139561630257,,experiment,cRDM,1.0,,,,1265.6190043999811,132,22,male,True
484,0.2374731046612135,25,up,up,0.4167635000776499,0.3209945975682903,,experiment,cRDM,1.0,,,,1266.6189546999522,132,22,male,True
485,0.2374731046612135,25,down,down,0.4413502999814227,0.9246047295380908,,experiment,cRDM,1.0,,,,1268.2189078999218,132,22,male,True
486,0.2374731046612135,25,down,down,0.4824468999868259,1.4588334609481035,,experiment,cRDM,1.0,,,,1270.3687935000053,132,22,male,True
487,0.2374731046612135,25,up,up,0.4661516000051051,0.841797654562497,,experiment,cRDM,1.0,,,,1271.9520775999408,132,22,male,True
488,0.2374731046612135,25,down,down,0.5255885000806302,1.8833931217004012,,experiment,cRDM,1.0,,,,1274.568638799945,132,22,male,True
489,0.2374731046612135,25,down,down,0.5029270000522956,0.8397024978207159,,experiment,cRDM,1.0,,,,1276.185290299938,132,22,male,True
490,0.2374731046612135,25,down,down,0.5047198999673128,1.5561683475971086,,experiment,cRDM,1.0,,,,1278.518517899909,132,22,male,True
491,0.2374731046612135,25,up,up,0.5810974000487477,0.4450072915958175,,experiment,cRDM,1.0,,,,1279.735136299976,132,22,male,True
492,0.2374731046612135,25,down,down,0.4915382000617683,0.9721048421154588,,experiment,cRDM,1.0,,,,1281.5517025999725,132,22,male,True
493,0.2374731046612135,25,down,down,0.5165599999018013,1.149430358897727,,experiment,cRDM,1.0,,,,1283.4516748999013,132,22,male,True
494,0.2374731046612135,25,down,down,0.3671822999604046,0.3161527784916503,,experiment,cRDM,1.0,,,,1284.5515995000023,132,22,male,True
495,0.2374731046612135,25,up,up,0.4703760999254882,1.294025005201768,,experiment,cRDM,1.0,,,,1286.5348897000076,132,22,male,True
496,0.2374731046612135,25,up,up,0.5294976000441238,1.5153538830315816,,experiment,cRDM,1.0,,,,1288.784771299921,132,22,male,True
497,0.2374731046612135,25,down,up,0.3338597000110894,1.413030143611695,,experiment,cRDM,1.0,,,,1290.9846935999813,132,22,male,True
498,0.2374731046612135,25,up,down,0.3172578999074176,0.9817240330507068,,experiment,cRDM,1.0,,,,1292.651298899902,132,22,male,True
499,0.2374731046612135,25,down,down,0.3671319999266416,1.0068450508293227,,experiment,cRDM,1.0,,,,1294.334593999898,132,22,male,True
500,0.2374731046612135,25,up,up,0.400252699968405,1.719687198646778,,experiment,cRDM,1.0,,,,1296.734506799956,132,22,male,True
501,0.2374731046612135,25,up,up,0.4291821999941021,1.9903720059510568,,experiment,cRDM,1.0,,,,1299.401049899985,132,22,male,True
502,107.0,25,M,up,0.6038797000655904,1.7378443196321876,,experiment,emotion,2.0,,,,1308.267391399946,132,22,male,True
503,83.0,25,M,up,0.416745499940589,1.0236213381794332,,experiment,emotion,2.0,,,,1310.167353799916,132,22,male,True
504,99.0,25,F,up,0.3501658000750467,1.1540103101735937,,experiment,emotion,2.0,,,,1312.0339309999254,132,22,male,True
505,107.0,25,F,up,0.4461287999292835,0.783790761607347,,experiment,emotion,2.0,,,,1313.5171399998944,132,22,male,True
506,99.0,25,M,up,0.383517500013113,0.5810142084088864,,experiment,emotion,2.0,,,,1314.8171575999586,132,22,male,True
507,91.0,25,F,up,0.3168956999434158,0.6775357307073616,,experiment,emotion,2.0,,,,1316.200372399995,132,22,male,True
508,83.0,25,M,up,0.3166993000777438,1.0973806514973972,,experiment,emotion,2.0,,,,1317.9836974999637,132,22,male,True
509,91.0,25,M,up,0.3001566000748425,1.155476292327175,,experiment,emotion,2.0,,,,1319.833653799957,132,22,male,True
510,107.0,25,F,up,0.316816300037317,1.7266677820394636,,experiment,emotion,2.0,,,,1322.250229600002,132,22,male,True
511,91.0,25,F,up,0.3001572999637574,1.0224468808036389,,experiment,emotion,2.0,,,,1323.9501473999117,132,22,male,True
512,99.0,25,F,up,0.3334718999685719,0.611962918341888,,experiment,emotion,2.0,,,,1325.2501189999748,132,22,male,True
513,107.0,25,F,up,0.3001727999653667,1.1273157778385223,,experiment,emotion,2.0,,,,1327.0667036999948,132,22,male,True
514,99.0,25,F,up,0.4168235999532044,1.7593113949521824,,experiment,emotion,2.0,,,,1329.4999700000044,132,22,male,True
515,83.0,25,F,down,0.4373547999421134,0.8488670257650341,,experiment,emotion,2.0,,,,1331.049901899998,132,22,male,True
516,91.0,25,M,down,0.3168217000784352,1.6846273142567718,,experiment,emotion,2.0,,,,1333.4498167999554,132,22,male,True
517,83.0,25,M,down,0.3834956000791862,0.6312463054782089,,experiment,emotion,2.0,,,,1334.7497462999308,132,22,male,True
518,107.0,25,M,down,0.3001412000739947,1.9795270840501948,,experiment,emotion,2.0,,,,1337.4163363999687,132,22,male,True
519,83.0,25,M,down,0.3668274999363348,0.968452242195309,,experiment,emotion,2.0,,,,1339.0662631999005,132,22,male,True
520,99.0,25,F,down,0.3168427000055089,1.7212655504105974,,experiment,emotion,2.0,,,,1341.4995052999584,132,22,male,True
521,99.0,25,M,up,0.3334992999443784,0.6575422492479448,,experiment,emotion,2.0,,,,1342.8494558999082,132,22,male,True
522,91.0,25,M,up,0.4001836999086663,0.3125940870277363,,experiment,emotion,2.0,,,,1343.866076299921,132,22,male,True
523,91.0,25,F,up,0.3501763000385836,1.4915640960410264,,experiment,emotion,2.0,,,,1346.049327799934,132,22,male,True
524,83.0,25,M,down,0.6510338000953197,1.668111289826908,,experiment,emotion,2.0,,,,1348.399192999932,132,22,male,True
525,107.0,25,F,down,0.4168169000186026,0.3394650149363881,,experiment,emotion,2.0,,,,1349.6492135999724,132,22,male,True
526,99.0,25,F,up,0.5601156000047922,1.3460987899087389,,experiment,emotion,2.0,,,,1351.699107699911,132,22,male,True
527,83.0,25,M,up,0.664180799969472,1.719798264957146,,experiment,emotion,2.0,,,,1354.2490168999648,132,22,male,True
528,107.0,25,M,down,0.6436223000055179,1.6339729522109272,,experiment,emotion,2.0,,,,1356.8155999999726,132,22,male,True
529,107.0,25,F,up,0.5193459000438452,0.835913368409303,,experiment,emotion,2.0,,,,1358.5488759999862,132,22,male,True
530,91.0,25,M,up,0.6530794000718743,0.7762482271498372,,experiment,emotion,2.0,,,,1360.1321460999316,132,22,male,True
531,83.0,25,F,up,0.6234530999790877,0.7762296619708502,,experiment,emotion,2.0,,,,1361.8487511998974,132,22,male,True
532,91.0,25,F,up,0.41703230002895,1.7244321240694138,,experiment,emotion,2.0,,,,1364.4653083999874,132,22,male,True
533,99.0,25,F,up,0.5499704000540078,1.099752358424892,,experiment,emotion,2.0,,,,1366.2652515999507,132,22,male,True
534,83.0,25,M,up,0.350158300017938,1.9488281822677112,,experiment,emotion,2.0,,,,1369.031824799953,132,22,male,True
535,107.0,25,M,up,0.5154755000257865,1.3491404014887012,,experiment,emotion,2.0,,,,1371.0817419999512,132,22,male,True
536,99.0,25,M,up,0.4239122999133542,1.2785546901088658,,experiment,emotion,2.0,,,,1373.1483350999188,132,22,male,True
537,107.0,25,F,up,0.3668357999995351,1.9078121904426328,,experiment,emotion,2.0,,,,1375.7649047999876,132,22,male,True
538,83.0,25,F,up,0.4417369000148028,1.089943784928179,,experiment,emotion,2.0,,,,1377.5315079999857,132,22,male,True
539,99.0,25,M,up,0.3501404999988153,1.068480918424909,,experiment,emotion,2.0,,,,1379.3147967999105,132,22,male,True
540,91.0,25,F,up,0.4003773999866098,0.6882828559356804,,experiment,emotion,2.0,,,,1380.698124699993,132,22,male,True
541,91.0,25,M,up,0.3501561000011861,1.700672634131148,,experiment,emotion,2.0,,,,1383.0979620999424,132,22,male,True
542,99.0,25,M,up,0.4394324000459164,1.9658290303307515,,experiment,emotion,2.0,,,,1385.7478236999596,132,22,male,True
543,107.0,25,M,up,0.3835121999727562,1.5823311113802467,,experiment,emotion,2.0,,,,1388.047791799996,132,22,male,True
544,91.0,25,F,up,0.4392410999862477,1.9420912152464096,,experiment,emotion,2.0,,,,1390.681002199999,132,22,male,True
545,83.0,25,F,up,0.3668533000163734,0.3760418258642312,,experiment,emotion,2.0,,,,1391.7809881999856,132,22,male,True
546,83.0,25,M,up,0.3501454000361264,0.7665802500985548,,experiment,emotion,2.0,,,,1393.2309330999851,132,22,male,True
547,91.0,25,F,up,0.3668351999949664,1.880038002870644,,experiment,emotion,2.0,,,,1395.7974979999708,132,22,male,True
548,107.0,25,F,up,0.3168307000305503,1.3496012412297147,,experiment,emotion,2.0,,,,1397.847427599947,132,22,male,True
549,99.0,25,M,up,0.3168956000590697,0.7755080592086746,,experiment,emotion,2.0,,,,1399.2973590999609,132,22,male,True
550,83.0,25,M,up,0.3501792999450117,0.8201407944360737,,experiment,emotion,2.0,,,,1400.7973029999994,132,22,male,True
551,107.0,25,F,up,0.4196908000158146,1.500020187727124,,experiment,emotion,2.0,,,,1402.9805897999322,132,22,male,True
552,99.0,25,M,up,0.3169652000069618,1.919485843497096,,experiment,emotion,2.0,,,,1405.5804474999895,132,22,male,True
553,99.0,25,F,up,0.3002052999800071,0.8213579981279633,,experiment,emotion,2.0,,,,1407.0970709999092,132,22,male,True
554,83.0,25,F,up,0.3333932000678032,0.7180668278422387,,experiment,emotion,2.0,,,,1408.5137996999547,132,22,male,True
555,91.0,25,F,up,0.4001916999695822,1.4567961759569414,,experiment,emotion,2.0,,,,1410.6802798999706,132,22,male,True
556,107.0,25,M,up,0.5677187000401318,0.9974869606095338,,experiment,emotion,2.0,,,,1412.3635303999763,132,22,male,True
557,91.0,25,M,up,0.3835228000534698,1.869996121399241,,experiment,emotion,2.0,,,,1415.0634695999324,132,22,male,True
558,91.0,25,F,up,0.453118700068444,0.9420112603862782,,experiment,emotion,2.0,,,,1416.6800951999612,132,22,male,True
559,91.0,25,F,up,0.3167764999670908,1.3813168979188126,,experiment,emotion,2.0,,,,1418.779997699894,132,22,male,True
560,107.0,25,M,up,0.4273077000398189,0.6621224845207621,,experiment,emotion,2.0,,,,1420.129930999945,132,22,male,True
561,99.0,25,M,up,0.3668285999447107,1.8665030869195935,,experiment,emotion,2.0,,,,1422.7131728999084,132,22,male,True
562,83.0,25,M,up,0.4002170000458136,0.9885039835257448,,experiment,emotion,2.0,,,,1424.3963671999518,132,22,male,True
563,83.0,25,M,up,0.3001546999439597,0.9457691593139754,,experiment,emotion,2.0,,,,1426.0130747999065,132,22,male,True
564,99.0,25,M,up,0.4263162000570446,1.4046914804342314,,experiment,emotion,2.0,,,,1428.1129906999413,132,22,male,True
565,107.0,25,F,up,0.4856197000481188,0.3204085764615652,,experiment,emotion,2.0,,,,1429.1296261999523,132,22,male,True
566,107.0,25,F,up,0.3168170999269932,0.873457159823678,,experiment,emotion,2.0,,,,1430.7628751999,132,22,male,True
567,83.0,25,M,up,0.3169036000035703,0.8622776956124327,,experiment,emotion,2.0,,,,1432.3128242999082,132,22,male,True
568,107.0,25,F,down,0.6214789000805467,1.8103018691444703,,experiment,emotion,2.0,,,,1434.812735599931,132,22,male,True
569,91.0,25,F,down,0.4675754000199958,1.836724366618789,,experiment,emotion,2.0,,,,1437.5626353999833,132,22,male,True
570,99.0,25,F,down,0.4204475999576971,0.8829140557336481,,experiment,emotion,2.0,,,,1439.1957834999776,132,22,male,True
571,91.0,25,M,down,0.4166346000274643,1.6016165735002623,,experiment,emotion,2.0,,,,1441.4791316000046,132,22,male,True
572,83.0,25,F,up,0.4167773999506607,1.5181389886602492,,experiment,emotion,2.0,,,,1443.6790483999066,132,22,male,True
573,99.0,25,F,up,0.3668344999896362,0.9041436234357754,,experiment,emotion,2.0,,,,1445.2789893998995,132,22,male,True
574,91.0,25,F,up,0.4895820999518037,0.3838869241109453,,experiment,emotion,2.0,,,,1446.3456321998965,132,22,male,True
575,99.0,25,M,up,0.2834706999128684,0.999411062163668,,experiment,emotion,2.0,,,,1448.1122356998967,132,22,male,True
576,83.0,25,M,up,0.2835161999100819,0.9954613665034716,,experiment,emotion,2.0,,,,1449.7788239999209,132,22,male,True
577,107.0,25,F,up,0.3336223999504,0.616066849694471,,experiment,emotion,2.0,,,,1451.0953375999816,132,22,male,True
578,99.0,25,M,up,0.2668197000166401,1.3525305889011825,,experiment,emotion,2.0,,,,1453.1287170998985,132,22,male,True
579,107.0,25,F,up,0.266812999965623,1.2998430847711584,,experiment,emotion,2.0,,,,1455.111986999982,132,22,male,True
580,83.0,25,M,up,0.350280600017868,1.0212030311161835,,experiment,emotion,2.0,,,,1456.811796599999,132,22,male,True
581,91.0,25,M,up,0.2668352000182494,1.4427932329807418,,experiment,emotion,2.0,,,,1458.961831999943,132,22,male,True
582,0.2374731046612135,25,up,up,0.4002926999237388,0.3188703092468098,,experiment,cRDM,2.0,,,,1463.594977099914,132,22,male,True
583,0.2374731046612135,25,up,up,0.4196943999268114,0.7394719621330432,,experiment,cRDM,2.0,,,,1465.0115168999182,132,22,male,True
584,0.2374731046612135,25,down,down,0.5524372999789193,0.4632368358290202,,experiment,cRDM,2.0,,,,1466.144900699961,132,22,male,True
585,0.2374731046612135,25,down,down,0.416848300024867,1.1945534163936122,,experiment,cRDM,2.0,,,,1468.1614874999505,132,22,male,True
586,0.2374731046612135,25,up,up,0.3171454999828711,0.8140521049124936,,experiment,cRDM,2.0,,,,1469.6614297999768,132,22,male,True
587,0.2374731046612135,25,down,down,0.5188386000227183,1.8684689426999423,,experiment,cRDM,2.0,,,,1472.2113706999226,132,22,male,True
588,0.2374731046612135,25,up,up,0.4200510999653488,1.5189131509200289,,experiment,cRDM,2.0,,,,1474.5112232998945,132,22,male,True
589,0.2374731046612135,25,up,up,0.4839900999795645,0.9172393610746116,,experiment,cRDM,2.0,,,,1476.1112341999542,132,22,male,True
590,0.2374731046612135,25,down,up,0.4002539000939578,1.401465916203988,,experiment,cRDM,2.0,,,,1478.2611060999334,132,22,male,True
591,0.2374731046612135,25,down,up,0.3838042999850586,1.8604970741497324,,experiment,cRDM,2.0,,,,1480.794356499915,132,22,male,True
592,0.2374731046612135,25,down,up,0.4312820999184623,1.4283470449610238,,experiment,cRDM,2.0,,,,1482.9109307999024,132,22,male,True
593,0.2374731046612135,25,down,down,0.5129821000155061,0.579283616990803,,experiment,cRDM,2.0,,,,1484.1942211999558,132,22,male,True
594,0.2374731046612135,25,down,down,0.4631032000761479,1.7264417226252096,,experiment,cRDM,2.0,,,,1486.6941280999454,132,22,male,True
595,0.2374731046612135,25,down,down,0.4701154000358656,1.626172462486098,,experiment,cRDM,2.0,,,,1489.0440583999734,132,22,male,True
596,0.2374731046612135,25,up,up,0.4168369999388233,0.9339769114747628,,experiment,cRDM,2.0,,,,1490.7106485998956,132,22,male,True
597,0.2374731046612135,25,up,up,0.3671354999532923,0.3172351593013402,,experiment,cRDM,2.0,,,,1491.7106458999915,132,22,male,True
598,0.2374731046612135,25,up,up,0.4167746999301016,0.7635686168163296,,experiment,cRDM,2.0,,,,1493.1605627998945,132,22,male,True
599,0.2374731046612135,25,up,up,0.4167365999892354,1.919923932213291,,experiment,cRDM,2.0,,,,1495.7604897998972,132,22,male,True
600,0.2374731046612135,25,down,down,0.4632741000968963,1.548250160257893,,experiment,cRDM,2.0,,,,1497.9939825999318,132,22,male,True
601,0.2374731046612135,25,up,up,0.4285276998998597,1.283143663343251,,experiment,cRDM,2.0,,,,1499.99364339991,132,22,male,True
602,0.2374731046612135,25,up,up,0.3671914999140426,1.1727142323887307,,experiment,cRDM,2.0,,,,1501.8602505999152,132,22,male,True
603,0.2374731046612135,25,down,down,0.4396804999560117,1.250377230060176,,experiment,cRDM,2.0,,,,1503.7935270000016,132,22,male,True
604,0.2374731046612135,25,up,up,0.3505004999460652,1.676394696354043,,experiment,cRDM,2.0,,,,1506.1767405999126,132,22,male,True
605,0.2374731046612135,25,down,up,0.4265440000453964,1.5192839413224009,,experiment,cRDM,2.0,,,,1508.3766587999417,132,22,male,True
606,0.2374731046612135,25,down,down,0.5066681000171229,1.8118256259988403,,experiment,cRDM,2.0,,,,1510.876575000002,132,22,male,True
607,0.2374731046612135,25,up,up,0.4506887999596074,0.4190145843074753,,experiment,cRDM,2.0,,,,1512.076521199895,132,22,male,True
608,0.2374731046612135,25,up,down,0.5310532000148669,1.0514656703238063,,experiment,cRDM,2.0,,,,1513.843139100005,132,22,male,True
609,0.2374731046612135,25,down,up,0.4304566999198869,0.8656352601390154,,experiment,cRDM,2.0,,,,1515.509773299913,132,22,male,True
610,0.2374731046612135,25,up,up,0.4428941999794915,1.919976359622828,,experiment,cRDM,2.0,,,,1518.126307599945,132,22,male,True
611,0.2374731046612135,25,down,down,0.4485991999972611,0.9671383658703534,,experiment,cRDM,2.0,,,,1519.8096091999903,132,22,male,True
612,0.2374731046612135,25,down,down,0.4344517000718042,0.9803154098237996,,experiment,cRDM,2.0,,,,1521.492776799947,132,22,male,True
613,0.2374731046612135,25,down,down,0.4700881999451667,1.8394567055029163,,experiment,cRDM,2.0,,,,1524.0261005999057,132,22,male,True
614,0.2374731046612135,25,up,up,0.4622428000438958,0.9049163589784206,,experiment,cRDM,2.0,,,,1525.676011399948,132,22,male,True
615,0.2374731046612135,25,up,up,0.471190599957481,1.834536811256492,,experiment,cRDM,2.0,,,,1528.225965199992,132,22,male,True
616,0.2374731046612135,25,up,down,0.6923530000494793,1.621420222286306,,experiment,cRDM,2.0,,,,1530.5758384999351,132,22,male,True
617,0.2374731046612135,25,down,up,0.2838468999834731,1.3021822496333102,,experiment,cRDM,2.0,,,,1532.8257655999623,132,22,male,True
618,0.2374731046612135,25,down,down,0.4669327000156045,1.890292783741982,,experiment,cRDM,2.0,,,,1535.3923316999571,132,22,male,True
619,0.2374731046612135,25,up,up,0.4312871999572962,1.7965404623628325,,experiment,cRDM,2.0,,,,1537.9089452999178,132,22,male,True
620,0.2374731046612135,25,down,down,0.4414274001028389,1.8564622154074264,,experiment,cRDM,2.0,,,,1540.4588173999218,132,22,male,True
621,0.2374731046612135,25,up,up,0.4168357000453397,0.9320674136320046,,experiment,cRDM,2.0,,,,1542.0920793999685,132,22,male,True
622,0.2374731046612135,25,up,up,0.6502023000502959,1.7268527063744277,,experiment,cRDM,2.0,,,,1544.492029899964,132,22,male,True
623,0.2374731046612135,25,up,up,0.6022678000153974,1.434708906737644,,experiment,cRDM,2.0,,,,1546.841930299997,132,22,male,True
624,0.2374731046612135,25,down,down,0.4790362999774515,1.2764491455107363,,experiment,cRDM,2.0,,,,1548.9751648999518,132,22,male,True
625,0.2374731046612135,25,down,down,0.6790327000198886,0.7995020652376537,,experiment,cRDM,2.0,,,,1550.5251349000027,132,22,male,True
626,0.2374731046612135,25,up,up,0.4002313000382855,1.072418339631248,,experiment,cRDM,2.0,,,,1552.5417292999336,132,22,male,True
627,0.2374731046612135,25,down,down,0.5161924998974428,0.5926649839843725,,experiment,cRDM,2.0,,,,1553.8249949999154,132,22,male,True
628,0.2374731046612135,25,down,down,0.4389294000575319,1.254606884447771,,experiment,cRDM,2.0,,,,1555.8582680999534,132,22,male,True
629,0.2374731046612135,25,up,up,0.4386798000195995,1.0264416914514731,,experiment,cRDM,2.0,,,,1557.5915156999836,132,22,male,True
630,0.2374731046612135,25,up,up,0.4724077000282705,0.8712047366928746,,experiment,cRDM,2.0,,,,1559.174790799967,132,22,male,True
631,0.2374731046612135,25,down,down,0.5510748000815511,0.4062056648340724,,experiment,cRDM,2.0,,,,1560.3081172999227,132,22,male,True
632,0.2374731046612135,25,up,down,0.4405306000262499,1.5380356754140876,,experiment,cRDM,2.0,,,,1562.6746337999357,132,22,male,True
633,0.2374731046612135,25,down,down,0.3672697000438347,1.510696856768858,,experiment,cRDM,2.0,,,,1564.8745704999892,132,22,male,True
634,0.2374731046612135,25,down,down,0.463247700012289,0.8561326573810488,,experiment,cRDM,2.0,,,,1566.4078990999842,132,22,male,True
635,0.2374731046612135,25,down,down,0.3839635000331327,0.7561245302480307,,experiment,cRDM,2.0,,,,1567.874475599965,132,22,male,True
636,0.2374731046612135,25,up,up,0.4898515999084338,1.9222681572759213,,experiment,cRDM,2.0,,,,1570.4743637999054,132,22,male,True
637,0.2374731046612135,25,up,up,0.4836097999941557,1.89038613802916,,experiment,cRDM,2.0,,,,1573.1075832999777,132,22,male,True
638,0.2374731046612135,25,down,down,0.4593469999963417,0.6304131738434331,,experiment,cRDM,2.0,,,,1574.4908724999989,132,22,male,True
639,0.2374731046612135,25,down,down,0.3671709999907762,0.437476135552342,,experiment,cRDM,2.0,,,,1575.6408576999092,132,22,male,True
640,0.2374731046612135,25,up,down,0.63240240002051,0.7640966257096582,,experiment,cRDM,2.0,,,,1577.090785499895,132,22,male,True
641,0.2374731046612135,25,up,up,0.4535485999658704,1.9510091875133608,,experiment,cRDM,2.0,,,,1579.9407069999725,132,22,male,True
642,0.2374731046612135,25,up,up,0.67921660002321,1.2681279734232758,,experiment,cRDM,2.0,,,,1581.9239797999617,132,22,male,True
643,0.2374731046612135,25,up,up,0.3837998999515548,1.4997586345465863,,experiment,cRDM,2.0,,,,1584.3572161999764,132,22,male,True
644,0.2374731046612135,25,up,up,0.4002464000368491,1.927054794947266,,experiment,cRDM,2.0,,,,1586.9737711999333,132,22,male,True
645,0.2374731046612135,25,down,down,0.4167459999443963,0.3698053435105036,,experiment,cRDM,2.0,,,,1588.023772099987,132,22,male,True
646,0.2374731046612135,25,down,down,0.4354683000128716,0.406665013424651,,experiment,cRDM,2.0,,,,1589.123724999954,132,22,male,True
647,0.2374731046612135,25,up,up,0.4172246999805793,1.0994116607295406,,experiment,cRDM,2.0,,,,1590.9069624999538,132,22,male,True
648,0.2374731046612135,25,down,up,0.400241499999538,0.5950633291713401,,experiment,cRDM,2.0,,,,1592.1735739998985,132,22,male,True
649,0.2374731046612135,25,down,up,0.416727399919182,1.5979857302829863,,experiment,cRDM,2.0,,,,1594.4568555000003,132,22,male,True
650,0.2374731046612135,25,down,down,0.7394816000014544,1.8198197942911487,,experiment,cRDM,2.0,,,,1596.9567435999634,132,22,male,True
651,0.2374731046612135,25,up,up,0.4995454000309109,0.5111130024036901,,experiment,cRDM,2.0,,,,1598.4566672999645,132,22,male,True
652,0.2374731046612135,25,down,down,0.4666337999515235,1.0379175626021198,,experiment,cRDM,2.0,,,,1600.256605500006,132,22,male,True
653,0.2374731046612135,25,down,down,0.5089625000255182,0.4944401342942419,,experiment,cRDM,2.0,,,,1601.473241799977,132,22,male,True
654,0.2374731046612135,25,down,down,0.4587724999291822,1.7595013162072464,,experiment,cRDM,2.0,,,,1604.006408899906,132,22,male,True
655,0.2374731046612135,25,up,down,0.4194509000517428,0.8689641377801711,,experiment,cRDM,2.0,,,,1605.589739499963,132,22,male,True
656,0.2374731046612135,25,up,up,0.3671293000224978,1.2994759967421197,,experiment,cRDM,2.0,,,,1607.5730193000054,132,22,male,True
657,0.2374731046612135,25,down,down,0.6309198000235483,0.598666723168823,,experiment,cRDM,2.0,,,,1608.8562955999514,132,22,male,True
658,0.2374731046612135,25,up,up,0.4167118000332266,1.8550659794513624,,experiment,cRDM,2.0,,,,1611.606267999974,132,22,male,True
659,0.2374731046612135,25,down,down,0.4907726999372244,0.3847216417861081,,experiment,cRDM,2.0,,,,1612.689441800001,132,22,male,True
660,0.2374731046612135,25,up,up,0.4541232000337913,0.4100511081006611,,experiment,cRDM,2.0,,,,1613.8561024999944,132,22,male,True
661,0.2374731046612135,25,up,down,0.4324222999857738,0.3952952363053254,,experiment,cRDM,2.0,,,,1614.9727326999418,132,22,male,True
662,107.0,25,M,up,0.76071909989696,1.638177242910933,,experiment,emotion,3.0,,,,1649.4714612999232,132,22,male,True
663,83.0,25,M,up,0.3669475000351667,0.805034010310282,,experiment,emotion,3.0,,,,1651.321407899959,132,22,male,True
664,99.0,25,F,up,0.3835129999788478,1.4401227528903704,,experiment,emotion,3.0,,,,1653.4713017999893,132,22,male,True
665,107.0,25,F,up,0.5196433999808505,1.950151192159712,,experiment,emotion,3.0,,,,1656.104571999982,132,22,male,True
666,99.0,25,M,up,0.3335580000421032,1.0541160092857005,,experiment,emotion,3.0,,,,1657.9544850999955,132,22,male,True
667,91.0,25,F,up,0.2834921000758186,1.576881791521195,,experiment,emotion,3.0,,,,1660.2210802999325,132,22,male,True
668,83.0,25,M,up,0.3501505999593064,0.8829301874389031,,experiment,emotion,3.0,,,,1661.804354499909,132,22,male,True
669,91.0,25,M,up,0.3835127999773249,1.5556399121997857,,experiment,emotion,3.0,,,,1664.0542544999626,132,22,male,True
670,107.0,25,F,up,0.3001835000468418,1.6320135400093885,,experiment,emotion,3.0,,,,1666.370823699981,132,22,male,True
671,91.0,25,F,up,0.333499800064601,0.5672012011888788,,experiment,emotion,3.0,,,,1667.6207923999757,132,22,male,True
672,99.0,25,F,up,0.3168804999440908,0.9879269646489088,,experiment,emotion,3.0,,,,1669.2873834999043,132,22,male,True
673,107.0,25,F,up,0.300140600069426,1.732263707404929,,experiment,emotion,3.0,,,,1671.7206682999386,132,22,male,True
674,99.0,25,F,up,0.3335466999560594,0.6220240500176512,,experiment,emotion,3.0,,,,1673.0205925999908,132,22,male,True
675,83.0,25,F,up,0.3001641000155359,1.3609755834629098,,experiment,emotion,3.0,,,,1675.070505199954,132,22,male,True
676,91.0,25,M,up,0.3001513999188319,1.01570264228297,,experiment,emotion,3.0,,,,1676.7704608999193,132,22,male,True
677,83.0,25,M,up,0.3335563000291586,0.9403578383255304,,experiment,emotion,3.0,,,,1678.3870456999866,132,22,male,True
678,107.0,25,M,up,0.2834368000039831,0.9249411179128636,,experiment,emotion,3.0,,,,1680.0037228999429,132,22,male,True
679,83.0,25,M,up,0.3168739000102505,0.7779514787252073,,experiment,emotion,3.0,,,,1681.4703007999342,132,22,male,True
680,99.0,25,F,up,0.2334600000176578,1.0933645278579216,,experiment,emotion,3.0,,,,1683.253559099976,132,22,male,True
681,99.0,25,M,up,0.3502447999780997,0.4300983343121839,,experiment,emotion,3.0,,,,1684.3701535,132,22,male,True
682,91.0,25,M,up,0.2669234999921173,1.1969083358393688,,experiment,emotion,3.0,,,,1686.2367766000098,132,22,male,True
683,91.0,25,F,up,0.3001843999372795,1.8427770397474004,,experiment,emotion,3.0,,,,1688.7699996999,132,22,male,True
684,83.0,25,M,up,0.350172400008887,1.3875978550841948,,experiment,emotion,3.0,,,,1690.853272999986,132,22,male,True
685,107.0,25,F,up,0.2834923999616876,1.0085170852521017,,experiment,emotion,3.0,,,,1692.5532232999103,132,22,male,True
686,99.0,25,F,up,0.3334962999215349,1.3109378207821158,,experiment,emotion,3.0,,,,1694.55314679991,132,22,male,True
687,83.0,25,M,up,0.400182000012137,0.4714885975748668,,experiment,emotion,3.0,,,,1695.7197568999836,132,22,male,True
688,107.0,25,M,up,0.2834606999531388,1.4767207672272946,,experiment,emotion,3.0,,,,1697.886364899925,132,22,male,True
689,107.0,25,F,up,0.316835599951446,0.949480033623738,,experiment,emotion,3.0,,,,1699.5362800000005,132,22,male,True
690,91.0,25,M,up,0.4167936999583617,1.920844302871601,,experiment,emotion,3.0,,,,1702.1361894999864,132,22,male,True
691,83.0,25,F,up,0.3001219999277964,1.0405747722795855,,experiment,emotion,3.0,,,,1703.8528195999097,132,22,male,True
692,91.0,25,F,down,0.4822801999980584,1.1584644091550895,,experiment,emotion,3.0,,,,1705.703023899929,132,22,male,True
693,99.0,25,F,down,0.560173699981533,0.6905200901630291,,experiment,emotion,3.0,,,,1707.1360063999891,132,22,male,True
694,83.0,25,M,up,0.2834525000071153,1.0136159001017782,,experiment,emotion,3.0,,,,1708.9859520999016,132,22,male,True
695,107.0,25,M,down,0.4167589000426233,1.7547612653639544,,experiment,emotion,3.0,,,,1711.4191947999643,132,22,male,True
696,99.0,25,M,down,0.5280727000208572,1.155304651401705,,experiment,emotion,3.0,,,,1713.2691013999283,132,22,male,True
697,107.0,25,F,up,0.4444426000118255,1.9518073416709925,,experiment,emotion,3.0,,,,1716.0356838000007,132,22,male,True
698,83.0,25,F,down,0.3668575999327004,0.6905455095397974,,experiment,emotion,3.0,,,,1717.4356225999072,132,22,male,True
699,99.0,25,M,up,0.4002179000526666,0.4121521541581648,,experiment,emotion,3.0,,,,1718.5355904999888,132,22,male,True
700,91.0,25,F,up,0.2669976999750361,1.450681814654563,,experiment,emotion,3.0,,,,1720.7020721998997,132,22,male,True
701,91.0,25,M,up,0.3668708999175578,0.3459630734043314,,experiment,emotion,3.0,,,,1721.735447899904,132,22,male,True
702,99.0,25,M,down,0.4637719999300316,1.1098676786875443,,experiment,emotion,3.0,,,,1723.5353961999062,132,22,male,True
703,107.0,25,M,up,0.3334067000541836,1.1949143465967236,,experiment,emotion,3.0,,,,1725.4686544999713,132,22,male,True
704,91.0,25,F,up,0.3001752999844029,1.3084978480811904,,experiment,emotion,3.0,,,,1727.4685853999108,132,22,male,True
705,83.0,25,F,up,0.3502804000163451,0.3290479425709936,,experiment,emotion,3.0,,,,1728.501765999943,132,22,male,True
706,83.0,25,M,up,0.6829952000407502,0.751352669611873,,experiment,emotion,3.0,,,,1729.9351711999625,132,22,male,True
707,91.0,25,F,up,0.3834805000806227,0.9210990387721458,,experiment,emotion,3.0,,,,1731.8184381999308,132,22,male,True
708,107.0,25,F,up,0.3668557999189943,0.8568369860995348,,experiment,emotion,3.0,,,,1733.368350400007,132,22,male,True
709,99.0,25,M,up,0.4168034999165684,1.3006252555288549,,experiment,emotion,3.0,,,,1735.3683081999188,132,22,male,True
710,83.0,25,M,up,0.3168692999752238,0.9288790421564964,,experiment,emotion,3.0,,,,1737.0015555999707,132,22,male,True
711,107.0,25,F,down,0.4622492999769747,0.4934955525064302,,experiment,emotion,3.0,,,,1738.1849121999694,132,22,male,True
712,99.0,25,M,up,0.2835196000523865,1.0565601047204458,,experiment,emotion,3.0,,,,1739.9681174999569,132,22,male,True
713,99.0,25,F,down,0.4002370999660343,1.6387163985364972,,experiment,emotion,3.0,,,,1742.3012797998963,132,22,male,True
714,83.0,25,F,up,0.3335015999618917,1.1558071341517795,,experiment,emotion,3.0,,,,1744.1513096999845,132,22,male,True
715,91.0,25,F,up,0.4299395000562072,1.2035151495494134,,experiment,emotion,3.0,,,,1746.051229499979,132,22,male,True
716,107.0,25,M,up,0.4633786000777036,1.2234296004465053,,experiment,emotion,3.0,,,,1747.9677945999429,132,22,male,True
717,91.0,25,M,up,0.3668490001000464,0.7336983847034175,,experiment,emotion,3.0,,,,1749.4344677999616,132,22,male,True
718,91.0,25,F,up,0.400187800056301,0.6274815752825227,,experiment,emotion,3.0,,,,1750.751047299942,132,22,male,True
719,91.0,25,F,down,0.6641899000387639,1.6707094891435583,,experiment,emotion,3.0,,,,1753.1009757999564,132,22,male,True
720,107.0,25,M,up,0.3169787999941036,0.7433526565358131,,experiment,emotion,3.0,,,,1754.7842148999916,132,22,male,True
721,99.0,25,M,up,0.4463101000292226,1.497165838437431,,experiment,emotion,3.0,,,,1757.0008268000092,132,22,male,True
722,83.0,25,M,down,0.502781999995932,1.3895785973744137,,experiment,emotion,3.0,,,,1759.1174184998963,132,22,male,True
723,83.0,25,M,up,0.4002756000263616,1.4951147949837016,,experiment,emotion,3.0,,,,1761.3839399999706,132,22,male,True
724,99.0,25,M,up,0.5479582999832928,1.59634034150389,,experiment,emotion,3.0,,,,1763.6672556999838,132,22,male,True
725,107.0,25,F,down,0.5467467999551445,1.6247876053202832,,experiment,emotion,3.0,,,,1766.1005078000017,132,22,male,True
726,107.0,25,F,up,0.3501491999486461,1.5435635791299267,,experiment,emotion,3.0,,,,1768.45040099998,132,22,male,True
727,83.0,25,M,up,0.4168472000164911,1.4310668416844925,,experiment,emotion,3.0,,,,1770.5669910999711,132,22,male,True
728,107.0,25,F,down,0.4378997000167146,0.3455566080632298,,experiment,emotion,3.0,,,,1771.6002872999525,132,22,male,True
729,91.0,25,F,up,0.5323036001063883,1.6514581975905096,,experiment,emotion,3.0,,,,1773.96686029993,132,22,male,True
730,99.0,25,F,up,0.3335656999843195,1.5203020833227008,,experiment,emotion,3.0,,,,1776.2833876999794,132,22,male,True
731,91.0,25,M,up,0.3501173000549897,1.1684645910691016,,experiment,emotion,3.0,,,,1778.133357899962,132,22,male,True
732,83.0,25,F,down,0.3335248999064788,0.9425441103979528,,experiment,emotion,3.0,,,,1779.766636999906,132,22,male,True
733,99.0,25,F,down,0.439201399916783,0.504127989645158,,experiment,emotion,3.0,,,,1780.9499634999083,132,22,male,True
734,91.0,25,F,up,0.2835667000617832,0.6155848295501394,,experiment,emotion,3.0,,,,1782.283203399973,132,22,male,True
735,99.0,25,M,down,0.3001607999904081,0.6975692428616522,,experiment,emotion,3.0,,,,1783.666528099915,132,22,male,True
736,83.0,25,M,down,0.4523776000132784,0.7964779304347179,,experiment,emotion,3.0,,,,1785.1497844998958,132,22,male,True
737,107.0,25,F,up,0.718186599900946,1.4581427304135686,,experiment,emotion,3.0,,,,1787.3330366999144,132,22,male,True
738,99.0,25,M,down,0.7442356999963522,1.9038495711654344,,experiment,emotion,3.0,,,,1790.2329508999828,132,22,male,True
739,107.0,25,F,up,0.5370395999634638,1.7156109178730994,,experiment,emotion,3.0,,,,1792.9661524998955,132,22,male,True
740,83.0,25,M,up,0.3334850999526679,1.54852774917486,,experiment,emotion,3.0,,,,1795.3327719999943,132,22,male,True
741,91.0,25,M,up,0.5838126000016928,1.9232446758714568,,experiment,emotion,3.0,,,,1797.9493439999642,132,22,male,True
742,0.2374731046612135,25,up,up,0.4002458999166265,1.2582817540016868,,experiment,cRDM,3.0,,,,1802.2324817999036,132,22,male,True
743,0.2374731046612135,25,up,up,0.4002608000300824,0.5669839166649073,,experiment,cRDM,3.0,,,,1803.4657846000048,132,22,male,True
744,0.2374731046612135,25,down,down,0.4354607000714168,1.5681370146638236,,experiment,cRDM,3.0,,,,1805.7156858999515,132,22,male,True
745,0.2374731046612135,25,down,down,0.487529799924232,0.9389032224994708,,experiment,cRDM,3.0,,,,1807.3656276999973,132,22,male,True
746,0.2374731046612135,25,up,up,0.3505236000055447,1.5285123740667552,,experiment,cRDM,3.0,,,,1809.6488587999484,132,22,male,True
