,stimLvl,stimTime,rand,response,rt,precedingITI,trialNumber,trialType,stimuli,block,estIntens,estThres,estSlope,trialStart,subject,age,gender,headRest
0,0.9,100,down,,,1.1166382763347469,,introTrial,cRDM,,,,,175.14614959992468,184,26,male,True
1,150.0,100,F,,,0.3203599559783808,,introTrial,emotion,,,,,179.41265549999662,184,26,male,True
2,200.0,25,M,,,1.6006294736164035,,tutorial,emotion,,,,,223.2443485999247,184,26,male,True
3,200.0,25,M,up,0.6149508999660611,1.0899696750158718,,tutorial,emotion,,,,,227.0442053999286,184,26,male,True
4,200.0,25,M,up,0.5341352999676019,0.5284202743172813,,tutorial,emotion,,,,,228.49405069998463,184,26,male,True
5,0.0,25,F,down,0.6443830999778584,1.5842573167334453,,tutorial,emotion,,,,,230.91076200001407,184,26,male,True
6,0.0,25,F,down,0.6504805999575183,1.4686773906972088,,tutorial,emotion,,,,,233.31065439991653,184,26,male,True
7,200.0,25,F,up,1.1742363000521436,1.0857758799468435,,tutorial,emotion,,,,,235.3439315999858,184,26,male,True
8,0.0,25,F,down,0.6296893999679014,1.1434523228507445,,tutorial,emotion,,,,,237.9604900999693,184,26,male,True
9,200.0,25,F,up,0.5947994999587536,1.747883237919856,,tutorial,emotion,,,,,240.6103896999266,184,26,male,True
10,0.0,25,M,down,0.5222241999581456,1.6806667343391413,,tutorial,emotion,,,,,243.1769383999053,184,26,male,True
11,0.0,25,M,down,0.6124031000072137,1.703107586172785,,tutorial,emotion,,,,,245.69378049997613,184,26,male,True
12,0.9,25,up,up,0.6069582999916747,1.3270529387606715,,tutorial,cRDM,,,,,254.3432149,184,26,male,True
13,0.9,25,up,up,0.4688212999608367,1.0954607313461968,,tutorial,cRDM,,,,,256.32642970001325,184,26,male,True
14,0.9,25,down,down,0.4171114000491798,1.8046365875139052,,tutorial,cRDM,,,,,258.876353599946,184,26,male,True
15,0.9,25,down,down,0.7038749000057578,0.5068831202922337,,tutorial,cRDM,,,,,260.0763241999084,184,26,male,True
16,0.9,25,up,up,0.4796337999869138,1.7066849794350114,,tutorial,cRDM,,,,,262.7595580999041,184,26,male,True
17,0.9,25,down,down,0.4911492000101134,0.3786433233818308,,tutorial,cRDM,,,,,263.8760437999153,184,26,male,True
18,0.9,25,up,up,0.3838704000227153,0.4710279364326492,,tutorial,cRDM,,,,,265.1094615999609,184,26,male,True
19,0.9,25,up,up,0.4002309000352397,0.9067104596255188,,tutorial,cRDM,,,,,266.7260877999943,184,26,male,True
20,0.9,25,down,down,0.2672293999930843,1.209325674416139,,tutorial,cRDM,,,,,268.6260196999647,184,26,male,True
21,0.9,25,down,down,0.5962231999728829,1.5970107040965542,,tutorial,cRDM,,,,,270.9259257999948,184,26,male,True
22,100.0,25,M,up,0.9057900999905542,0.4338342400190732,,psi_staircase_training,emotion,,100.0,100.0,25.00050000000001,283.5753868999891,184,26,male,True
23,55.0,25,M,down,0.57994329999201,0.5323726021202143,,psi_staircase_training,emotion,,54.7428094675419,54.7428094675419,25.00050000000011,285.3751989000011,184,26,male,True
24,79.0,25,F,down,0.5701923000160605,1.9798452854073996,,psi_staircase_training,emotion,,79.636070985635,79.636070985635,25.713269254886413,288.2919793999754,184,26,male,True
25,103.0,25,F,down,0.5256597000407055,1.759440833585919,,psi_staircase_training,emotion,,97.61123893914808,97.61123893914808,26.1463337262867,290.95851719996426,184,26,male,True
26,127.0,25,M,down,1.0836876999819651,1.8583502838471413,,psi_staircase_training,emotion,,117.15641007867752,117.15641007867752,31.432291447829705,293.7084495999152,184,26,male,True
27,148.0,25,F,up,1.1728008999489248,0.3246276764649301,,psi_staircase_training,emotion,,137.43317204546625,137.43317204546625,34.340881921268554,295.45836980000604,184,26,male,True
28,132.0,25,M,down,1.667366600013338,1.4956601909638003,,psi_staircase_training,emotion,,125.26880931386356,125.26880931386356,34.38193433170599,298.4747991999611,184,26,male,True
29,141.0,25,F,down,1.1323611000552771,1.6235166737520252,,psi_staircase_training,emotion,,136.94927261923726,136.94927261923726,35.22297814081058,302.1247958999593,184,26,male,True
30,157.0,25,F,up,0.7368217000039294,1.9722133305116671,,psi_staircase_training,emotion,,146.84993969400895,146.84993969400895,35.95346412760786,305.5913214000175,184,26,male,True
31,135.0,25,M,down,0.9855757999466732,0.5306609749815088,,psi_staircase_training,emotion,,140.37904280512964,140.37904280512964,34.6741996565416,307.2246043999912,184,26,male,True
32,157.0,25,F,up,0.7829431000864133,0.7142688736572358,,psi_staircase_training,emotion,,146.1810528074788,146.1810528074788,33.50806732685611,309.24118739995174,184,26,male,True
33,134.0,25,F,up,0.9403601000085472,0.4248106758876082,,psi_staircase_training,emotion,,141.7254083024129,141.7254083024129,31.39600934864873,310.80780449998565,184,26,male,True
34,123.0,25,F,up,2.260512199951336,1.7705426348741498,,psi_staircase_training,emotion,,135.13015152466082,135.13015152466082,35.45799761243316,313.85766290000174,184,26,male,True
35,111.0,25,M,up,1.0202638999326157,0.6246838573923151,,psi_staircase_training,emotion,,129.10446765557958,129.10446765557958,36.96872380595944,317.09089739993215,184,26,male,True
36,103.0,25,M,down,1.050190900103189,0.5972847468425866,,psi_staircase_training,emotion,,123.15564946310546,123.15564946310546,38.39061191250243,319.0739895999432,184,26,male,True
37,148.0,25,F,up,1.2600746999960393,1.353955184109254,,psi_staircase_training,emotion,,125.69552343391707,125.69552343391707,37.80608431514683,321.82406209991314,184,26,male,True
38,100.0,25,F,down,0.8809695000527427,1.64225475336521,,psi_staircase_training,emotion,,123.50461119691228,123.50461119691228,37.2033416899636,325.0741946999915,184,26,male,True
39,151.0,25,M,up,0.8489731999579817,0.6668708251961953,,psi_staircase_training,emotion,,125.48274510159574,125.48274510159574,36.52900640888527,326.97414429998025,184,26,male,True
40,98.0,25,M,down,0.8683167999843135,0.3528935061737939,,psi_staircase_training,emotion,,123.78206597435246,123.78206597435246,35.84562104305631,328.523820500006,184,26,male,True
41,153.0,25,M,up,1.489684300031513,0.4097558830486202,,psi_staircase_training,emotion,,125.37024473651871,125.37024473651871,35.10097129169936,330.1904501999961,184,26,male,True
42,97.0,25,M,down,0.856478700065054,0.6928384286702509,,psi_staircase_training,emotion,,124.01259220360464,124.01259220360464,34.36011151517695,332.72365399997216,184,26,male,True
43,154.0,25,F,up,0.882552900002338,0.6843899924604109,,psi_staircase_training,emotion,,125.32661477940044,125.32661477940044,33.564311858841286,334.6235963999061,184,26,male,True
44,97.0,25,F,down,0.985039999941364,1.9080003497042604,,psi_staircase_training,emotion,,124.210965535242,124.210965535242,32.78642255704176,337.74015379999764,184,26,male,True
45,154.0,25,F,up,0.8760405000066385,0.339643693921035,,psi_staircase_training,emotion,,125.33331961979935,125.33331961979935,31.956814034561457,339.3900950999232,184,26,male,True
46,97.0,25,M,down,1.0288230000296608,0.6351633883577419,,psi_staircase_training,emotion,,124.3868739891262,124.3868739891262,31.158865435518337,341.2233320999658,184,26,male,True
47,98.0,25,M,down,1.6635199999436736,0.6040124734779131,,psi_staircase_training,emotion,,125.34644543270524,125.34644543270524,30.318079831470136,343.2066149999155,184,26,male,True
48,154.0,25,F,down,1.8313614000799132,1.350106499211738,,psi_staircase_training,emotion,,126.19775248145427,126.19775248145427,29.515017650901797,346.53980389994103,184,26,male,True
49,160.0,25,F,up,0.7011341000907123,0.8684480191083301,,psi_staircase_training,emotion,,129.90165452945894,129.90165452945894,33.34561616617256,349.623035699944,184,26,male,True
50,159.0,25,M,up,0.725531299947761,1.5722896925719614,,psi_staircase_training,emotion,,129.01477114343086,129.01477114343086,32.60679882921508,352.2896005999064,184,26,male,True
51,99.0,25,M,up,0.6559795000357553,0.8061328830325696,,psi_staircase_training,emotion,,128.21669660499688,128.21669660499688,31.8948931251348,354.1561868999852,184,26,male,True
52,0.29,25,up,up,0.9267291000578552,1.4892068384190111,,psi_staircase_training,cRDM,,0.25,0.2569312402994632,0.105,384.8884343999671,184,26,male,True
53,0.25,25,up,up,0.4802118999650702,0.9835387921524156,,psi_staircase_training,cRDM,,0.2191026665318312,0.2260132002683492,0.1046863203387393,387.0719189000083,184,26,male,True
54,0.21,25,down,down,0.3504847000585869,1.4689018581294857,,psi_staircase_training,cRDM,,0.1900540959403307,0.1968497961554001,0.1029467298424999,389.3048955999548,184,26,male,True
55,0.18,25,down,down,0.6103256000205874,1.0619766937360562,,psi_staircase_training,cRDM,,0.1635257589279754,0.1701521334256793,0.1003816477568649,391.0548252000008,184,26,male,True
56,0.15,25,up,up,0.43637889996171,0.9237961966123988,,psi_staircase_training,cRDM,,0.1401895574244936,0.1466013351187503,0.0971307628663642,392.8547777999193,184,26,male,True
57,0.13,25,down,down,0.4504311999771744,0.8441282894447983,,psi_staircase_training,cRDM,,0.1198760602145479,0.1260554767618333,0.0936107694196103,394.4047243999085,184,26,male,True
58,0.11,25,up,up,0.5131805000128224,1.6999383074601635,,psi_staircase_training,cRDM,,0.1025773523696548,0.1084910344569865,0.0895852101993795,396.8379472999368,184,26,male,True
59,0.09,25,down,down,0.4722956999903545,1.7011813909842284,,psi_staircase_training,cRDM,,0.087844325958594,0.0934818215320969,0.0854013148647635,399.3378559999401,184,26,male,True
60,0.08,25,down,down,0.4736946999328211,0.7768725194504261,,psi_staircase_training,cRDM,,0.0751852092118086,0.0805556301471181,0.0813554535472043,400.85445799992885,184,26,male,True
61,0.06,25,up,down,0.4167897999286651,0.6454034697779395,,psi_staircase_training,cRDM,,0.0644790391168514,0.0695422244606275,0.0767012018235253,402.2377584999194,184,26,male,True
62,0.11,25,down,up,0.5904454999836162,0.6049279306511999,,psi_staircase_training,cRDM,,0.0948602595780939,0.100716274325989,0.0887116189834892,403.53772139991634,184,26,male,True
63,0.17,25,down,down,0.4438782000215724,0.760351812840433,,psi_staircase_training,cRDM,,0.1376606668530691,0.1451601945720273,0.1136088746701774,405.1542954000179,184,26,male,True
64,0.16,25,down,down,0.6712401999393478,1.260752937810276,,psi_staircase_training,cRDM,,0.1240076760284711,0.1312520488620642,0.1097435833506126,407.120902900002,184,26,male,True
65,0.15,25,up,up,0.4509456999367103,0.5780864559944279,,psi_staircase_training,cRDM,,0.1131643466012237,0.1201163767881643,0.1053149419282566,408.6542031000136,184,26,male,True
66,0.13,25,up,up,0.4570187999634072,1.16498430878382,,psi_staircase_training,cRDM,,0.1045113540539,0.1111635094979703,0.1007721982574277,410.5541399999056,184,26,male,True
67,0.1,25,down,down,0.4387321000685915,0.4566719834880401,,psi_staircase_training,cRDM,,0.0965948300068526,0.1030801561815624,0.0982449343730383,411.7374250999419,184,26,male,True
68,0.1,25,down,down,0.6154438001103699,0.6151044442027818,,psi_staircase_training,cRDM,,0.0879816360184865,0.0946989225543289,0.1017588563937206,413.0707012999337,184,26,male,True
69,0.1,25,up,up,0.4185108999954536,0.7602129232985102,,psi_staircase_training,cRDM,,0.0803055706541722,0.0871107183655719,0.1030898481116426,414.7206150999991,184,26,male,True
70,0.1,25,up,up,0.4756133999908343,1.4987284250954038,,psi_staircase_training,cRDM,,0.0737697662893111,0.0805339728134067,0.1024696380942148,416.9205707999645,184,26,male,True
71,0.1,25,up,down,0.4708685000659898,1.4999108143518929,,psi_staircase_training,cRDM,,0.0684057403979036,0.0750240225960153,0.1002590590973356,419.1702946999576,184,26,male,True
72,0.13,25,up,down,0.5477567999623716,1.4999847602713632,,psi_staircase_training,cRDM,,0.087237659353479,0.0948496625450415,0.1153127435469167,421.420404399978,184,26,male,True
73,0.17,25,down,down,0.526147099910304,1.488719463677509,,psi_staircase_training,cRDM,,0.1097029715886065,0.1183359446867479,0.130779216437647,423.73697939992417,184,26,male,True
74,0.17,25,down,down,0.416789700044319,0.3090532421519567,,psi_staircase_training,cRDM,,0.1033772649474907,0.1117786313727405,0.1272706523707653,424.853605399956,184,26,male,True
75,0.11,25,down,up,1.4808764000190422,0.5236460469327137,,psi_staircase_training,cRDM,,0.0984365953985352,0.1065854890255665,0.1234459914633952,426.07021639996674,184,26,male,True
76,0.17,25,up,down,0.574314899975434,0.4484116130678653,,psi_staircase_training,cRDM,,0.1188342349664007,0.1261737221663227,0.1111844522330992,428.28682669997215,184,26,male,True
77,0.21,25,up,up,0.7137008999707177,1.3175988448184617,,psi_staircase_training,cRDM,,0.1438637177525451,0.1532809096389522,0.1426591930666886,430.4534061999293,184,26,male,True
78,0.2,25,down,down,0.6477938999887556,1.005348184132004,,psi_staircase_training,cRDM,,0.1353645014716519,0.144618339769437,0.1401845815881868,432.4533249000088,184,26,male,True
79,0.19,25,down,up,0.5979014000622556,1.405317196176972,,psi_staircase_training,cRDM,,0.1282564044785995,0.1373268771533951,0.1374068117256431,434.80325999995694,184,26,male,True
80,0.26,25,up,up,0.7773604000685737,1.385676003566641,,psi_staircase_training,cRDM,,0.1574523831389503,0.1674647582836717,0.1516755075245555,437.06980009994,184,26,male,True
81,0.24,25,up,up,0.5110733000328764,1.0873216314653995,,psi_staircase_training,cRDM,,0.1496942530198722,0.1595840356392047,0.1498183773992562,439.2030861999374,184,26,male,True
82,100.0,25,M,down,0.9488438999978824,0.9936578669058248,,psi_staircase,emotion,,100.0,100.0,25.00050000000001,460.1523002999602,184,26,male,True
83,145.0,25,M,up,0.6322284999769181,1.0567569409538788,,psi_staircase,emotion,,145.25719053245996,145.25719053245996,25.00050000000028,462.5188839999028,184,26,male,True
84,121.0,25,F,up,0.8075710000703111,1.978927011402844,,psi_staircase,emotion,,120.36392901436103,120.36392901436103,25.71326925488699,465.4685792999808,184,26,male,True
85,97.0,25,F,down,0.7392313999589533,1.9470379158556952,,psi_staircase,emotion,,102.3887610608496,102.3887610608496,26.14633372628729,468.5689184999792,184,26,male,True
86,113.0,25,M,down,0.7691876000026241,0.5575920345595653,,psi_staircase,emotion,,114.01123255420406,114.01123255420406,23.00305641778335,470.20192799996585,184,26,male,True
87,127.0,25,F,up,0.7917257000226527,1.755446854105686,,psi_staircase,emotion,,123.15505271238727,123.15505271238727,23.86267166612523,473.06838429998606,184,26,male,True
88,117.0,25,M,up,0.6383642998989671,0.485734699956073,,psi_staircase,emotion,,116.72664759921038,116.72664759921038,20.612160618334432,474.70176989992615,184,26,male,True
89,107.0,25,F,up,0.7507776999846101,1.4359490345257506,,psi_staircase,emotion,,111.41772370799676,111.41772370799676,20.39996786109954,477.1183286999585,184,26,male,True
90,91.0,25,F,down,0.6095163999125361,0.4764227095653151,,psi_staircase,emotion,,104.32443105099112,104.32443105099112,26.32628876540062,478.70161779993214,184,26,male,True
91,93.0,25,M,down,0.6991699999198318,0.5257158131983979,,psi_staircase,emotion,,107.92512315738632,107.92512315738632,23.70033126942176,480.1849369999254,184,26,male,True
92,124.0,25,F,up,0.7737018000334501,1.9075235696123471,,psi_staircase,emotion,,110.22796413543166,110.22796413543166,21.45892762814926,483.1514361000154,184,26,male,True
93,95.0,25,F,down,0.7133951999712735,0.821087181776702,,psi_staircase,emotion,,108.403965494472,108.403965494472,19.38210143201049,485.0847351999255,184,26,male,True
94,122.0,25,F,down,1.14652800001204,1.4786342675601911,,psi_staircase,emotion,,109.94368713509012,109.94368713509012,17.31191981424421,487.6346182000125,184,26,male,True
95,133.0,25,M,up,0.7916132000973448,0.8967950048420497,,psi_staircase,emotion,,114.5931406609328,114.5931406609328,24.112921542229667,490.0345593999373,184,26,male,True
96,132.0,25,M,up,0.984702599933371,1.4761685252676222,,psi_staircase,emotion,,113.11482960151436,113.11482960151436,22.3415717159731,492.6344498000108,184,26,male,True
97,95.0,25,F,down,0.8534827000694349,1.4208515444346346,,psi_staircase,emotion,,112.04211990761918,112.04211990761918,20.78866919367305,495.36766829993576,184,26,male,True
98,97.0,25,F,down,0.9765248999465256,1.156854889155867,,psi_staircase,emotion,,113.14858318163756,113.14858318163756,19.1899060262132,497.7175907999044,184,26,male,True
99,130.0,25,M,up,1.0143133000237867,1.116466536720632,,psi_staircase,emotion,,114.00913104773956,114.00913104773956,17.8067915036077,500.15083830000367,184,26,male,True
100,99.0,25,M,down,0.6947777000023052,0.9503380942831524,,psi_staircase,emotion,,113.18131505702776,113.18131505702776,16.448035494338278,502.484338899958,184,26,male,True
101,127.0,25,M,up,1.1291352999396622,1.311740424863983,,psi_staircase,emotion,,113.881547657974,113.881547657974,15.294028128063893,504.834000099916,184,26,male,True
102,103.0,25,M,down,0.8429554000031203,1.838641248494547,,psi_staircase,emotion,,113.171762591813,113.171762591813,14.17861268692099,508.167190899956,184,26,male,True
103,125.0,25,F,down,0.7410344999516383,1.868011835616988,,psi_staircase,emotion,,113.90039185885716,113.90039185885716,13.267994517046231,511.2170840000035,184,26,male,True
104,134.0,25,F,up,0.7665164000354707,1.7339983914924018,,psi_staircase,emotion,,116.4917930857337,116.4917930857337,17.03313264899563,514.0336318999762,184,26,male,True
105,132.0,25,F,up,0.8055516000604257,0.4867998192598635,,psi_staircase,emotion,,115.94264776780028,115.94264776780028,15.969587833790431,515.633584599942,184,26,male,True
106,102.0,25,M,down,1.056683300063014,0.909367796101202,,psi_staircase,emotion,,115.48167646427186,115.48167646427186,15.0595979817554,517.6834155999823,184,26,male,True
107,103.0,25,M,down,0.8334138999925926,1.4827701345847062,,psi_staircase,emotion,,116.01012389406422,116.01012389406422,14.214975271322135,520.5667386999121,184,26,male,True
108,130.0,25,F,down,0.5947708999738097,0.383253716528627,,psi_staircase,emotion,,116.46511608999946,116.46511608999946,13.489624340040342,522.1333543999353,184,26,male,True
109,137.0,25,F,up,0.9431791000533848,1.8704274996501973,,psi_staircase,emotion,,118.65441155116386,118.65441155116386,17.191872227113457,524.9499227999477,184,26,male,True
110,136.0,25,M,up,0.8672849999275059,1.760150991266994,,psi_staircase,emotion,,118.20992278478565,118.20992278478565,16.300292036354417,527.9998177000089,184,26,male,True
111,103.0,25,M,down,0.7258506000507623,1.3745043645489503,,psi_staircase,emotion,,117.84545588300514,117.84545588300514,15.540254353697971,530.5662527999375,184,26,male,True
112,134.0,25,F,up,0.7811924999114126,1.5425666080353635,,psi_staircase,emotion,,118.24725539431282,118.24725539431282,14.85102125711776,533.1829480999149,184,26,male,True
113,104.0,25,M,down,0.7849773999769241,0.8521073486414643,,psi_staircase,emotion,,117.91693991506848,117.91693991506848,14.229204843636456,535.1661537999753,184,26,male,True
114,106.0,25,F,up,1.122303199954331,0.7855091300802384,,psi_staircase,emotion,,118.281432700277,118.281432700277,13.661700214380325,537.0828199000098,184,26,male,True
115,134.0,25,M,up,0.8678264999762177,1.7225061669160848,,psi_staircase,emotion,,116.64347817375848,116.64347817375848,15.924976504387454,540.2662855999079,184,26,male,True
116,100.0,25,F,down,1.1005025999620557,1.715970596517053,,psi_staircase,emotion,,116.34273932089648,116.34273932089648,15.333287513304867,543.1825967999175,184,26,male,True
117,133.0,25,M,up,0.8053047000430524,1.0959896465104912,,psi_staircase,emotion,,116.63785057821502,116.63785057821502,14.797818597486575,545.7158260999713,184,26,male,True
118,102.0,25,F,down,1.219467999995686,1.2803951940805756,,psi_staircase,emotion,,116.3672240908076,116.3672240908076,14.31450563566574,548.1656160999555,184,26,male,True
119,131.0,25,M,up,0.843805400072597,0.7469604990319456,,psi_staircase,emotion,,116.66394574088744,116.66394574088744,13.864505321281175,550.482321199961,184,26,male,True
120,103.0,25,M,down,1.6008541999617592,0.3669622713008278,,psi_staircase,emotion,,116.38997042071308,116.38997042071308,13.45591860269352,552.032278199913,184,26,male,True
121,130.0,25,F,up,0.7943140000570565,1.3803280363452577,,psi_staircase,emotion,,116.67150851180622,116.67150851180622,13.077811785683894,555.3487875999417,184,26,male,True
122,104.0,25,F,down,1.1928698000265283,1.880792555834456,,psi_staircase,emotion,,116.41036412841888,116.41036412841888,12.73331600854886,558.3652564999647,184,26,male,True
123,129.0,25,F,up,0.7921426000539213,1.1756218241232264,,psi_staircase,emotion,,116.68316572378644,116.68316572378644,12.410278295382373,561.0819564999547,184,26,male,True
124,106.0,25,M,down,0.7542847000295296,1.995561924046918,,psi_staircase,emotion,,116.42889640754284,116.42889640754284,12.114468113760164,564.2318189999787,184,26,male,True
125,106.0,25,M,down,1.075147100025788,0.936058244077099,,psi_staircase,emotion,,116.72712066227383,116.72712066227383,11.832762158748764,566.2649618999567,184,26,male,True
126,127.0,25,F,down,0.8727513999911025,0.6066366727712522,,psi_staircase,emotion,,116.99399949947306,116.99399949947306,11.574865130159235,568.298350899946,184,26,male,True
127,106.0,25,F,down,0.6350718999747187,1.389128839412875,,psi_staircase,emotion,,118.12684503339176,118.12684503339176,12.5990851322742,570.8982297999319,184,26,male,True
128,131.0,25,F,up,0.702627900056541,0.9443169240975824,,psi_staircase,emotion,,118.35786210205944,118.35786210205944,12.325851982964616,572.8314974999521,184,26,male,True
129,107.0,25,M,down,1.3663974000373855,1.071858788352125,,psi_staircase,emotion,,118.14151592342638,118.14151592342638,12.058342865172872,574.9647446000017,184,26,male,True
130,130.0,25,M,down,2.155978299910202,1.8006802607257804,,psi_staircase,emotion,,118.3754995047266,118.3754995047266,11.814521456771148,578.481185499928,184,26,male,True
131,134.0,25,M,up,0.9839448999846354,0.7341305839488694,,psi_staircase,emotion,,119.43142481019754,119.43142481019754,12.979119042457809,581.7311744999606,184,26,male,True
132,0.29,25,up,up,0.4385530999861657,1.554970613920688,,psi_staircase,cRDM,,0.25,0.2569312402994632,0.105,589.097574400017,184,26,male,True
133,0.25,25,up,up,0.4965955000370741,1.604847767992173,,psi_staircase,cRDM,,0.2191026665318312,0.2260132002683492,0.1046863203387393,591.3975014999742,184,26,male,True
134,0.21,25,down,down,0.8349789000349119,0.654705347861107,,psi_staircase,cRDM,,0.1900540959403307,0.1968497961554001,0.1029467298424999,592.8141056000022,184,26,male,True
135,0.18,25,down,down,0.5674766000593081,0.5089999192597914,,psi_staircase,cRDM,,0.1635257589279754,0.1701521334256793,0.1003816477568649,594.4307067999616,184,26,male,True
136,0.15,25,up,up,0.3838475000811741,1.1202722938744256,,psi_staircase,cRDM,,0.1401895574244936,0.1466013351187503,0.0971307628663642,596.3639372999314,184,26,male,True
137,0.13,25,down,down,0.4167468999512493,1.8273969097119471,,psi_staircase,cRDM,,0.1198760602145479,0.1260554767618333,0.0936107694196103,598.8805665000109,184,26,male,True
138,0.11,25,up,down,0.8750027000205591,1.7852216978174975,,psi_staircase,cRDM,,0.1025773523696548,0.1084910344569865,0.0895852101993795,601.3471101999748,184,26,male,True
139,0.18,25,down,down,0.7874376999679953,1.6440218826064057,,psi_staircase,cRDM,,0.1555041659961974,0.1624100184452552,0.1046154044330593,604.1136703999946,184,26,male,True
140,0.16,25,down,down,0.7432405999861658,1.899338980665946,,psi_staircase,cRDM,,0.1391658438081895,0.1457849300972332,0.1002712401131731,607.0468782999087,184,26,male,True
141,0.15,25,up,up,0.6553040000144392,1.399653936421319,,psi_staircase,cRDM,,0.1258032750545589,0.1321354728273346,0.0959252222423927,609.4468035999453,184,26,male,True
142,0.15,25,down,down,0.6514159000944346,1.2822126551091808,,psi_staircase,cRDM,,0.1150699471259995,0.1211167653058565,0.0916020627555137,611.64671859995,184,26,male,True
143,0.13,25,down,up,0.4357587000122294,0.5471672633068818,,psi_staircase,cRDM,,0.1069881900360696,0.1127039379774579,0.086586744639663,613.1133642999921,184,26,male,True
144,0.17,25,down,down,0.5654834000160918,0.4457489359042418,,psi_staircase,cRDM,,0.1375992308975301,0.1437143873553285,0.0926373059261205,614.2466268999269,184,26,male,True
145,0.17,25,up,up,0.5159945999039337,1.192395911641759,,psi_staircase,cRDM,,0.1293733376894595,0.1350671926308713,0.0862550918764896,616.2631083999295,184,26,male,True
146,0.16,25,up,down,1.3296539000002667,1.7439012223618902,,psi_staircase,cRDM,,0.1236242753651889,0.1288938675621868,0.0798280187642066,618.7964716999559,184,26,male,True
147,0.19,25,down,down,0.6670612000161782,0.3244683725316447,,psi_staircase,cRDM,,0.1513480515288451,0.1590589859241587,0.1168114329509862,620.7130693999352,184,26,male,True
148,0.19,25,down,down,0.919763799989596,1.3528912354607252,,psi_staircase,cRDM,,0.1415981338797883,0.14898039458227,0.1118324196349968,622.9963129999815,184,26,male,True
149,0.19,25,up,up,0.6272186000132933,0.4183569362593602,,psi_staircase,cRDM,,0.1342557294560183,0.1412763238258821,0.1063536072891276,624.6129060999956,184,26,male,True
150,0.18,25,up,up,0.616255100001581,0.9044737808667176,,psi_staircase,cRDM,,0.1288855920676432,0.1355300386135951,0.1006554176716349,626.4128567000153,184,26,male,True
151,0.14,25,up,up,0.5806482000043616,1.4360992959538592,,psi_staircase,cRDM,,0.1247319797839931,0.1310132248695424,0.0951533499760121,628.7294426999288,184,26,male,True
152,0.14,25,up,down,1.2871347999898717,1.3787380571826489,,psi_staircase,cRDM,,0.1168345652557242,0.1234699768037648,0.1005185482601452,630.9460030999035,184,26,male,True
153,0.19,25,down,down,0.5094643998891115,0.4085016809209716,,psi_staircase,cRDM,,0.138597574243017,0.1445183921269053,0.0896933089820025,632.9126462999266,184,26,male,True
154,0.18,25,down,down,0.4502474999753758,0.9632886003470096,,psi_staircase,cRDM,,0.1356210564663155,0.1411183422588698,0.0832773043899369,634.6458550000098,184,26,male,True
155,0.15,25,down,down,0.4689597999677062,1.066411201724712,,psi_staircase,cRDM,,0.1333906942847158,0.138497465297773,0.0773614725798107,636.4291514999932,184,26,male,True
156,0.13,25,up,up,0.7134216000558808,1.98168526407264,,psi_staircase,cRDM,,0.1277465319585218,0.1330875499587409,0.0809100342497767,639.1457082999405,184,26,male,True
157,0.13,25,up,up,0.7291255000745878,1.002653422006489,,psi_staircase,cRDM,,0.1198567798047331,0.125945092408559,0.0922306536466822,641.1289989999495,184,26,male,True
158,0.12,25,down,down,0.6288799999747425,0.4872839955148087,,psi_staircase,cRDM,,0.111851113336891,0.1186075241602222,0.1023515425521622,642.6122475999873,184,26,male,True
159,0.12,25,down,down,0.8010380000341684,0.8513310986933538,,psi_staircase,cRDM,,0.1035914538390737,0.1110312024360464,0.1127032924745994,644.3620731999399,184,26,male,True
160,0.12,25,up,up,0.5151104000397027,0.493857939066412,,psi_staircase,cRDM,,0.0958274205578681,0.1038142067514994,0.1209902577459658,645.9121319999686,184,26,male,True
161,0.12,25,up,down,1.1976950999815017,0.8552798020777266,,psi_staircase,cRDM,,0.0888197908324273,0.0972139586843831,0.1271616025956584,647.5454093000153,184,26,male,True
162,0.12,25,down,down,1.6807702000951394,1.779790865230528,,psi_staircase,cRDM,,0.108115119867675,0.1156253808848197,0.113771471299482,650.7953078999417,184,26,male,True
163,0.12,25,up,up,0.6036423998884857,1.6825994558577406,,psi_staircase,cRDM,,0.1009036935665184,0.1089664829456482,0.1221416150979758,654.428485399927,184,26,male,True
164,0.11,25,down,down,0.6563295000232756,1.7642830507832106,,psi_staircase,cRDM,,0.0942864394696922,0.1027727391630473,0.1285572897928945,657.0617511000019,184,26,male,True
165,0.11,25,up,up,0.6388270000461489,1.4151318990695632,,psi_staircase,cRDM,,0.0881039620935519,0.0969478561949941,0.1339744173525976,659.3783438999671,184,26,male,True
166,0.11,25,down,down,0.7328473000088707,1.2398212996630735,,psi_staircase,cRDM,,0.0825893357808157,0.0916855551907841,0.1377968439675412,661.528240500018,184,26,male,True
167,0.11,25,up,up,0.6243875999934971,1.63778215816145,,psi_staircase,cRDM,,0.0777051102024239,0.0869696941887796,0.1403473659169873,664.1617353999754,184,26,male,True
168,0.11,25,down,down,0.6046988000161946,0.612697247224574,,psi_staircase,cRDM,,0.0733772101509372,0.0827462426319917,0.1419296356796207,665.6614096999401,184,26,male,True
169,0.12,25,up,up,0.5695438999682665,0.4272209752361868,,psi_staircase,cRDM,,0.0695222414805773,0.0789484180971864,0.1427953009825099,666.9616129999049,184,26,male,True
170,0.13,25,up,up,0.7610494000837207,1.874595231947792,,psi_staircase,cRDM,,0.0662591666561164,0.0756842816858329,0.1427792192108629,669.6610599999549,184,26,male,True
171,0.14,25,down,down,0.5979562998982146,1.2296079180720934,,psi_staircase,cRDM,,0.0635312274035725,0.0729113215862821,0.142097207228666,671.9111927999184,184,26,male,True
172,0.1,25,down,down,0.7996528999647126,1.5677528142123351,,psi_staircase,cRDM,,0.0612598106523598,0.0705648464682637,0.1409601627497415,674.3444733999204,184,26,male,True
173,0.16,25,down,down,0.6460424000397325,0.499329920130785,,psi_staircase,cRDM,,0.0583450454651124,0.0676545191553676,0.1410273912379712,675.9110431999434,184,26,male,True
174,0.1,25,up,down,0.9731663999846204,0.7402205502325323,,psi_staircase,cRDM,,0.0567094221888462,0.0659182345016958,0.1395024917725165,677.5609525999753,184,26,male,True
175,0.1,25,up,up,1.2591958000557495,1.4065607745386268,,psi_staircase,cRDM,,0.0666741739430608,0.0759412341650084,0.1403848779243515,680.2108842999442,184,26,male,True
176,0.1,25,down,down,0.4979973000008613,1.8045137260003248,,psi_staircase,cRDM,,0.0635672493206984,0.0728832325425075,0.1411260028548863,683.5440909999888,184,26,male,True
177,0.18,25,down,down,0.4980590000050142,0.4457741215786879,,psi_staircase,cRDM,,0.0607278258684217,0.070066809568293,0.1414744325863897,684.7440435999306,184,26,male,True
178,0.17,25,down,down,0.5235367999412119,1.153155069264754,,psi_staircase,cRDM,,0.0594297745186467,0.0686661196546299,0.1399195811106614,686.6605755999917,184,26,male,True
179,0.09,25,up,down,0.4558594999834895,1.1307939392783743,,psi_staircase,cRDM,,0.0581097901391237,0.0672465492144715,0.1384109714080764,688.5772724999115,184,26,male,True
180,0.09,25,up,up,1.2819883999181911,1.9325150891937093,,psi_staircase,cRDM,,0.067292830559822,0.0763355366888412,0.1369861817690177,691.2271463999059,184,26,male,True
181,0.09,25,up,down,0.793692999985069,0.474482810346211,,psi_staircase,cRDM,,0.0641646489902627,0.0733013003146166,0.1384093391094021,693.2603854999179,184,26,male,True
182,124.0,25,F,down,0.7996249999850988,1.1141172802644232,,experiment,emotion,0.0,,,,698.943496099906,184,26,male,True
183,114.0,25,M,down,0.8423962999368086,1.802950288649371,,experiment,emotion,0.0,,,,701.8267509000143,184,26,male,True
184,120.0,25,F,down,1.544825699995272,1.4165735614906054,,experiment,emotion,0.0,,,,704.3602424999699,184,26,male,True
185,124.0,25,M,down,1.1615867000073197,1.863978121071959,,experiment,emotion,0.0,,,,708.0265294999117,184,26,male,True
186,120.0,25,F,down,1.226017100038007,1.878793114187386,,experiment,emotion,0.0,,,,711.3430612999946,184,26,male,True
187,117.0,25,F,down,0.7331576000433415,1.6944111478724877,,experiment,emotion,0.0,,,,714.5429384999443,184,26,male,True
188,114.0,25,M,up,0.6002438999712467,0.9487274707481372,,experiment,emotion,0.0,,,,716.4928723999765,184,26,male,True
189,117.0,25,F,up,0.6453188000014052,1.8847138134092492,,experiment,emotion,0.0,,,,719.2427528999979,184,26,male,True
190,124.0,25,M,up,1.0813872999278829,1.239940329593887,,experiment,emotion,0.0,,,,721.3926952999318,184,26,male,True
191,117.0,25,M,up,0.900487499893643,0.5350217164198086,,experiment,emotion,0.0,,,,723.2926158999326,184,26,male,True
192,120.0,25,F,up,1.076623799977824,1.67814514154755,,experiment,emotion,0.0,,,,726.1594488999108,184,26,male,True
193,124.0,25,M,up,0.7327171000652015,1.05343399917865,,experiment,emotion,0.0,,,,728.5593630999792,184,26,male,True
194,120.0,25,M,up,0.5447014999808744,0.7769921151568787,,experiment,emotion,0.0,,,,730.3423685999587,184,26,male,True
195,114.0,25,M,up,0.9952918000053614,1.7764436444948366,,experiment,emotion,0.0,,,,732.9587808999931,184,26,male,True
196,117.0,25,F,up,0.9256226000143216,1.886373941883172,,experiment,emotion,0.0,,,,736.125486999983,184,26,male,True
197,114.0,25,F,up,0.9200752000324428,1.033144727931209,,experiment,emotion,0.0,,,,738.3590038999682,184,26,male,True
198,124.0,25,M,up,1.4788285000249743,1.9728856609440304,,experiment,emotion,0.0,,,,741.5252859999891,184,26,male,True
199,114.0,25,M,down,0.6629122000886127,1.1140403654694764,,experiment,emotion,0.0,,,,744.3751919999486,184,26,male,True
200,120.0,25,F,down,0.6585985999554396,0.8731274130773554,,experiment,emotion,0.0,,,,746.2084658999229,184,26,male,True
201,120.0,25,F,down,1.012023799936287,0.5747006450591458,,experiment,emotion,0.0,,,,747.7250510000158,184,26,male,True
202,117.0,25,M,up,0.7455274000531062,1.238774108548433,,experiment,emotion,0.0,,,,750.2585722999647,184,26,male,True
203,117.0,25,F,down,1.3691679999465125,0.9572077429855336,,experiment,emotion,0.0,,,,752.2248990999069,184,26,male,True
204,114.0,25,M,up,1.1410392000107097,1.71136005934312,,experiment,emotion,0.0,,,,755.5580325999763,184,26,male,True
205,124.0,25,F,up,1.475060199969448,0.8227489311900478,,experiment,emotion,0.0,,,,757.8080481999787,184,26,male,True
206,120.0,25,F,down,0.9045018999604508,0.7932328549835197,,experiment,emotion,0.0,,,,760.3746063999133,184,26,male,True
207,114.0,25,M,down,1.248011699994095,1.1134208583104106,,experiment,emotion,0.0,,,,762.6581111999694,184,26,male,True
208,124.0,25,M,down,1.102320099947974,1.5360394582593195,,experiment,emotion,0.0,,,,765.7077328999294,184,26,male,True
209,124.0,25,F,down,1.328415700001642,1.1169111506842404,,experiment,emotion,0.0,,,,768.2076440999517,184,26,male,True
210,117.0,25,M,up,0.6427103999303654,0.3389694178654523,,experiment,emotion,0.0,,,,770.1573868999258,184,26,male,True
211,114.0,25,F,up,0.7600338000338525,1.6070247383501295,,experiment,emotion,0.0,,,,772.6740714999614,184,26,male,True
212,117.0,25,M,down,1.383743799990043,1.7574619468925825,,experiment,emotion,0.0,,,,775.4573593999958,184,26,male,True
213,120.0,25,F,up,1.653114499989897,1.1566565200342205,,experiment,emotion,0.0,,,,778.2739456999116,184,26,male,True
214,114.0,25,M,down,1.7912637001136318,1.5213567814941815,,experiment,emotion,0.0,,,,781.7238176999381,184,26,male,True
215,124.0,25,F,up,1.3532349999295548,0.8425930317591233,,experiment,emotion,0.0,,,,784.6568797999062,184,26,male,True
216,120.0,25,M,down,0.8995867999037728,0.5038608693720478,,experiment,emotion,0.0,,,,786.7735194999259,184,26,male,True
217,124.0,25,F,down,1.1006082999520004,1.2795414341086826,,experiment,emotion,0.0,,,,789.2235256999265,184,26,male,True
218,114.0,25,M,up,0.7892843999434263,1.358878267575386,,experiment,emotion,0.0,,,,791.9567380999215,184,26,male,True
219,120.0,25,F,up,0.9887320999987425,1.1999039313797917,,experiment,emotion,0.0,,,,794.2233695000177,184,26,male,True
220,117.0,25,M,up,0.9511539000086486,1.0478840941035314,,experiment,emotion,0.0,,,,796.5399355000118,184,26,male,True
221,117.0,25,F,down,0.7879338000202551,1.8087093338238929,,experiment,emotion,0.0,,,,799.5731809999561,184,26,male,True
222,120.0,25,F,down,0.7167058999184519,1.7650761080213129,,experiment,emotion,0.0,,,,802.4063773999223,184,26,male,True
223,124.0,25,M,up,1.3695137000177056,1.6415730954909866,,experiment,emotion,0.0,,,,805.0565325999632,184,26,male,True
224,117.0,25,F,up,0.6751919999951497,1.0129644975665753,,experiment,emotion,0.0,,,,807.7228519999189,184,26,male,True
225,114.0,25,M,down,1.2232949999161065,1.944253644813708,,experiment,emotion,0.0,,,,810.6227592999348,184,26,male,True
226,114.0,25,M,down,0.6477257000515237,0.4683573198897447,,experiment,emotion,0.0,,,,812.5893425999675,184,26,male,True
227,117.0,25,F,up,1.1484024999663234,0.7554818495389358,,experiment,emotion,0.0,,,,814.272639199975,184,26,male,True
228,124.0,25,F,up,1.4925793999573216,1.6473668574644091,,experiment,emotion,0.0,,,,817.3724985999288,184,26,male,True
229,120.0,25,M,down,1.265689800027758,1.9617014989907704,,experiment,emotion,0.0,,,,821.1223792999517,184,26,male,True
230,114.0,25,F,down,1.3491620999993756,1.6808938222848524,,experiment,emotion,0.0,,,,824.338911299943,184,26,male,True
231,124.0,25,M,up,1.0512604999821633,1.1682230652505992,,experiment,emotion,0.0,,,,827.1388012999669,184,26,male,True
232,120.0,25,M,up,0.696382199996151,1.9150090733720253,,experiment,emotion,0.0,,,,830.3886940999655,184,26,male,True
233,120.0,25,M,down,0.8125018998980522,1.9779479836906897,,experiment,emotion,0.0,,,,833.338558999938,184,26,male,True
234,114.0,25,M,up,1.0625973000423985,1.8700779838010808,,experiment,emotion,0.0,,,,836.2884603999555,184,26,male,True
235,117.0,25,M,up,1.447703399928287,1.9613277714538349,,experiment,emotion,0.0,,,,839.5883589999285,184,26,male,True
236,124.0,25,F,up,0.6232023000484332,1.679140069410873,,experiment,emotion,0.0,,,,843.0048740999773,184,26,male,True
237,117.0,25,F,up,0.57494099996984,0.8984465370523036,,experiment,emotion,0.0,,,,844.7881497999188,184,26,male,True
238,117.0,25,F,down,1.500015500001609,1.8958388728886728,,experiment,emotion,0.0,,,,847.5380412999075,184,26,male,True
239,117.0,25,M,up,0.9210965000092984,0.7462594112442515,,experiment,emotion,0.0,,,,850.0379591999808,184,26,male,True
240,124.0,25,F,up,0.8138134999899194,0.8424584731826499,,experiment,emotion,0.0,,,,852.0712453000015,184,26,male,True
241,120.0,25,F,up,0.5386384000303224,1.801637080352934,,experiment,emotion,0.0,,,,854.9544546999969,184,26,male,True
242,114.0,25,F,up,0.5701090999646112,1.447563814609923,,experiment,emotion,0.0,,,,857.2210099999793,184,26,male,True
243,114.0,25,M,up,0.6441138000227511,1.006794280192382,,experiment,emotion,0.0,,,,859.0709838999901,184,26,male,True
244,120.0,25,F,up,0.56501549994573,1.9724214471650985,,experiment,emotion,0.0,,,,861.9540440000128,184,26,male,True
245,124.0,25,M,up,0.5439365000929683,1.212786836192374,,experiment,emotion,0.0,,,,864.004121899954,184,26,male,True
246,124.0,25,M,up,0.8826809000456706,1.3681716865822666,,experiment,emotion,0.0,,,,866.1873764999909,184,26,male,True
247,114.0,25,F,up,0.585758600034751,1.1025871687927702,,experiment,emotion,0.0,,,,868.437314699986,184,26,male,True
248,124.0,25,M,up,0.6775048000272363,0.9881712073308782,,experiment,emotion,0.0,,,,870.2705640000058,184,26,male,True
249,117.0,25,F,up,0.4854468000121414,1.0220742802841325,,experiment,emotion,0.0,,,,872.2536614999408,184,26,male,True
250,120.0,25,M,up,0.4168053000466898,0.4904728071814372,,experiment,emotion,0.0,,,,873.4870911999606,184,26,male,True
251,117.0,25,F,up,1.062689399928786,1.6113198264929254,,experiment,emotion,0.0,,,,875.7703675999073,184,26,male,True
252,114.0,25,M,up,0.9378605999518186,1.6471001218595802,,experiment,emotion,0.0,,,,878.7701957999961,184,26,male,True
253,120.0,25,F,down,0.6438862999202684,1.0491646005220547,,experiment,emotion,0.0,,,,881.0201715999283,184,26,male,True
254,117.0,25,F,down,0.5919654000317678,0.3875740139632234,,experiment,emotion,0.0,,,,882.3201245999662,184,26,male,True
255,120.0,25,F,down,0.6914294000016525,1.3989420688696417,,experiment,emotion,0.0,,,,884.5866923999274,184,26,male,True
256,114.0,25,F,up,1.1361160000087691,1.4187199441480407,,experiment,emotion,0.0,,,,886.969939499977,184,26,male,True
257,124.0,25,F,up,0.6865568000357598,0.9984945177838154,,experiment,emotion,0.0,,,,889.3865253999829,184,26,male,True
258,120.0,25,M,up,0.4912805999629199,0.4734081108334047,,experiment,emotion,0.0,,,,890.8197788000107,184,26,male,True
259,124.0,25,M,up,0.625364699983038,1.231921064851183,,experiment,emotion,0.0,,,,892.8197149999905,184,26,male,True
260,114.0,25,M,down,1.4354049999965357,1.3646062075276326,,experiment,emotion,0.0,,,,895.0696432999102,184,26,male,True
261,117.0,25,M,down,1.31847070006188,0.5329804885858871,,experiment,emotion,0.0,,,,897.3195873999503,184,26,male,True
262,0.0735624769335103,25,up,up,0.6223449000390247,1.0461660834908133,,experiment,cRDM,0.0,,,,903.4526756999549,184,26,male,True
263,0.0735624769335103,25,up,up,0.7984431000659242,0.6741356814408813,,experiment,cRDM,0.0,,,,905.0026089999592,184,26,male,True
264,0.0735624769335103,25,down,down,0.627519299974665,1.5271334715601028,,experiment,cRDM,0.0,,,,907.6025102999992,184,26,male,True
265,0.0735624769335103,25,down,up,0.8003734999801964,1.4518126445531454,,experiment,cRDM,0.0,,,,909.9356776999776,184,26,male,True
266,0.0735624769335103,25,up,up,0.8627117000287399,1.2041886233643349,,experiment,cRDM,0.0,,,,912.202353599947,184,26,male,True
267,0.0735624769335103,25,down,down,0.7867359999800101,0.4262290446807859,,experiment,cRDM,0.0,,,,913.752311399905,184,26,male,True
268,0.0735624769335103,25,up,down,1.5012144999345765,1.9093450474193296,,experiment,cRDM,0.0,,,,916.7188312999206,184,26,male,True
269,0.0735624769335103,25,up,up,0.8756423000013456,0.9595139929515252,,experiment,cRDM,0.0,,,,919.435394699918,184,26,male,True
270,0.0735624769335103,25,down,down,0.9087457000277936,0.6620178425952601,,experiment,cRDM,0.0,,,,921.2353081000036,184,26,male,True
271,0.0735624769335103,25,down,up,0.910194500000216,0.3240632791091206,,experiment,cRDM,0.0,,,,922.7518560999306,184,26,male,True
272,0.0735624769335103,25,down,up,1.0328941000625491,1.3700620003187398,,experiment,cRDM,0.0,,,,925.2851864999392,184,26,male,True
273,0.0735624769335103,25,down,up,0.7662672000005841,1.1315566086672335,,experiment,cRDM,0.0,,,,927.7017781999892,184,26,male,True
274,0.0735624769335103,25,down,up,0.912651300081052,0.3497182435455364,,experiment,cRDM,0.0,,,,929.068425699952,184,26,male,True
275,0.0735624769335103,25,down,up,1.2137368000112474,0.4872954077751527,,experiment,cRDM,0.0,,,,930.7183128999312,184,26,male,True
276,0.0735624769335103,25,up,up,1.1075304999249056,1.7618913442332094,,experiment,cRDM,0.0,,,,933.9514750000088,184,26,male,True
277,0.0735624769335103,25,up,up,0.8018383999587968,0.4390996708783891,,experiment,cRDM,0.0,,,,935.7681949000108,184,26,male,True
278,0.0735624769335103,25,up,up,1.0703526000725103,1.749045112746406,,experiment,cRDM,0.0,,,,938.5846898999298,184,26,male,True
279,0.0735624769335103,25,up,down,0.7337984000332654,1.1836211207672376,,experiment,cRDM,0.0,,,,941.1012803999474,184,26,male,True
280,0.0735624769335103,25,down,down,0.7865394999971613,1.351028072626935,,experiment,cRDM,0.0,,,,943.4345026999944,184,26,male,True
281,0.0735624769335103,25,up,up,1.1132876999909058,1.847957275732451,,experiment,cRDM,0.0,,,,946.3177548999664,184,26,male,True
282,0.0735624769335103,25,up,down,1.3102243000175804,1.9605917457706143,,experiment,cRDM,0.0,,,,949.65081859997,184,26,male,True
283,0.0735624769335103,25,down,down,0.9174922000383958,0.9516686552141034,,experiment,cRDM,0.0,,,,952.1675864999416,184,26,male,True
284,0.0735624769335103,25,up,up,0.5515535998856649,0.4168777765278761,,experiment,cRDM,0.0,,,,953.7675262999256,184,26,male,True
285,0.0735624769335103,25,down,up,0.5228321999311447,0.4431318871012121,,experiment,cRDM,0.0,,,,955.0174297000048,184,26,male,True
286,0.0735624769335103,25,down,up,0.7176563000539318,1.4570437995372134,,experiment,cRDM,0.0,,,,957.2673895999324,184,26,male,True
287,0.0735624769335103,25,up,up,0.72644710005261,1.6498551848567684,,experiment,cRDM,0.0,,,,959.9005917999892,184,26,male,True
288,0.0735624769335103,25,up,up,1.2935019000433383,0.3692364071084402,,experiment,cRDM,0.0,,,,961.2505268999377,184,26,male,True
289,0.0735624769335103,25,down,up,1.7089289999566972,0.8162918204655372,,experiment,cRDM,0.0,,,,963.6171317999252,184,26,male,True
290,0.0735624769335103,25,up,up,0.8400389000307769,1.9790891702556932,,experiment,cRDM,0.0,,,,967.5670010999312,184,26,male,True
291,0.0735624769335103,25,down,down,0.7998309000395238,1.740106398487096,,experiment,cRDM,0.0,,,,970.4002042999492,184,26,male,True
292,0.0735624769335103,25,down,down,0.9856193999294192,1.7664638877515768,,experiment,cRDM,0.0,,,,973.2334169999232,184,26,male,True
293,0.0735624769335103,25,down,up,0.7750107999891043,0.6068948475776916,,experiment,cRDM,0.0,,,,975.1000301999738,184,26,male,True
294,0.0735624769335103,25,up,up,0.7764669000171125,1.4854940555395275,,experiment,cRDM,0.0,,,,977.6166045999852,184,26,male,True
295,0.0735624769335103,25,up,up,0.5029245000332594,1.9768923638974965,,experiment,cRDM,0.0,,,,980.6331475999904,184,26,male,True
296,0.0735624769335103,25,up,down,0.9905754999490456,0.6773205982983305,,experiment,cRDM,0.0,,,,982.0664645999204,184,26,male,True
297,0.0735624769335103,25,down,down,0.8680972999427468,1.3250099232049164,,experiment,cRDM,0.0,,,,984.6499527000124,184,26,male,True
298,0.0735624769335103,25,down,down,1.126439500018023,0.4234897819239864,,experiment,cRDM,0.0,,,,986.1996206999756,184,26,male,True
299,0.0735624769335103,25,up,down,0.5148355000419542,0.6341524980075575,,experiment,cRDM,0.0,,,,988.2162117999978,184,26,male,True
300,0.0735624769335103,25,down,down,0.923701599938795,1.247651123639547,,experiment,cRDM,0.0,,,,990.2493576999988,184,26,male,True
301,0.0735624769335103,25,up,,,0.9035508900230056,,experiment,cRDM,0.0,,,,992.349252199987,184,26,male,True
302,0.0735624769335103,25,up,up,1.3938599000684917,0.6198259930040719,,experiment,cRDM,0.0,,,,995.6491824999684,184,26,male,True
303,0.0735624769335103,25,up,down,0.9219219000078738,1.2554192320620667,,experiment,cRDM,0.0,,,,998.5491143999388,184,26,male,True
304,0.0735624769335103,25,down,down,0.6920588999055326,0.8190684614101547,,experiment,cRDM,0.0,,,,1000.5490208999254,184,26,male,True
305,0.0735624769335103,25,down,down,0.833706000004895,1.2325039161033826,,experiment,cRDM,0.0,,,,1002.732349299942,184,26,male,True
306,0.0735624769335103,25,up,up,0.7004416999407113,1.3069346807876705,,experiment,cRDM,0.0,,,,1005.11559880001,184,26,male,True
307,0.0735624769335103,25,down,down,0.5814104999881238,1.3854533653200891,,experiment,cRDM,0.0,,,,1007.4486555999612,184,26,male,True
308,0.0735624769335103,25,down,down,0.601331900106743,0.4514456537546366,,experiment,cRDM,0.0,,,,1008.7486906999256,184,26,male,True
309,0.0735624769335103,25,up,up,0.7133567999117076,1.9931946616343568,,experiment,cRDM,0.0,,,,1011.5986936999252,184,26,male,True
310,0.0735624769335103,25,up,down,0.837091000052169,1.4023015103889127,,experiment,cRDM,0.0,,,,1013.9819417999825,184,26,male,True
311,0.0735624769335103,25,down,down,0.5755342999473214,1.819961169853249,,experiment,cRDM,0.0,,,,1016.8984978999944,184,26,male,True
312,0.0735624769335103,25,up,up,0.6733153999084607,1.7404126207725428,,experiment,cRDM,0.0,,,,1019.4817199999234,184,26,male,True
313,0.0735624769335103,25,down,up,0.5214340999955311,1.7266343335937582,,experiment,cRDM,0.0,,,,1022.1316195999972,184,26,male,True
314,0.0735624769335103,25,down,up,0.4002797999419272,0.3022398164856165,,experiment,cRDM,0.0,,,,1023.214927299996,184,26,male,True
315,0.0735624769335103,25,down,up,0.3171501000178978,1.1955485601001277,,experiment,cRDM,0.0,,,,1025.0981920999477,184,26,male,True
316,0.0735624769335103,25,up,up,0.6079221999971196,0.3115250205549434,,experiment,cRDM,0.0,,,,1026.0981484999647,184,26,male,True
317,0.0735624769335103,25,up,down,1.1252814999315888,1.5980466593270797,,experiment,cRDM,0.0,,,,1028.5647518999176,184,26,male,True
318,0.0735624769335103,25,down,down,0.5309882999863476,0.4859061937347614,,experiment,cRDM,0.0,,,,1030.4480300999712,184,26,male,True
319,0.0735624769335103,25,down,up,0.7237485999939963,0.432297143910176,,experiment,cRDM,0.0,,,,1031.6812859999482,184,26,male,True
320,0.0735624769335103,25,up,down,0.925927099888213,1.9604284742026576,,experiment,cRDM,0.0,,,,1034.6310907999286,184,26,male,True
321,0.0735624769335103,25,up,up,0.6252357999328524,0.3360560688035783,,experiment,cRDM,0.0,,,,1036.147809999995,184,26,male,True
322,0.0735624769335103,25,up,down,0.588702299981378,1.288466352755177,,experiment,cRDM,0.0,,,,1038.3143582999471,184,26,male,True
323,0.0735624769335103,25,up,up,0.8073932999977842,0.8403077753383039,,experiment,cRDM,0.0,,,,1039.997638699948,184,26,male,True
324,0.0735624769335103,25,up,down,1.03614209999796,0.933665430954768,,experiment,cRDM,0.0,,,,1041.98089050001,184,26,male,True
325,0.0735624769335103,25,down,up,0.6335212000412866,1.1653164728919103,,experiment,cRDM,0.0,,,,1044.4475073999492,184,26,male,True
326,0.0735624769335103,25,down,up,0.7229446999263018,1.6725371145076142,,experiment,cRDM,0.0,,,,1047.0140526000175,184,26,male,True
327,0.0735624769335103,25,up,up,0.7557256000582129,1.3989193828014408,,experiment,cRDM,0.0,,,,1049.397302599973,184,26,male,True
328,0.0735624769335103,25,down,up,0.6755269999848679,1.715898743547917,,experiment,cRDM,0.0,,,,1052.1305467999773,184,26,male,True
329,0.0735624769335103,25,down,down,0.7299028999404982,0.429093136893051,,experiment,cRDM,0.0,,,,1053.4971405999968,184,26,male,True
330,0.0735624769335103,25,down,up,0.6676813999656588,0.6404924625258885,,experiment,cRDM,0.0,,,,1055.1303627999732,184,26,male,True
331,0.0735624769335103,25,up,up,1.0403605999890717,1.0921533398843322,,experiment,cRDM,0.0,,,,1057.163692299975,184,26,male,True
332,0.0735624769335103,25,down,down,0.6471036999719217,1.7271288321517086,,experiment,cRDM,0.0,,,,1060.1968912999146,184,26,male,True
333,0.0735624769335103,25,down,up,1.1015651000197977,1.521959319763477,,experiment,cRDM,0.0,,,,1062.6134650999447,184,26,male,True
334,0.0735624769335103,25,down,down,0.8411019999766722,0.3402425526834347,,experiment,cRDM,0.0,,,,1064.3299598000012,184,26,male,True
335,0.0735624769335103,25,up,up,0.6160304000368342,0.5547857100059512,,experiment,cRDM,0.0,,,,1065.979995499947,184,26,male,True
336,0.0735624769335103,25,up,up,0.5415387999964878,1.3089542742851326,,experiment,cRDM,0.0,,,,1068.146484299912,184,26,male,True
337,0.0735624769335103,25,down,up,0.6215593999950215,1.695454193569783,,experiment,cRDM,0.0,,,,1070.646452899906,184,26,male,True
338,0.0735624769335103,25,up,up,0.8148714000126347,0.5308209546226816,,experiment,cRDM,0.0,,,,1072.0631515999555,184,26,male,True
339,0.0735624769335103,25,down,down,0.723980600014329,1.0892991697615078,,experiment,cRDM,0.0,,,,1074.2130459999898,184,26,male,True
340,0.0735624769335103,25,up,down,1.4150927000446245,1.3213877024150786,,experiment,cRDM,0.0,,,,1076.512958599953,184,26,male,True
341,0.0735624769335103,25,up,up,0.6751447999849916,0.4764412882331508,,experiment,cRDM,0.0,,,,1078.6629178000148,184,26,male,True
342,124.0,25,M,down,0.7663790999213234,0.7272567794140328,,experiment,emotion,1.0,,,,1139.960634799907,184,26,male,True
343,114.0,25,M,up,0.7464481999631971,1.388140064250888,,experiment,emotion,1.0,,,,1142.410562100005,184,26,male,True
344,120.0,25,F,up,0.5782572999596596,0.4356770487688828,,experiment,emotion,1.0,,,,1143.8938210000051,184,26,male,True
345,124.0,25,F,down,0.569647099939175,1.9337739617138177,,experiment,emotion,1.0,,,,1146.6603993999306,184,26,male,True
346,120.0,25,M,down,0.8845032000681385,1.3570170185655148,,experiment,emotion,1.0,,,,1148.8435131999431,184,26,male,True
347,117.0,25,F,down,1.1335007000016049,0.6343262646011202,,experiment,emotion,1.0,,,,1150.6435116999785,184,26,male,True
348,114.0,25,M,down,0.9772568000480532,1.8722088653397204,,experiment,emotion,1.0,,,,1153.9267789999722,184,26,male,True
349,117.0,25,M,down,1.2503411000361666,1.8162643508659764,,experiment,emotion,1.0,,,,1156.9766778999474,184,26,male,True
350,124.0,25,F,down,1.0618756000185383,1.027704067344558,,experiment,emotion,1.0,,,,1159.5431397999637,184,26,male,True
351,117.0,25,F,up,0.4001707999268546,1.4296172128555384,,experiment,emotion,1.0,,,,1162.293151199934,184,26,male,True
352,120.0,25,F,up,0.6749292999738827,0.6083033243606693,,experiment,emotion,1.0,,,,1163.5930884999689,184,26,male,True
353,124.0,25,F,down,0.7300005999859422,1.1621238336770128,,experiment,emotion,1.0,,,,1165.6929989999626,184,26,male,True
354,120.0,25,F,down,0.6984338000183925,1.060577128452291,,experiment,emotion,1.0,,,,1167.7596051999135,184,26,male,True
355,114.0,25,F,up,0.9178367999847978,1.2224802767130278,,experiment,emotion,1.0,,,,1169.9761999999173,184,26,male,True
356,117.0,25,M,up,0.8872691000578925,0.4946832738700832,,experiment,emotion,1.0,,,,1171.642745399964,184,26,male,True
357,114.0,25,M,up,0.565942799905315,0.8773636567740994,,experiment,emotion,1.0,,,,1173.6760695999255,184,26,male,True
358,124.0,25,M,up,0.5269978999858722,0.6671219289657668,,experiment,emotion,1.0,,,,1175.1760146999732,184,26,male,True
359,114.0,25,M,up,0.5255098999477923,0.8581316875991885,,experiment,emotion,1.0,,,,1176.8424673000118,184,26,male,True
360,120.0,25,F,up,0.5872173000825569,1.7959960977602851,,experiment,emotion,1.0,,,,1179.4258272999432,184,26,male,True
361,120.0,25,M,up,0.6258891000179574,1.5814843010476562,,experiment,emotion,1.0,,,,1181.859112999984,184,26,male,True
362,117.0,25,M,up,0.6410140000516549,1.042571705237714,,experiment,emotion,1.0,,,,1183.8089992000023,184,26,male,True
363,117.0,25,F,up,0.7647458999417722,1.4643731387378378,,experiment,emotion,1.0,,,,1186.1922731999075,184,26,male,True
364,114.0,25,M,up,0.5688389999559149,1.204385755962671,,experiment,emotion,1.0,,,,1188.442190899979,184,26,male,True
365,124.0,25,F,up,0.560594700044021,0.7389011719526917,,experiment,emotion,1.0,,,,1190.0254413000075,184,26,male,True
366,120.0,25,F,up,0.5299238000297919,0.4907901689550428,,experiment,emotion,1.0,,,,1191.3420804999769,184,26,male,True
367,114.0,25,M,down,0.8003855999559164,1.25517851803809,,experiment,emotion,1.0,,,,1193.4086539999116,184,26,male,True
368,124.0,25,M,down,1.3011605000356212,1.6621282150327308,,experiment,emotion,1.0,,,,1196.1419104000088,184,26,male,True
369,124.0,25,F,up,1.1205225999001414,0.4891525978504458,,experiment,emotion,1.0,,,,1198.2084816999268,184,26,male,True
370,117.0,25,M,down,0.9623219999484718,1.926885935805468,,experiment,emotion,1.0,,,,1201.541711699916,184,26,male,True
371,114.0,25,F,down,1.2440356999868527,1.0147343342136477,,experiment,emotion,1.0,,,,1203.7749807999935,184,26,male,True
372,117.0,25,F,down,0.946845900034532,1.2139095893879903,,experiment,emotion,1.0,,,,1206.5081623999868,184,26,male,True
373,120.0,25,F,down,0.7205533999949694,0.8999241293020717,,experiment,emotion,1.0,,,,1208.641453399905,184,26,male,True
374,114.0,25,M,down,0.725639900076203,0.4055075701300377,,experiment,emotion,1.0,,,,1210.0413674999727,184,26,male,True
375,124.0,25,M,down,1.4913685999345034,0.5324862591802751,,experiment,emotion,1.0,,,,1211.5746702000033,184,26,male,True
376,120.0,25,M,up,1.175479399971664,0.7858720699325261,,experiment,emotion,1.0,,,,1214.1245231999785,184,26,male,True
377,124.0,25,F,down,0.9015242999885232,1.1901807921561804,,experiment,emotion,1.0,,,,1216.774473099969,184,26,male,True
378,114.0,25,F,down,0.965980499982834,1.4127453583041771,,experiment,emotion,1.0,,,,1219.3410427999916,184,26,male,True
379,120.0,25,M,down,0.8373448000056669,1.0837570727442332,,experiment,emotion,1.0,,,,1221.6576532999752,184,26,male,True
380,117.0,25,F,down,0.7165007999865338,1.8743617937977752,,experiment,emotion,1.0,,,,1224.657512799953,184,26,male,True
381,117.0,25,M,down,1.1038422000128776,0.4875443008537372,,experiment,emotion,1.0,,,,1226.1241719999816,184,26,male,True
382,120.0,25,M,up,0.9953190999804064,1.246329530736605,,experiment,emotion,1.0,,,,1228.7406839999603,184,26,male,True
383,124.0,25,M,up,1.0156610999256372,0.7027164399002435,,experiment,emotion,1.0,,,,1230.707286199904,184,26,male,True
384,117.0,25,F,down,1.2388817999744788,1.9785929634385016,,experiment,emotion,1.0,,,,1233.9571720999666,184,26,male,True
385,114.0,25,F,down,1.618538499926217,0.3631368193349017,,experiment,emotion,1.0,,,,1235.840468599927,184,26,male,True
386,114.0,25,M,up,1.0920429000398144,1.5392135227251371,,experiment,emotion,1.0,,,,1239.2570104999468,184,26,male,True
387,117.0,25,F,up,1.3464718000032008,1.163213530581768,,experiment,emotion,1.0,,,,1241.7735553999664,184,26,male,True
388,124.0,25,F,down,0.8627484999597073,0.7307366451913917,,experiment,emotion,1.0,,,,1244.123291399912,184,26,male,True
389,120.0,25,M,up,1.4553004999179393,0.8045240109687872,,experiment,emotion,1.0,,,,1246.0567271999316,184,26,male,True
390,114.0,25,M,down,1.4000316000310704,0.6559350147975505,,experiment,emotion,1.0,,,,1248.4399793999037,184,26,male,True
391,124.0,25,F,down,0.908133100019768,0.5826982299409523,,experiment,emotion,1.0,,,,1250.6899003,184,26,male,True
392,120.0,25,M,up,0.852880600024946,1.8707129503359647,,experiment,emotion,1.0,,,,1253.7231174999615,184,26,male,True
393,120.0,25,F,up,0.94928629999049,0.648626223685919,,experiment,emotion,1.0,,,,1255.4897165999282,184,26,male,True
394,114.0,25,F,down,0.8545518000610173,0.7383669552843407,,experiment,emotion,1.0,,,,1257.4394689999754,184,26,male,True
395,117.0,25,F,down,1.170419099973515,0.6432056777759902,,experiment,emotion,1.0,,,,1259.239608099917,184,26,male,True
396,124.0,25,M,down,2.194520500022918,1.2072906788702202,,experiment,emotion,1.0,,,,1261.8894732999615,184,26,male,True
397,117.0,25,M,up,1.2466770999599248,1.4889962372981391,,experiment,emotion,1.0,,,,1265.8393499999074,184,26,male,True
398,117.0,25,F,up,0.7507526000263169,0.5388182252706352,,experiment,emotion,1.0,,,,1267.889281000011,184,26,male,True
399,117.0,25,F,up,1.4935255000600591,0.6133118189574731,,experiment,emotion,1.0,,,,1269.5225001999645,184,26,male,True
400,124.0,25,M,up,1.3888852000236511,1.6014347204555093,,experiment,emotion,1.0,,,,1272.8890962000005,184,26,male,True
401,120.0,25,M,down,1.1163791000144556,1.885023697854238,,experiment,emotion,1.0,,,,1276.4556364999153,184,26,male,True
402,114.0,25,M,down,0.9042092999443412,0.5872157939669286,,experiment,emotion,1.0,,,,1278.4387588999234,184,26,male,True
403,114.0,25,M,down,0.7025055000558496,1.2495641973105764,,experiment,emotion,1.0,,,,1280.8554886999773,184,26,male,True
404,120.0,25,M,up,1.7873014999786392,0.5620839712209722,,experiment,emotion,1.0,,,,1282.3887198999291,184,26,male,True
405,124.0,25,F,down,1.6200003999983892,1.5151275173347598,,experiment,emotion,1.0,,,,1285.9719545999542,184,26,male,True
406,124.0,25,F,up,1.4597528000595048,1.9872873699133535,,experiment,emotion,1.0,,,,1289.8382706999546,184,26,male,True
407,114.0,25,M,up,0.8103206999367103,1.9509543716180529,,experiment,emotion,1.0,,,,1293.521669499925,184,26,male,True
408,124.0,25,F,up,0.6543935000663623,0.3143765952291902,,experiment,emotion,1.0,,,,1294.9215965999756,184,26,male,True
409,117.0,25,F,up,0.8591644000262022,1.437827310809747,,experiment,emotion,1.0,,,,1297.3048238999909,184,26,male,True
410,120.0,25,F,up,0.7550982000539079,1.9851265996590264,,experiment,emotion,1.0,,,,1300.4378930999665,184,26,male,True
411,117.0,25,M,down,1.0650572999147698,1.7209055380810947,,experiment,emotion,1.0,,,,1303.1879617999075,184,26,male,True
412,114.0,25,F,up,1.2084876999724656,1.773593652206725,,experiment,emotion,1.0,,,,1306.3045015999814,184,26,male,True
413,120.0,25,F,up,1.2012033999199048,0.8044031293730618,,experiment,emotion,1.0,,,,1308.5877756999107,184,26,male,True
414,117.0,25,F,up,0.7546616999898106,1.407772765411172,,experiment,emotion,1.0,,,,1311.4543241999345,184,26,male,True
415,120.0,25,M,up,0.722527000005357,0.9546768356671222,,experiment,emotion,1.0,,,,1313.437464699964,184,26,male,True
416,114.0,25,M,up,0.7318924000719562,1.9279400084048768,,experiment,emotion,1.0,,,,1316.3541538999416,184,26,male,True
417,124.0,25,F,down,0.956563499988988,0.6367417514824875,,experiment,emotion,1.0,,,,1317.9874223999211,184,26,male,True
418,120.0,25,M,up,0.9283147999085486,0.9507904860293436,,experiment,emotion,1.0,,,,1320.1706712999148,184,26,male,True
419,124.0,25,F,up,0.5984137000050396,1.5083283117805577,,experiment,emotion,1.0,,,,1322.8705999999074,184,26,male,True
420,114.0,25,M,up,1.2731803000206128,1.7144737017478802,,experiment,emotion,1.0,,,,1325.4538067999529,184,26,male,True
421,117.0,25,M,up,0.8810252000112087,0.9220883184939044,,experiment,emotion,1.0,,,,1327.9369625999825,184,26,male,True
422,0.0735624769335103,25,up,down,1.431893999921158,1.123262781183614,,experiment,cRDM,1.0,,,,1335.2701091999188,184,26,male,True
423,0.0735624769335103,25,up,up,0.6802526999963447,0.5726272303146546,,experiment,cRDM,1.0,,,,1337.536732199951,184,26,male,True
424,0.0735624769335103,25,down,down,1.0417232000036163,1.7128223808818406,,experiment,cRDM,1.0,,,,1340.2032627000008,184,26,male,True
425,0.0735624769335103,25,down,up,0.9321238999255002,0.3419220349035775,,experiment,cRDM,1.0,,,,1341.8698680999223,184,26,male,True
426,0.0735624769335103,25,up,up,0.8649111000122502,1.540171493692479,,experiment,cRDM,1.0,,,,1344.6030759999994,184,26,male,True
427,0.0735624769335103,25,down,down,0.8269819000270218,1.522004208532861,,experiment,cRDM,1.0,,,,1347.25302189996,184,26,male,True
428,0.0735624769335103,25,up,up,0.5490543999476358,0.8708088033331667,,experiment,cRDM,1.0,,,,1349.202916399925,184,26,male,True
429,0.0735624769335103,25,up,up,0.7727849999209866,0.4303344587995522,,experiment,cRDM,1.0,,,,1350.436186100007,184,26,male,True
430,0.0735624769335103,25,down,down,1.593965100008063,1.2697945640626616,,experiment,cRDM,1.0,,,,1352.7360192999477,184,26,male,True
431,0.0735624769335103,25,down,down,1.1126614999957385,1.8674547991981607,,experiment,cRDM,1.0,,,,1356.469328999985,184,26,male,True
432,0.0735624769335103,25,down,down,1.0540468000108376,0.3373862568961226,,experiment,cRDM,1.0,,,,1358.185941200005,184,26,male,True
433,0.0735624769335103,25,down,down,0.8459456999553367,1.2154225667375862,,experiment,cRDM,1.0,,,,1360.7190385999857,184,26,male,True
434,0.0735624769335103,25,down,up,1.7039315000874922,1.8224046900738944,,experiment,cRDM,1.0,,,,1363.6690715999575,184,26,male,True
435,0.0735624769335103,25,down,down,1.1864287999924272,1.3436342928915783,,experiment,cRDM,1.0,,,,1366.98558410001,184,26,male,True
436,0.0735624769335103,25,up,down,1.266173499985598,1.840431157015215,,experiment,cRDM,1.0,,,,1370.2688309999648,184,26,male,True
437,0.0735624769335103,25,up,down,1.1093778000213206,0.922631487087723,,experiment,cRDM,1.0,,,,1372.7186000999063,184,26,male,True
438,0.0735624769335103,25,up,up,0.8956825999775901,1.3456070824558188,,experiment,cRDM,1.0,,,,1375.435330200009,184,26,male,True
439,0.0735624769335103,25,up,up,0.7024920999538153,0.9260256397711276,,experiment,cRDM,1.0,,,,1377.5184860000154,184,26,male,True
440,0.0735624769335103,25,down,down,1.0081582000711933,0.907185958314817,,experiment,cRDM,1.0,,,,1379.4018227999331,184,26,male,True
441,0.0735624769335103,25,up,up,1.1409337000222877,1.5557776628788371,,experiment,cRDM,1.0,,,,1382.2350733999629,184,26,male,True
442,0.0735624769335103,25,up,up,1.7336951999459416,1.7713922716701709,,experiment,cRDM,1.0,,,,1385.4182807999896,184,26,male,True
443,0.0735624769335103,25,down,down,1.095423800055869,1.135125309410553,,experiment,cRDM,1.0,,,,1388.5515669999877,184,26,male,True
444,0.0735624769335103,25,up,down,1.2390169999562204,1.5120283885840438,,experiment,cRDM,1.0,,,,1391.4179476000136,184,26,male,True
445,0.0735624769335103,25,down,down,1.463357000029646,1.709877604171372,,experiment,cRDM,1.0,,,,1394.6346169000026,184,26,male,True
446,0.0735624769335103,25,down,down,0.9422316999407484,1.9492542736047256,,experiment,cRDM,1.0,,,,1398.3177467999049,184,26,male,True
447,0.0735624769335103,25,up,up,1.095972100039944,1.8427463285942032,,experiment,cRDM,1.0,,,,1401.351004899945,184,26,male,True
448,0.0735624769335103,25,up,up,0.8570745999459177,0.3889842029062942,,experiment,cRDM,1.0,,,,1403.100936200004,184,26,male,True
449,0.0735624769335103,25,down,down,0.9068111999658868,1.857622055795858,,experiment,cRDM,1.0,,,,1406.0842001999265,184,26,male,True
450,0.0735624769335103,25,up,down,0.9476658999919892,1.266334740068264,,experiment,cRDM,1.0,,,,1408.5172918000026,184,26,male,True
451,0.0735624769335103,25,down,down,0.7866588000906631,0.3922294952349139,,experiment,cRDM,1.0,,,,1410.117318399949,184,26,male,True
452,0.0735624769335103,25,down,down,0.6303000999614596,0.3306677925484399,,experiment,cRDM,1.0,,,,1411.5006290000165,184,26,male,True
453,0.0735624769335103,25,down,down,1.2123758000088856,0.5619266589280103,,experiment,cRDM,1.0,,,,1412.95059449994,184,26,male,True
454,0.0735624769335103,25,up,up,0.6489594000158831,0.4882357885996563,,experiment,cRDM,1.0,,,,1414.9170344999293,184,26,male,True
455,0.0735624769335103,25,up,down,0.8295293999835849,0.6707427138492514,,experiment,cRDM,1.0,,,,1416.500416799914,184,26,male,True
456,0.0735624769335103,25,up,up,1.5179541999241335,1.1685688770729314,,experiment,cRDM,1.0,,,,1418.7670204999158,184,26,male,True
457,0.0735624769335103,25,down,up,1.420060999924317,1.2191162349196478,,experiment,cRDM,1.0,,,,1421.7669270999031,184,26,male,True
458,0.0735624769335103,25,down,up,1.2712141000665724,0.3644959156339121,,experiment,cRDM,1.0,,,,1423.8167776999762,184,26,male,True
459,0.0735624769335103,25,up,up,1.142522200010717,1.1777625913493348,,experiment,cRDM,1.0,,,,1426.5334391999058,184,26,male,True
460,0.0735624769335103,25,down,down,1.0113450000062585,1.879543748324651,,experiment,cRDM,1.0,,,,1429.8166318999138,184,26,male,True
461,0.0735624769335103,25,up,up,0.6094218000071123,0.3809123672246065,,experiment,cRDM,1.0,,,,1431.4665702999337,184,26,male,True
462,0.0735624769335103,25,up,down,0.6944985999725759,1.4318654121867371,,experiment,cRDM,1.0,,,,1433.766480499995,184,26,male,True
463,0.0735624769335103,25,up,down,0.6885412000119686,0.637119677854852,,experiment,cRDM,1.0,,,,1435.366418199963,184,26,male,True
464,0.0735624769335103,25,down,down,0.5689501999877393,0.8567642952840364,,experiment,cRDM,1.0,,,,1437.1830231999047,184,26,male,True
465,0.0735624769335103,25,down,up,0.9760042000561951,0.8087083222810236,,experiment,cRDM,1.0,,,,1438.832984599983,184,26,male,True
466,0.0735624769335103,25,up,up,0.8537301999749616,0.7429681826986345,,experiment,cRDM,1.0,,,,1440.8162671999307,184,26,male,True
467,0.0735624769335103,25,down,down,0.7364740999182686,0.5193952240372448,,experiment,cRDM,1.0,,,,1442.4495058999164,184,26,male,True
468,0.0735624769335103,25,down,up,0.8945278999162838,0.3652079934021862,,experiment,cRDM,1.0,,,,1443.7994327999186,184,26,male,True
469,0.0735624769335103,25,up,up,0.7542939999839291,1.5234891060145752,,experiment,cRDM,1.0,,,,1446.482691399986,184,26,male,True
470,0.0735624769335103,25,up,up,1.1141498999204489,0.9203330333803176,,experiment,cRDM,1.0,,,,1448.4158232999034,184,26,male,True
471,0.0735624769335103,25,down,down,0.6788158999988809,0.9113857733529356,,experiment,cRDM,1.0,,,,1450.6991922999732,184,26,male,True
472,0.0735624769335103,25,up,up,0.8118402999825776,0.8639837263497272,,experiment,cRDM,1.0,,,,1452.4991229999578,184,26,male,True
473,0.0735624769335103,25,down,up,0.9512627999065444,1.2831541385459144,,experiment,cRDM,1.0,,,,1454.8657099999257,184,26,male,True
474,0.0735624769335103,25,down,down,0.6916752000106499,0.3928494987317113,,experiment,cRDM,1.0,,,,1456.4823093999876,184,26,male,True
475,0.0735624769335103,25,down,down,1.4151284999679774,0.7729597590528072,,experiment,cRDM,1.0,,,,1458.1989071000137,184,26,male,True
476,0.0735624769335103,25,up,up,0.6088114000158384,0.7599191428803422,,experiment,cRDM,1.0,,,,1460.6322131999768,184,26,male,True
477,0.0735624769335103,25,up,up,0.7962284999666736,1.545307986962139,,experiment,cRDM,1.0,,,,1463.0487372999778,184,26,male,True
478,0.0735624769335103,25,down,down,0.6933564000064507,1.9794587047063308,,experiment,cRDM,1.0,,,,1466.098609599983,184,26,male,True
479,0.0735624769335103,25,down,down,0.6250897999852896,1.1325752913605074,,experiment,cRDM,1.0,,,,1468.1818877999904,184,26,male,True
480,0.0735624769335103,25,up,down,1.377480199909769,0.4198666732973667,,experiment,cRDM,1.0,,,,1469.4984899999108,184,26,male,True
481,0.0735624769335103,25,up,up,0.9802557999501004,0.7336716756142476,,experiment,cRDM,1.0,,,,1471.881744799903,184,26,male,True
482,0.0735624769335103,25,up,up,1.4123464000876993,1.2518267638752512,,experiment,cRDM,1.0,,,,1474.381658099941,184,26,male,True
483,0.0735624769335103,25,up,down,1.4717599999858066,1.2457737759848904,,experiment,cRDM,1.0,,,,1477.298212799942,184,26,male,True
484,0.0735624769335103,25,up,up,0.9732169999042526,1.7385181858641596,,experiment,cRDM,1.0,,,,1480.764743299922,184,26,male,True
485,0.0735624769335103,25,down,up,0.9216642000246792,1.979498331712666,,experiment,cRDM,1.0,,,,1483.981303700013,184,26,male,True
486,0.0735624769335103,25,down,down,0.8297638000221923,1.674810525311948,,experiment,cRDM,1.0,,,,1486.8312157000182,184,26,male,True
487,0.0735624769335103,25,up,down,0.9865296999923884,0.7519589345368203,,experiment,cRDM,1.0,,,,1488.6644382999511,184,26,male,True
488,0.0735624769335103,25,down,down,1.0229254000587389,1.327476980586822,,experiment,cRDM,1.0,,,,1491.2310348999454,184,26,male,True
489,0.0735624769335103,25,down,down,1.0373707000399008,1.7352785715581314,,experiment,cRDM,1.0,,,,1494.2476143999957,184,26,male,True
490,0.0735624769335103,25,down,up,0.7470929000992328,0.9233843127630674,,experiment,cRDM,1.0,,,,1496.4808496999322,184,26,male,True
491,0.0735624769335103,25,up,up,1.294844500022009,0.6078949572526378,,experiment,cRDM,1.0,,,,1498.1141153000062,184,26,male,True
492,0.0735624769335103,25,down,down,0.647257599979639,0.5574298697234764,,experiment,cRDM,1.0,,,,1500.230734199984,184,26,male,True
493,0.0735624769335103,25,down,down,0.4432808000128716,0.4819151082262198,,experiment,cRDM,1.0,,,,1501.6306799999438,184,26,male,True
494,0.0735624769335103,25,down,down,0.7357358000008389,1.5563898117020194,,experiment,cRDM,1.0,,,,1503.8972355999283,184,26,male,True
495,0.0735624769335103,25,up,up,0.9044671999290586,1.181021043110573,,experiment,cRDM,1.0,,,,1506.0804974999046,184,26,male,True
496,0.0735624769335103,25,up,up,0.5945488999132067,0.5150607623056328,,experiment,cRDM,1.0,,,,1507.7804292999208,184,26,male,True
497,0.0735624769335103,25,down,up,1.1343185000587257,1.1761622728523726,,experiment,cRDM,1.0,,,,1509.8136445999844,184,26,male,True
498,0.0735624769335103,25,up,up,0.7360436000162736,1.3954577133317647,,experiment,cRDM,1.0,,,,1512.596911999979,184,26,male,True
499,0.0735624769335103,25,down,down,1.1901610000059009,0.7993548921994531,,experiment,cRDM,1.0,,,,1514.3968342000153,184,26,male,True
500,0.0735624769335103,25,up,up,1.0921735999872908,0.3082426926079695,,experiment,cRDM,1.0,,,,1516.1467868000036,184,26,male,True
501,0.0735624769335103,25,up,up,0.927674400038086,0.7191817225705058,,experiment,cRDM,1.0,,,,1518.2132831999334,184,26,male,True
502,124.0,25,M,,,0.3788860446219903,,experiment,emotion,2.0,,,,1522.9465491999872,184,26,male,True
503,114.0,25,M,,,1.9320989578894432,,experiment,emotion,2.0,,,,1527.5797062999336,184,26,male,True
504,120.0,25,F,down,1.410727299982682,0.5218982575827112,,experiment,emotion,2.0,,,,1530.796233000001,184,26,male,True
505,124.0,25,F,down,0.8962739000562578,1.7289385403439226,,experiment,emotion,2.0,,,,1534.2126777999802,184,26,male,True
506,120.0,25,M,down,0.8906030999496579,0.898387859297253,,experiment,emotion,2.0,,,,1536.2793748999247,184,26,male,True
507,117.0,25,F,down,1.3506887999828905,1.5333635219518678,,experiment,emotion,2.0,,,,1538.9792791999644,184,26,male,True
508,114.0,25,M,up,1.4061083999695256,1.0395595505190889,,experiment,emotion,2.0,,,,1541.645868099993,184,26,male,True
509,117.0,25,M,up,0.8392437000293285,1.1796109914287936,,experiment,emotion,2.0,,,,1544.495731699979,184,26,male,True
510,124.0,25,F,up,0.6273353000869974,0.8791800265287768,,experiment,emotion,2.0,,,,1546.4956500999397,184,26,male,True
511,117.0,25,F,down,0.8270209000911564,1.1365103396556908,,experiment,emotion,2.0,,,,1548.528932599933,184,26,male,True
512,120.0,25,F,up,1.2077935000415891,1.1186076820278956,,experiment,emotion,2.0,,,,1550.7621705000056,184,26,male,True
513,124.0,25,F,down,0.7835331000387669,1.1696564784546215,,experiment,emotion,2.0,,,,1553.3954176999396,184,26,male,True
514,120.0,25,F,down,1.1172779999906195,1.1776765516324832,,experiment,emotion,2.0,,,,1555.6286644999636,184,26,male,True
515,114.0,25,F,down,0.893068200093694,1.694364999069468,,experiment,emotion,2.0,,,,1558.711877399939,184,26,male,True
516,117.0,25,M,up,0.7818836999358609,1.709490741991902,,experiment,emotion,2.0,,,,1561.5951290999074,184,26,male,True
517,114.0,25,M,up,0.696265000035055,1.5801797961641888,,experiment,emotion,2.0,,,,1564.2116793999448,184,26,male,True
518,124.0,25,M,up,0.7120199000928551,1.146173765186989,,experiment,emotion,2.0,,,,1566.3449366999555,184,26,male,True
519,114.0,25,M,up,1.1386901000514629,1.271750258376951,,experiment,emotion,2.0,,,,1568.5781976999715,184,26,male,True
520,120.0,25,F,up,0.8479090000037104,1.939830115758296,,experiment,emotion,2.0,,,,1571.928075899952,184,26,male,True
521,120.0,25,M,up,1.0573144999798387,1.5978075182898464,,experiment,emotion,2.0,,,,1574.6446321000112,184,26,male,True
522,117.0,25,M,up,1.3843995000934228,1.0585542959885406,,experiment,emotion,2.0,,,,1577.0445439999455,184,26,male,True
523,117.0,25,F,up,0.8807927999878302,0.3099997414956412,,experiment,emotion,2.0,,,,1579.0111708999611,184,26,male,True
524,114.0,25,M,up,0.7668370000319555,1.3938429913162085,,experiment,emotion,2.0,,,,1581.5610469999956,184,26,male,True
525,124.0,25,F,up,1.0509863999905065,0.6027180996861854,,experiment,emotion,2.0,,,,1583.2109847000102,184,26,male,True
526,120.0,25,F,up,0.693741999915801,1.6966780122672538,,experiment,emotion,2.0,,,,1586.2442110999257,184,26,male,True
527,114.0,25,M,up,0.753834699979052,0.7834084182157935,,experiment,emotion,2.0,,,,1587.994146900019,184,26,male,True
528,124.0,25,M,up,1.1066042999736965,0.9972738424019638,,experiment,emotion,2.0,,,,1590.0273575999308,184,26,male,True
529,124.0,25,F,down,0.9089570000069216,0.5782862126425674,,experiment,emotion,2.0,,,,1591.993980399915,184,26,male,True
530,117.0,25,M,down,1.4850353000219911,1.4427153562758226,,experiment,emotion,2.0,,,,1594.6439124000026,184,26,male,True
531,114.0,25,F,down,0.9727889000205324,0.5820738042915341,,experiment,emotion,2.0,,,,1596.9771466999082,184,26,male,True
532,117.0,25,F,down,0.8986017999704927,1.3291879757427618,,experiment,emotion,2.0,,,,1599.5603777999058,184,26,male,True
533,120.0,25,F,up,0.6359548000618815,0.4314342708380527,,experiment,emotion,2.0,,,,1601.1769900999498,184,26,male,True
534,114.0,25,M,down,1.1717975999927148,1.8357558742195428,,experiment,emotion,2.0,,,,1603.9101467999865,184,26,male,True
535,124.0,25,M,down,1.6864794000284746,1.980494605758828,,experiment,emotion,2.0,,,,1607.3434396999655,184,26,male,True
536,120.0,25,M,down,0.9726752999704332,1.4357311582664616,,experiment,emotion,2.0,,,,1610.7433158999777,184,26,male,True
537,124.0,25,F,up,1.2220463000703603,1.2708977180372067,,experiment,emotion,2.0,,,,1613.2598869999638,184,26,male,True
538,114.0,25,F,up,1.5926327999914065,1.7555566769859403,,experiment,emotion,2.0,,,,1616.5263352999464,184,26,male,True
539,120.0,25,M,up,1.1140044000931084,1.807935220618775,,experiment,emotion,2.0,,,,1620.1929497999372,184,26,male,True
540,117.0,25,F,up,1.839072500006296,1.2836213586168117,,experiment,emotion,2.0,,,,1622.8928848999783,184,26,male,True
541,117.0,25,M,up,1.1121936000417918,1.1974203539854995,,experiment,emotion,2.0,,,,1626.1927279999943,184,26,male,True
542,120.0,25,M,up,0.8526412000646815,1.7791280361149246,,experiment,emotion,2.0,,,,1629.3592796999728,184,26,male,True
543,124.0,25,M,up,0.7093876999570057,0.7592826304762841,,experiment,emotion,2.0,,,,1631.2425515999785,184,26,male,True
544,117.0,25,F,down,0.9028491000644864,1.0930020008547516,,experiment,emotion,2.0,,,,1633.3090872999746,184,26,male,True
545,114.0,25,F,down,1.2785823999438437,1.458904964370731,,experiment,emotion,2.0,,,,1635.9423818999203,184,26,male,True
546,114.0,25,M,down,0.7384280000114813,1.875260454778931,,experiment,emotion,2.0,,,,1639.375579399988,184,26,male,True
547,117.0,25,F,up,0.8537265999475494,0.3655475644323873,,experiment,emotion,2.0,,,,1640.7422090999316,184,26,male,True
548,124.0,25,F,up,0.9552152999676764,1.7832476027395363,,experiment,emotion,2.0,,,,1643.6587740000105,184,26,male,True
549,120.0,25,M,up,0.7711786999134347,1.9191682947180533,,experiment,emotion,2.0,,,,1646.8419792999048,184,26,male,True
550,114.0,25,M,up,0.7390707999002188,0.8515339390179295,,experiment,emotion,2.0,,,,1648.7418733999366,184,26,male,True
551,124.0,25,F,up,0.9236107000615448,1.2498684431418077,,experiment,emotion,2.0,,,,1651.0083261999534,184,26,male,True
552,120.0,25,M,up,0.7300803000107408,1.2281069637874902,,experiment,emotion,2.0,,,,1653.4249364999123,184,26,male,True
553,120.0,25,F,up,0.7450434000929818,1.8024772115345529,,experiment,emotion,2.0,,,,1656.2248877999373,184,26,male,True
554,114.0,25,F,up,0.8265018999809399,1.2579596301851796,,experiment,emotion,2.0,,,,1658.4914365999866,184,26,male,True
555,117.0,25,F,up,0.7121507000410929,1.3555809953752207,,experiment,emotion,2.0,,,,1660.9747850999702,184,26,male,True
556,124.0,25,M,up,0.6892574999947101,1.9460268481201477,,experiment,emotion,2.0,,,,1663.9246830999618,184,26,male,True
557,117.0,25,M,up,0.6809757000301033,1.2623154269675414,,experiment,emotion,2.0,,,,1666.1579618999967,184,26,male,True
558,117.0,25,F,up,0.7653899999568239,0.4332549030602526,,experiment,emotion,2.0,,,,1667.524557699915,184,26,male,True
559,117.0,25,F,up,0.6177587000420317,1.8336646298577397,,experiment,emotion,2.0,,,,1670.39110899996,184,26,male,True
560,124.0,25,M,up,0.7543095999862999,1.4139164903041834,,experiment,emotion,2.0,,,,1672.7076293999562,184,26,male,True
561,120.0,25,M,up,0.6430390999885276,0.6640623061035587,,experiment,emotion,2.0,,,,1674.3909608999966,184,26,male,True
562,114.0,25,M,up,0.7413985000457615,1.6280236513215802,,experiment,emotion,2.0,,,,1676.9575213999487,184,26,male,True
563,114.0,25,M,down,1.1094999000197276,1.6874250565914075,,experiment,emotion,2.0,,,,1679.6574379999656,184,26,male,True
564,120.0,25,M,down,1.1186607999261469,1.7190176717659136,,experiment,emotion,2.0,,,,1682.757310899906,184,26,male,True
565,124.0,25,F,up,0.9217044999822974,1.9039992390012956,,experiment,emotion,2.0,,,,1686.057212500018,184,26,male,True
566,124.0,25,F,down,0.920904100057669,0.6512705966454271,,experiment,emotion,2.0,,,,1687.9070214999374,184,26,male,True
567,114.0,25,M,down,1.3478734999662263,0.3707205801103926,,experiment,emotion,2.0,,,,1689.457076099934,184,26,male,True
568,124.0,25,F,up,0.7937209999654442,1.8993971821839928,,experiment,emotion,2.0,,,,1692.9902570999693,184,26,male,True
569,117.0,25,F,up,0.8478012999985367,1.728365392600372,,experiment,emotion,2.0,,,,1695.7901722999522,184,26,male,True
570,120.0,25,F,up,1.723877300042659,1.709745102041617,,experiment,emotion,2.0,,,,1698.6400595000014,184,26,male,True
571,117.0,25,M,up,0.9229821000481024,1.3566845069281004,,experiment,emotion,2.0,,,,1701.9899486999493,184,26,male,True
572,114.0,25,F,up,1.231422100099735,1.7655330795709017,,experiment,emotion,2.0,,,,1704.9565121999476,184,26,male,True
573,120.0,25,F,up,0.9033372999401764,1.7397421403098032,,experiment,emotion,2.0,,,,1708.1895961000118,184,26,male,True
574,117.0,25,F,up,0.751278700074181,0.7158965751647652,,experiment,emotion,2.0,,,,1710.089645199943,184,26,male,True
575,120.0,25,M,down,0.7719837999902666,0.4643548920575022,,experiment,emotion,2.0,,,,1711.572948099929,184,26,male,True
576,114.0,25,M,up,0.6681106999749318,1.769062135339997,,experiment,emotion,2.0,,,,1714.372817599913,184,26,male,True
577,124.0,25,F,up,1.0071877000154927,0.9560196141473416,,experiment,emotion,2.0,,,,1716.272741499939,184,26,male,True
578,120.0,25,M,up,0.845584399998188,0.5963907858108415,,experiment,emotion,2.0,,,,1718.1393401999958,184,26,male,True
579,124.0,25,F,down,0.7753339000046253,1.4114423167647618,,experiment,emotion,2.0,,,,1720.6725973999128,184,26,male,True
580,114.0,25,M,up,0.8757429999532178,0.7801999416194572,,experiment,emotion,2.0,,,,1722.4891801999183,184,26,male,True
581,117.0,25,M,up,1.0803780000424013,1.4531484825895498,,experiment,emotion,2.0,,,,1725.1055672999937,184,26,male,True
582,0.0735624769335103,25,up,up,0.6709415999939665,0.726565060625466,,experiment,cRDM,2.0,,,,1755.187977299909,184,26,male,True
583,0.0735624769335103,25,up,up,0.7660283000441268,0.8135745075931518,,experiment,cRDM,2.0,,,,1756.9379091999726,184,26,male,True
584,0.0735624769335103,25,down,up,0.9381095999851824,1.7685522749891094,,experiment,cRDM,2.0,,,,1759.7378118999768,184,26,male,True
585,0.0735624769335103,25,down,up,0.9181721999775618,1.0448934788180837,,experiment,cRDM,2.0,,,,1761.9877419999102,184,26,male,True
586,0.0735624769335103,25,up,up,0.9666148999240248,1.7947423053277605,,experiment,cRDM,2.0,,,,1764.9543046999024,184,26,male,True
587,0.0735624769335103,25,down,down,1.0635036000749096,1.7173322965733282,,experiment,cRDM,2.0,,,,1767.887409799965,184,26,male,True
588,0.0735624769335103,25,up,down,1.0655566999921575,0.9705361039542412,,experiment,cRDM,2.0,,,,1770.187412399915,184,26,male,True
589,0.0735624769335103,25,up,down,0.924913699971512,1.8954027485109652,,experiment,cRDM,2.0,,,,1773.4040119999554,184,26,male,True
590,0.0735624769335103,25,down,up,0.5516446999972686,1.134234914420475,,experiment,cRDM,2.0,,,,1775.7372248999309,184,26,male,True
591,0.0735624769335103,25,down,up,0.6100318999961019,0.5027357648490982,,experiment,cRDM,2.0,,,,1777.0538818999194,184,26,male,True
592,0.0735624769335103,25,down,down,0.6075293000321835,0.7483973259240531,,experiment,cRDM,2.0,,,,1778.6704296999378,184,26,male,True
593,0.0735624769335103,25,down,up,1.4285611000377685,1.9658962441476424,,experiment,cRDM,2.0,,,,1781.5203788999934,184,26,male,True
594,0.0735624769335103,25,down,up,1.014344900031574,1.4393230105635753,,experiment,cRDM,2.0,,,,1784.6535678999498,184,26,male,True
595,0.0735624769335103,25,down,down,0.7000833000056446,0.3554669802952498,,experiment,cRDM,2.0,,,,1786.286830099998,184,26,male,True
596,0.0735624769335103,25,up,up,1.01013970002532,1.181092493053199,,experiment,cRDM,2.0,,,,1788.4367878999328,184,26,male,True
597,0.0735624769335103,25,up,up,0.8122448999201879,0.6925381380622516,,experiment,cRDM,2.0,,,,1790.3866834999062,184,26,male,True
598,0.0735624769335103,25,up,up,0.9369431000668555,0.501037727515975,,experiment,cRDM,2.0,,,,1791.9699644999346,184,26,male,True
599,0.0735624769335103,25,up,down,0.7214538999833167,1.6540256111922371,,experiment,cRDM,2.0,,,,1794.836523499922,184,26,male,True
600,0.0735624769335103,25,down,up,0.8420766999479383,0.4517760689406405,,experiment,cRDM,2.0,,,,1796.2697892999277,184,26,male,True
601,0.0735624769335103,25,up,up,0.6881538999732584,0.6920896538552652,,experiment,cRDM,2.0,,,,1798.0697622000007,184,26,male,True
602,0.0735624769335103,25,up,down,0.630266199936159,1.2076087429140046,,experiment,cRDM,2.0,,,,1800.2196850999026,184,26,male,True
603,0.0735624769335103,25,down,up,0.9796609999611974,0.7636589525764811,,experiment,cRDM,2.0,,,,1801.8862564999145,184,26,male,True
604,0.0735624769335103,25,up,down,0.6014154000440612,1.5501190259152795,,experiment,cRDM,2.0,,,,1804.6694977999432,184,26,male,True
605,0.0735624769335103,25,down,up,0.8441731999628246,0.5843139982174728,,experiment,cRDM,2.0,,,,1806.102740800008,184,26,male,True
606,0.0735624769335103,25,down,up,1.3865410999860617,1.810503690038115,,experiment,cRDM,2.0,,,,1809.019371100003,184,26,male,True
607,0.0735624769335103,25,up,up,0.6243566999910399,1.3928770951692926,,experiment,cRDM,2.0,,,,1812.0525790000104,184,26,male,True
608,0.0735624769335103,25,up,up,0.8287316999631003,0.9794860793738638,,experiment,cRDM,2.0,,,,1813.919183399994,184,26,male,True
609,0.0735624769335103,25,down,up,1.4258343999972567,1.6129941549808566,,experiment,cRDM,2.0,,,,1816.619075799943,184,26,male,True
610,0.0735624769335103,25,up,down,0.6199417000170797,0.570080517463533,,experiment,cRDM,2.0,,,,1818.8689783000157,184,26,male,True
611,0.0735624769335103,25,down,up,0.6489120000042021,1.4531833414150184,,experiment,cRDM,2.0,,,,1821.202008799999,184,26,male,True
612,0.0735624769335103,25,down,up,0.6474359999410808,0.9167005481924432,,experiment,cRDM,2.0,,,,1823.0354753999272,184,26,male,True
613,0.0735624769335103,25,down,up,0.6025389999849722,1.5365096978742332,,experiment,cRDM,2.0,,,,1825.4853849000065,184,26,male,True
614,0.0735624769335103,25,up,up,0.8683031999971718,1.6166708075152512,,experiment,cRDM,2.0,,,,1827.9686122999992,184,26,male,True
615,0.0735624769335103,25,up,down,2.346691899932921,0.9759375635203692,,experiment,cRDM,2.0,,,,1830.0852343000008,184,26,male,True
616,0.0735624769335103,25,up,down,0.8284668000414968,0.8729777788172026,,experiment,cRDM,2.0,,,,1833.5684565999543,184,26,male,True
617,0.0735624769335103,25,down,down,0.7422113000648096,0.8991869242490751,,experiment,cRDM,2.0,,,,1835.55169829994,184,26,male,True
618,0.0735624769335103,25,down,up,1.1771162999793887,0.533725448796066,,experiment,cRDM,2.0,,,,1837.0848147999493,184,26,male,True
619,0.0735624769335103,25,up,up,0.7627291999524459,0.5586194657075978,,experiment,cRDM,2.0,,,,1839.068220000016,184,26,male,True
620,0.0735624769335103,25,down,down,0.6767526000039652,1.518571962076218,,experiment,cRDM,2.0,,,,1841.6181592999487,184,26,male,True
621,0.0735624769335103,25,up,up,1.1238397000124678,0.5148844118471076,,experiment,cRDM,2.0,,,,1843.0680684999095,184,26,male,True
622,0.0735624769335103,25,up,up,0.8432632000185549,0.4351737585791632,,experiment,cRDM,2.0,,,,1844.8846649999032,184,26,male,True
623,0.0735624769335103,25,up,down,1.3983540000626815,1.5355372676869137,,experiment,cRDM,2.0,,,,1847.534544199938,184,26,male,True
624,0.0735624769335103,25,down,down,0.9497223000507802,0.7568530824980091,,experiment,cRDM,2.0,,,,1849.9512264999796,184,26,male,True
625,0.0735624769335103,25,down,down,1.30253270000685,1.4287165253648195,,experiment,cRDM,2.0,,,,1852.5843923999928,184,26,male,True
626,0.0735624769335103,25,up,down,0.748647499945946,1.6712490513400662,,experiment,cRDM,2.0,,,,1855.83427579992,184,26,male,True
627,0.0735624769335103,25,down,up,1.2753572000656277,0.5349916951285019,,experiment,cRDM,2.0,,,,1857.367548399954,184,26,male,True
628,0.0735624769335103,25,down,up,0.6960985999321565,0.3511681760581054,,experiment,cRDM,2.0,,,,1859.2508122000145,184,26,male,True
629,0.0735624769335103,25,up,up,0.9112645999994128,0.5949167102375745,,experiment,cRDM,2.0,,,,1860.8006390999071,184,26,male,True
630,0.0735624769335103,25,up,down,1.2052294999593869,0.5603590341029747,,experiment,cRDM,2.0,,,,1862.550699799904,184,26,male,True
631,0.0735624769335103,25,down,up,0.9222900000168012,0.6246788943040462,,experiment,cRDM,2.0,,,,1864.6506246000065,184,26,male,True
632,0.0735624769335103,25,up,up,0.6510190999833867,1.1110637181057788,,experiment,cRDM,2.0,,,,1866.9338904999893,184,26,male,True
633,0.0735624769335103,25,down,up,1.556451699929312,1.1469126360834585,,experiment,cRDM,2.0,,,,1869.0004744000037,184,26,male,True
634,0.0735624769335103,25,down,down,1.0682513000210747,1.1665724770322208,,experiment,cRDM,2.0,,,,1871.9836579000112,184,26,male,True
635,0.0735624769335103,25,down,up,0.6613555999938399,1.932564712587802,,experiment,cRDM,2.0,,,,1875.233563799993,184,26,male,True
636,0.0735624769335103,25,up,down,1.004129400011152,1.9154702327873268,,experiment,cRDM,2.0,,,,1878.0667840999083,184,26,male,True
637,0.0735624769335103,25,up,down,1.0925511999521405,1.3385602433892816,,experiment,cRDM,2.0,,,,1880.6833725000035,184,26,male,True
638,0.0735624769335103,25,down,down,1.0546487000538036,1.80157612704621,,experiment,cRDM,2.0,,,,1883.8332567999605,184,26,male,True
639,0.0735624769335103,25,down,up,1.071757800062187,1.2202925406070195,,experiment,cRDM,2.0,,,,1886.383143799961,184,26,male,True
640,0.0735624769335103,25,up,up,1.2175261999946088,1.137387279272936,,experiment,cRDM,2.0,,,,1888.8664187999675,184,26,male,True
641,0.0735624769335103,25,up,down,1.4975823999848217,1.023049093869786,,experiment,cRDM,2.0,,,,1891.36631209997,184,26,male,True
642,0.0735624769335103,25,up,,,1.5545728091103106,,experiment,cRDM,2.0,,,,1894.6828367999988,184,26,male,True
643,0.0735624769335103,25,up,up,0.8418482999550179,0.9945915786617814,,experiment,cRDM,2.0,,,,1898.3660549999915,184,26,male,True
644,0.0735624769335103,25,up,up,0.85360190004576,0.6884474207680287,,experiment,cRDM,2.0,,,,1900.1493203999707,184,26,male,True
645,0.0735624769335103,25,down,down,0.8469934000167996,0.6013646265881492,,experiment,cRDM,2.0,,,,1901.8659164999845,184,26,male,True
646,0.0735624769335103,25,down,up,0.8748109999578446,1.4323911440934405,,experiment,cRDM,2.0,,,,1904.399093199987,184,26,male,True
647,0.0735624769335103,25,up,up,1.4181301000062376,1.594478147871155,,experiment,cRDM,2.0,,,,1907.115766200004,184,26,male,True
648,0.0735624769335103,25,down,up,0.7410005000419915,1.39859738239354,,experiment,cRDM,2.0,,,,1910.1989014999708,184,26,male,True
649,0.0735624769335103,25,down,up,1.231351500027813,1.9089679264263573,,experiment,cRDM,2.0,,,,1913.115535399993,184,26,male,True
650,0.0735624769335103,25,down,up,1.0598405000055209,1.6300749297781232,,experiment,cRDM,2.0,,,,1916.2320581999372,184,26,male,True
651,0.0735624769335103,25,up,up,1.2499257000163198,1.0749808206656513,,experiment,cRDM,2.0,,,,1918.631973900017,184,26,male,True
652,0.0735624769335103,25,down,up,0.5733614000491798,1.3837757882829524,,experiment,cRDM,2.0,,,,1921.5485328999348,184,26,male,True
653,0.0735624769335103,25,down,up,0.8757299000862986,0.9680851740749412,,experiment,cRDM,2.0,,,,1923.365146499942,184,26,male,True
654,0.0735624769335103,25,down,up,1.1662049000151455,1.3697647065757708,,experiment,cRDM,2.0,,,,1925.8816901999528,184,26,male,True
655,0.0735624769335103,25,up,up,1.5796151999384165,1.4484694814218697,,experiment,cRDM,2.0,,,,1928.7482901999028,184,26,male,True
656,0.0735624769335103,25,up,up,1.0900858000386506,1.930238754700769,,experiment,cRDM,2.0,,,,1932.514812999987,184,26,male,True
657,0.0735624769335103,25,down,down,2.209938399959356,0.9399863943920936,,experiment,cRDM,2.0,,,,1934.7979576999787,184,26,male,True
658,0.0735624769335103,25,up,up,1.0549698000540957,0.334049601728958,,experiment,cRDM,2.0,,,,1937.597965999972,184,26,male,True
659,0.0735624769335103,25,down,up,1.0278512999648228,1.971628949285292,,experiment,cRDM,2.0,,,,1940.8810415999037,184,26,male,True
660,0.0735624769335103,25,up,up,0.8348095999099314,0.6573223470103726,,experiment,cRDM,2.0,,,,1942.8310786999064,184,26,male,True
661,0.0735624769335103,25,up,down,1.5648958999663591,1.7014027622490555,,experiment,cRDM,2.0,,,,1945.6309979999205,184,26,male,True
662,124.0,25,M,down,1.2925601999741048,0.4443830215291655,,experiment,emotion,3.0,,,,1971.463339800015,184,26,male,True
663,114.0,25,M,up,0.6265967000508681,0.478124751088387,,experiment,emotion,3.0,,,,1973.513294699951,184,26,male,True
664,120.0,25,F,up,0.7423245999962091,0.6836392912069302,,experiment,emotion,3.0,,,,1975.096568899928,184,26,male,True
665,124.0,25,F,down,1.4844565999228507,1.6502662672383808,,experiment,emotion,3.0,,,,1977.7464748999337,184,26,male,True
666,120.0,25,M,up,1.2535225000465289,1.003909025307733,,experiment,emotion,3.0,,,,1980.4963688999412,184,26,male,True
667,117.0,25,F,down,0.902016200008802,1.6855742272620855,,experiment,emotion,3.0,,,,1983.71290709998,184,26,male,True
668,114.0,25,M,up,1.6545650999760255,1.7894341484667973,,experiment,emotion,3.0,,,,1986.6793539999053,184,26,male,True
669,117.0,25,M,up,0.943206200026907,1.808298659765594,,experiment,emotion,3.0,,,,1990.4126820999663,184,26,male,True
670,124.0,25,F,up,1.1650387999834493,1.9021838885536293,,experiment,emotion,3.0,,,,1993.545866600005,184,26,male,True
671,117.0,25,F,up,1.3661194000160322,1.459443453293471,,experiment,emotion,3.0,,,,1996.4457862999989,184,26,male,True
672,120.0,25,F,up,0.7559093999443576,1.3306790803860626,,experiment,emotion,3.0,,,,1999.4289856000105,184,26,male,True
673,124.0,25,F,,,0.752309156096254,,experiment,emotion,3.0,,,,2001.2122737999307,184,26,male,True
674,120.0,25,F,up,0.7107914000516757,1.6744758231489432,,experiment,emotion,3.0,,,,2005.5620951999445,184,26,male,True
675,114.0,25,F,up,0.6331831000279635,1.0769931762456988,,experiment,emotion,3.0,,,,2007.6287080999464,184,26,male,True
676,117.0,25,M,down,1.3949436999391764,1.3805958660457995,,experiment,emotion,3.0,,,,2009.9119429999264,184,26,male,True
677,114.0,25,M,up,0.7523961000842974,1.4865383818189644,,experiment,emotion,3.0,,,,2013.078485599952,184,26,male,True
678,124.0,25,M,down,1.2348149999743327,1.14622940629097,,experiment,emotion,3.0,,,,2015.245067599928,184,26,male,True
679,114.0,25,M,down,0.977247399976477,1.8489579290075555,,experiment,emotion,3.0,,,,2018.611638800008,184,26,male,True
680,120.0,25,F,up,1.4053556000581011,1.5907640377658718,,experiment,emotion,3.0,,,,2021.4615266999465,184,26,male,True
681,120.0,25,M,up,1.4384872999507934,1.5222960074957397,,experiment,emotion,3.0,,,,2024.6613908999132,184,26,male,True
682,117.0,25,M,up,1.016560000018217,0.6925327715513889,,experiment,emotion,3.0,,,,2027.0613051999824,184,26,male,True
683,117.0,25,F,down,1.1499936000909656,1.4699050924950872,,experiment,emotion,3.0,,,,2029.8278879999416,184,26,male,True
684,114.0,25,M,down,0.9692481000674888,1.4181946583844067,,experiment,emotion,3.0,,,,2032.6776325999529,184,26,male,True
685,124.0,25,F,up,1.3489524000324309,1.5180477134847066,,experiment,emotion,3.0,,,,2035.46093219996,184,26,male,True
686,120.0,25,F,up,1.080487700062804,1.8869371941074755,,experiment,emotion,3.0,,,,2038.977431999985,184,26,male,True
687,114.0,25,M,up,1.145739899948239,0.9551335913146772,,experiment,emotion,3.0,,,,2041.2941397000104,184,26,male,True
688,124.0,25,M,down,1.846208899980411,1.655297459867354,,experiment,emotion,3.0,,,,2044.360658599995,184,26,male,True
689,124.0,25,F,up,0.9706924998899922,1.4641642035212157,,experiment,emotion,3.0,,,,2047.927202199935,184,26,male,True
690,117.0,25,M,up,1.0184460999444127,1.2152677370029916,,experiment,emotion,3.0,,,,2050.410429299925,184,26,male,True
691,114.0,25,F,down,1.3261394000146538,0.7856348575647846,,experiment,emotion,3.0,,,,2052.4937295999844,184,26,male,True
692,117.0,25,F,up,1.4613186001079157,0.7994964433303816,,experiment,emotion,3.0,,,,2054.8935687999474,184,26,male,True
693,120.0,25,F,up,1.0967829999281091,1.8226360292332984,,experiment,emotion,3.0,,,,2058.460162299918,184,26,male,True
694,114.0,25,M,up,0.7464863000204787,0.5957390684925484,,experiment,emotion,3.0,,,,2060.44340009999,184,26,male,True
695,124.0,25,M,up,1.156544499914162,1.2834329556847832,,experiment,emotion,3.0,,,,2062.743337999913,184,26,male,True
696,120.0,25,M,up,1.1343323000473902,1.4143630258938646,,experiment,emotion,3.0,,,,2065.576547799981,184,26,male,True
697,124.0,25,F,up,1.1483854000689462,0.6543415477408028,,experiment,emotion,3.0,,,,2067.626510799979,184,26,male,True
698,114.0,25,F,down,1.561137699987739,0.5641742666270264,,experiment,emotion,3.0,,,,2069.609744899906,184,26,male,True
699,120.0,25,M,up,0.9966082000173628,0.6258679229936477,,experiment,emotion,3.0,,,,2072.076319899992,184,26,male,True
700,117.0,25,F,up,0.8240417999913916,1.128400211383934,,experiment,emotion,3.0,,,,2074.4928328999085,184,26,male,True
701,117.0,25,M,up,0.7293455000035465,0.4260848925794975,,experiment,emotion,3.0,,,,2076.0095347999595,184,26,male,True
702,120.0,25,M,down,1.0891084000468254,0.9332115647103112,,experiment,emotion,3.0,,,,2077.94275669998,184,26,male,True
703,124.0,25,M,up,1.3731966000050306,1.52522034737107,,experiment,emotion,3.0,,,,2080.842679900001,184,26,male,True
704,117.0,25,F,down,1.4205794000299647,0.5267470182203431,,experiment,emotion,3.0,,,,2083.0092877999414,184,26,male,True
705,114.0,25,F,up,1.2070963999722153,1.6704016533445316,,experiment,emotion,3.0,,,,2086.3757752999663,184,26,male,True
706,114.0,25,M,up,1.2316262000240386,1.231181799304934,,experiment,emotion,3.0,,,,2089.092232099967,184,26,male,True
707,117.0,25,F,up,1.0629488999256864,1.2900619950436627,,experiment,emotion,3.0,,,,2091.908929399913,184,26,male,True
708,124.0,25,F,up,0.786305999965407,0.5333321779649585,,experiment,emotion,3.0,,,,2093.775549800019,184,26,male,True
709,120.0,25,M,,,1.4489868368049073,,experiment,emotion,3.0,,,,2096.2921123999404,184,26,male,True
710,114.0,25,M,up,1.3563633000012487,1.3132955821152406,,experiment,emotion,3.0,,,,2100.308628299972,184,26,male,True
711,124.0,25,F,up,0.986389599973336,0.9668372712557636,,experiment,emotion,3.0,,,,2102.90853409993,184,26,male,True
712,120.0,25,M,up,1.0408784999744969,1.5088777668388542,,experiment,emotion,3.0,,,,2105.674994300003,184,26,male,True
713,120.0,25,F,down,0.9152530001010746,0.4132518531802897,,experiment,emotion,3.0,,,,2107.391702499939,184,26,male,True
714,114.0,25,F,down,0.8206646000035107,0.4265433115802148,,experiment,emotion,3.0,,,,2109.008269599988,184,26,male,True
715,117.0,25,F,up,0.7976421000203118,0.8282697445435017,,experiment,emotion,3.0,,,,2110.958210199955,184,26,male,True
716,124.0,25,M,up,0.7634039999684319,0.6232986769679911,,experiment,emotion,3.0,,,,2112.6414918999653,184,26,male,True
717,117.0,25,M,down,1.452496899990365,1.6637606424985176,,experiment,emotion,3.0,,,,2115.341401799931,184,26,male,True
718,117.0,25,F,up,1.24322880001273,0.7691970417921841,,experiment,emotion,3.0,,,,2117.8246416999027,184,26,male,True
719,117.0,25,F,up,0.8529769999440759,0.3105036819078681,,experiment,emotion,3.0,,,,2119.657905799919,184,26,male,True
720,124.0,25,M,up,1.1168858000310138,1.2119308408830018,,experiment,emotion,3.0,,,,2121.99098839995,184,26,male,True
721,120.0,25,M,up,2.117123799980618,0.912892196144986,,experiment,emotion,3.0,,,,2124.307747300016,184,26,male,True
722,114.0,25,M,up,1.234251799993217,1.208702420072251,,experiment,emotion,3.0,,,,2127.9075992999133,184,26,male,True
723,114.0,25,M,up,1.112438700045459,1.983567026829728,,experiment,emotion,3.0,,,,2131.4074711999856,184,26,male,True
724,120.0,25,M,up,1.1541896000271663,1.8521853047990189,,experiment,emotion,3.0,,,,2134.6406807999592,184,26,male,True
725,124.0,25,F,up,1.2275548999896273,0.7325584871690145,,experiment,emotion,3.0,,,,2136.807315699989,184,26,male,True
726,124.0,25,F,up,1.5183706000680104,1.2427334079371333,,experiment,emotion,3.0,,,,2139.5404933999525,184,26,male,True
727,114.0,25,M,up,0.8818176999920979,1.0298554683972851,,experiment,emotion,3.0,,,,2142.357085299911,184,26,male,True
728,124.0,25,F,up,1.452912600012496,0.5587876096895528,,experiment,emotion,3.0,,,,2144.05700869998,184,26,male,True
729,117.0,25,F,up,1.4838849999941883,0.5124569718789596,,experiment,emotion,3.0,,,,2146.3069397999207,184,26,male,True
730,120.0,25,F,down,0.9533722000196576,0.5904280521668266,,experiment,emotion,3.0,,,,2148.673488899949,184,26,male,True
731,117.0,25,M,up,1.6511395999696106,1.6725335143868163,,experiment,emotion,3.0,,,,2151.556724499911,184,26,male,True
732,114.0,25,F,up,1.357006400008686,1.7940120995493074,,experiment,emotion,3.0,,,,2155.2898567999946,184,26,male,True
733,120.0,25,F,down,1.1033364000031725,0.8521133743484592,,experiment,emotion,3.0,,,,2157.7565111999866,184,26,male,True
734,117.0,25,F,up,1.5875634000403809,0.8909457312624234,,experiment,emotion,3.0,,,,2160.006300700013,184,26,male,True
735,120.0,25,M,up,1.380237799952738,1.5771679555069162,,experiment,emotion,3.0,,,,2163.4396295999177,184,26,male,True
736,114.0,25,M,down,1.052344800089486,1.5414727467963916,,experiment,emotion,3.0,,,,2166.639502699953,184,26,male,True
737,124.0,25,F,down,1.1614841000409797,1.8090386927724071,,experiment,emotion,3.0,,,,2169.789425099967,184,26,male,True
738,120.0,25,M,up,1.4052911000326276,0.3365758714136905,,experiment,emotion,3.0,,,,2171.572570199962,184,26,male,True
739,124.0,25,F,down,1.631651100004092,1.1427679701579354,,experiment,emotion,3.0,,,,2174.3892354000127,184,26,male,True
740,114.0,25,M,up,1.212102200021036,1.4995246339883006,,experiment,emotion,3.0,,,,2177.8057848999742,184,26,male,True
741,117.0,25,M,down,0.9992076000198722,1.4974609751071597,,experiment,emotion,3.0,,,,2180.805669899913,184,26,male,True
742,0.0735624769335103,25,up,up,0.6675119999563321,1.3882709294041784,,experiment,cRDM,3.0,,,,2197.838349799975,184,26,male,True
743,0.0735624769335103,25,up,down,0.744284899905324,0.969304819445268,,experiment,cRDM,3.0,,,,2199.721614999929,184,26,male,True
744,0.0735624769335103,25,down,up,0.7248122999444604,1.3731565161110204,,experiment,cRDM,3.0,,,,2202.088050699909,184,26,male,True
