,stimLvl,stimTime,rand,response,rt,precedingITI,trialNumber,trialType,stimuli,block,estIntens,estThres,estSlope,trialStart,subject,age,gender,headRest
0,0.9,100,down,,,1.1673964445212348,,introTrial,cRDM,,,,,204.4365852000192,80,33,male,True
1,150.0,100,F,,,1.132934145233231,,introTrial,emotion,,,,,209.55305280000903,80,33,male,True
2,200.0,25,F,up,0.7637240000767633,0.8617081976293088,,tutorial,emotion,,,,,249.16808790003412,80,33,male,True
3,200.0,25,F,up,0.5740373000735417,1.692670248576567,,tutorial,emotion,,,,,251.884851800045,80,33,male,True
4,200.0,25,M,up,0.573394599952735,1.158222221320757,,tutorial,emotion,,,,,253.9014337999979,80,33,male,True
5,0.0,25,M,down,0.4871143000200391,0.3331887310756473,,tutorial,emotion,,,,,255.13474720006343,80,33,male,True
6,0.0,25,F,down,1.0231350000249222,0.425259333353699,,tutorial,emotion,,,,,256.33469729998615,80,33,male,True
7,200.0,25,F,up,0.9292677000630648,1.3007590733030463,,tutorial,emotion,,,,,258.93458690005355,80,33,male,True
8,0.0,25,M,down,0.6550290000159293,1.3375120408309618,,tutorial,emotion,,,,,261.4678129000822,80,33,male,True
9,200.0,25,F,up,0.6627198000205681,0.4417240616691447,,tutorial,emotion,,,,,262.8511142000789,80,33,male,True
10,0.0,25,M,down,0.5416014000074938,0.6886625646852742,,tutorial,emotion,,,,,264.48422300000675,80,33,male,True
11,0.0,25,M,down,0.7981835999526083,0.5618873264032855,,tutorial,emotion,,,,,265.86765750008635,80,33,male,True
12,0.9,25,up,up,0.8235160000622272,0.9558139768278148,,tutorial,cRDM,,,,,275.01733940001577,80,33,male,True
13,0.9,25,up,up,0.6129386000102386,0.7142871517055491,,tutorial,cRDM,,,,,276.83394500007853,80,33,male,True
14,0.9,25,down,down,0.8496301000704989,1.7024719730634146,,tutorial,cRDM,,,,,279.4171691000229,80,33,male,True
15,0.9,25,down,down,0.6621472000842914,1.8721927540735128,,tutorial,cRDM,,,,,282.433726200019,80,33,male,True
16,0.9,25,up,up,0.6108423999976367,1.3063301844808528,,tutorial,cRDM,,,,,284.6669641000917,80,33,male,True
17,0.9,25,down,down,0.4989329999079928,1.5150233987263235,,tutorial,cRDM,,,,,287.06690159998834,80,33,male,True
18,0.9,25,up,up,0.5330073999939486,1.1712779153301864,,tutorial,cRDM,,,,,289.0168260000646,80,33,male,True
19,0.9,25,up,down,0.6603507000254467,0.6606284163187819,,tutorial,cRDM,,,,,290.48347610002384,80,33,male,True
20,0.9,25,down,down,0.7802493000635877,1.192774732966711,,tutorial,cRDM,,,,,292.6166867000284,80,33,male,True
21,0.9,25,down,down,0.5285879999864846,1.5223597108646447,,tutorial,cRDM,,,,,295.18327750009485,80,33,male,True
22,100.0,25,M,up,0.8975984000135213,1.9056076015227823,,psi_staircase_training,emotion,,100.0,100.0,25.00050000000001,310.26631099998485,80,33,male,True
23,55.0,25,M,down,0.4672007999615744,0.9999704929525048,,psi_staircase_training,emotion,,54.7428094675419,54.7428094675419,25.00050000000011,312.5326256999979,80,33,male,True
24,79.0,25,F,up,0.8557382000144571,1.4032331169579813,,psi_staircase_training,emotion,,79.636070985635,79.636070985635,25.713269254886413,314.7661370000569,80,33,male,True
25,63.0,25,F,down,0.7079939999384806,0.6130312748144359,,psi_staircase_training,emotion,,62.16401670338348,62.16401670338348,25.292325986283885,316.61580890009645,80,33,male,True
26,73.0,25,M,down,0.625827300013043,1.8495450035078207,,psi_staircase_training,emotion,,73.53930944190891,73.53930944190891,23.64975108561003,319.5490248000715,80,33,male,True
27,87.0,25,F,down,1.0418143999995664,0.5761805228198023,,psi_staircase_training,emotion,,82.48355301883353,82.48355301883353,24.57617413513036,321.0989772999892,80,33,male,True
28,106.0,25,M,up,0.581653599976562,1.8881215474968216,,psi_staircase_training,emotion,,93.47321971198342,93.47321971198342,30.11570117720217,324.38216770009603,80,33,male,True
29,102.0,25,F,up,0.7513754999963567,0.5913036073485378,,psi_staircase_training,emotion,,87.30823528954795,87.30823528954795,27.7273534307992,325.9154667999828,80,33,male,True
30,68.0,25,F,down,0.7196079000132158,0.639707857288301,,psi_staircase_training,emotion,,83.44475538654902,83.44475538654902,25.68608228109167,327.66525820002425,80,33,male,True
31,97.0,25,M,up,0.9729104000143708,1.91440973847491,,psi_staircase_training,emotion,,86.24064723047101,86.24064723047101,23.877520687671712,330.63192960002925,80,33,male,True
32,69.0,25,F,down,0.8469918000046164,1.1301070556212565,,psi_staircase_training,emotion,,83.31054953894326,83.31054953894326,21.89311654377176,333.0818803000729,80,33,male,True
33,93.0,25,F,down,0.950041800038889,1.5475098427203444,,psi_staircase_training,emotion,,85.20766704325236,85.20766704325236,20.06113658216017,335.8817996000871,80,33,male,True
34,107.0,25,F,up,0.6962736999848858,1.0440164098799214,,psi_staircase_training,emotion,,90.17495372902464,90.17495372902464,23.75651627390735,338.23163629998453,80,33,male,True
35,105.0,25,M,up,0.8025534000480548,0.7704085949491448,,psi_staircase_training,emotion,,88.38951204978507,88.38951204978507,21.77869160308998,340.0482724000467,80,33,male,True
36,75.0,25,M,down,0.8593155000125989,1.7202247141538285,,psi_staircase_training,emotion,,87.10805349140385,87.10805349140385,20.058450704603544,342.9314833000535,80,33,male,True
37,91.0,25,F,down,0.9570525999879465,1.177739345963344,,psi_staircase_training,emotion,,88.62721059417485,88.62721059417485,18.38244368786812,345.3147742000874,80,33,male,True
38,91.0,25,F,up,0.7714170999825001,1.7441784520627013,,psi_staircase_training,emotion,,91.38840646673567,91.38840646673567,18.27439875211271,348.3644285000628,80,33,male,True
39,106.0,25,M,up,0.6979323999257758,0.9176686756050438,,psi_staircase_training,emotion,,88.87118762830734,88.87118762830734,19.51747848980073,350.3978711999953,80,33,male,True
40,73.0,25,M,down,1.0066429000580683,0.6405351381642235,,psi_staircase_training,emotion,,88.09443021905777,88.09443021905777,18.066330778719827,352.0811775000766,80,33,male,True
41,75.0,25,M,down,0.8276269000489265,1.1500017755749588,,psi_staircase_training,emotion,,88.93113539502009,88.93113539502009,16.678130299583152,354.5641703000292,80,33,male,True
42,104.0,25,M,up,1.034180199960247,0.9866274130782926,,psi_staircase_training,emotion,,89.62633086553394,89.62633086553394,15.468475127078229,356.747643000097,80,33,male,True
43,79.0,25,F,down,0.981568600051105,1.385104928683963,,psi_staircase_training,emotion,,89.03578678726329,89.03578678726329,14.299490152594291,359.5142259000568,80,33,male,True
44,83.0,25,F,down,0.8447062999475747,1.9517133540986669,,psi_staircase_training,emotion,,89.75372912897424,89.75372912897424,13.28244242278024,362.8141215000069,80,33,male,True
45,102.0,25,F,down,0.7603730999398977,1.7933771680242014,,psi_staircase_training,emotion,,90.5566919475852,90.5566919475852,12.4295281700509,365.7804249000037,80,33,male,True
46,110.0,25,M,down,1.158290599938482,1.490711764250703,,psi_staircase_training,emotion,,92.91893391255908,92.91893391255908,17.10389154509514,368.3805649999995,80,33,male,True
47,118.0,25,M,up,0.6643359999870881,1.7873704029736928,,psi_staircase_training,emotion,,96.20490699967112,96.20490699967112,23.5962286249123,371.6635070000775,80,33,male,True
48,117.0,25,F,up,0.7296225999016315,1.648959734041214,,psi_staircase_training,emotion,,95.35443008623888,95.35443008623888,22.2270663404842,374.33032850001473,80,33,male,True
49,116.0,25,F,up,0.6525272000581026,0.7938867982530773,,psi_staircase_training,emotion,,94.67531293402207,94.67531293402207,21.015121066389558,376.2302861000644,80,33,male,True
50,115.0,25,M,up,0.7085138999391347,1.8338192439812728,,psi_staircase_training,emotion,,94.1272842606905,94.1272842606905,19.945913309519177,379.0633391999872,80,33,male,True
51,74.0,25,M,down,0.8016952000325546,0.8981958245596948,,psi_staircase_training,emotion,,93.6784916441182,93.6784916441182,19.00323866354625,381.03011120005976,80,33,male,True
52,0.29,25,up,up,0.6267220999579877,1.6685304457048995,,psi_staircase_training,cRDM,,0.25,0.2569312402994632,0.105,390.6630606000545,80,33,male,True
53,0.25,25,up,up,0.6757650999352336,0.8556743495358401,,psi_staircase_training,cRDM,,0.2191026665318312,0.2260132002683492,0.1046863203387393,392.4130038000876,80,33,male,True
54,0.21,25,down,down,0.6325633999658749,1.5913247501379617,,psi_staircase_training,cRDM,,0.1900540959403307,0.1968497961554001,0.1029467298424999,394.946245900006,80,33,male,True
55,0.18,25,down,down,0.6160092001082376,1.4562132210190932,,psi_staircase_training,cRDM,,0.1635257589279754,0.1701521334256793,0.1003816477568649,397.3128231000155,80,33,male,True
56,0.15,25,up,up,0.7781061999266967,1.959741503202498,,psi_staircase_training,cRDM,,0.1401895574244936,0.1466013351187503,0.0971307628663642,400.1627318999963,80,33,male,True
57,0.13,25,down,down,0.7791835999814793,1.5085560297506648,,psi_staircase_training,cRDM,,0.1198760602145479,0.1260554767618333,0.0936107694196103,402.7126418000553,80,33,male,True
58,0.11,25,up,up,0.7168945999583229,0.4162682334076391,,psi_staircase_training,cRDM,,0.1025773523696548,0.1084910344569865,0.0895852101993795,404.1959159000544,80,33,male,True
59,0.09,25,down,down,0.5959113000426441,1.1001006019162802,,psi_staircase_training,cRDM,,0.087844325958594,0.0934818215320969,0.0854013148647635,406.2958739000605,80,33,male,True
60,0.08,25,down,up,0.6834017999935895,1.6100488050486177,,psi_staircase_training,cRDM,,0.0751852092118086,0.0805556301471181,0.0813554535472043,408.7623881000327,80,33,male,True
61,0.13,25,up,up,0.5921825999394059,1.674198444298197,,psi_staircase_training,cRDM,,0.1145374077699418,0.1210371210567565,0.0984628819128368,411.3956694999943,80,33,male,True
62,0.13,25,down,down,0.6375443000579253,0.600092181495269,,psi_staircase_training,cRDM,,0.1023941484636293,0.108577482786431,0.0936701190325844,412.8622410000535,80,33,male,True
63,0.12,25,down,up,0.6903450000099838,0.7280586920449827,,psi_staircase_training,cRDM,,0.093157405715179,0.098965388034743,0.0879839851464166,414.4955243000295,80,33,male,True
64,0.16,25,down,down,0.7080328000010923,1.6205605628174218,,psi_staircase_training,cRDM,,0.1290085181734406,0.136602985232638,0.1150470921167567,417.0787946000928,80,33,male,True
65,0.16,25,up,up,0.701136099989526,1.5799120862375986,,psi_staircase_training,cRDM,,0.1173317507949223,0.1246537931796921,0.1109201841494908,419.6286767000565,80,33,male,True
66,0.15,25,up,up,0.7595956999575719,1.5237677019937377,,psi_staircase_training,cRDM,,0.1084336674921715,0.115430444050328,0.105992795930524,422.1452513000695,80,33,male,True
67,0.15,25,down,up,0.6963582000462338,1.44723207995901,,psi_staircase_training,cRDM,,0.1014971773031523,0.1081597895223434,0.1009306058930361,424.6284739000257,80,33,male,True
68,0.19,25,down,up,0.9043750999262556,1.076778267891661,,psi_staircase_training,cRDM,,0.1311759096731119,0.1399113547684893,0.1323315446278292,426.67843150009867,80,33,male,True
69,0.27,25,up,up,0.7671940999571234,1.610196117786573,,psi_staircase_training,cRDM,,0.1777719022859084,0.1874605604871939,0.1467715830330918,429.46163520007394,80,33,male,True
70,0.24,25,up,up,0.6279614000814036,1.6708308581567346,,psi_staircase_training,cRDM,,0.164613836096729,0.1742331685248633,0.1457213804912112,432.1948730000295,80,33,male,True
71,0.22,25,up,up,0.7180545000592247,1.07238254347039,,psi_staircase_training,cRDM,,0.1529941157321184,0.1625343182396457,0.1445226568422298,434.1617735000327,80,33,male,True
72,0.18,25,up,up,0.6037816000171006,1.3665832905841566,,psi_staircase_training,cRDM,,0.1427357006322008,0.1522048961212953,0.1434469854452916,436.5280601000413,80,33,male,True
73,0.18,25,down,down,0.8545710999751464,0.8624725990957187,,psi_staircase_training,cRDM,,0.1324850524224694,0.1419995529330337,0.1441333023306977,438.26123430009466,80,33,male,True
74,0.18,25,down,up,0.7382825999520719,1.9515587584648,,psi_staircase_training,cRDM,,0.1237353843245807,0.1332318275947376,0.1438597567369987,441.3445276999846,80,33,male,True
75,0.24,25,down,up,0.7440297000575811,1.367878917606164,,psi_staircase_training,cRDM,,0.1552076104915146,0.1649816632615447,0.1480652086081381,443.727777000051,80,33,male,True
76,0.3,25,up,down,0.4561258999165147,1.1741499235510966,,psi_staircase_training,cRDM,,0.1959318491389414,0.2063472535209366,0.1577809184013111,445.9277135999873,80,33,male,True
77,0.35,25,up,up,0.5065755000105128,1.3010735998174028,,psi_staircase_training,cRDM,,0.2521913870081252,0.2629412876060458,0.1628481359777795,447.9612588000018,80,33,male,True
78,0.33,25,down,down,0.7536206000950187,0.9997927731339378,,psi_staircase_training,cRDM,,0.2383335494780419,0.2491702046273287,0.1641623636628547,449.7442089000251,80,33,male,True
79,0.3,25,down,down,0.6061310999793932,1.4011327247320349,,psi_staircase_training,cRDM,,0.2257479502595152,0.23662911865027,0.1648366860282894,452.1607088000746,80,33,male,True
80,0.3,25,up,up,0.6094190999865532,0.5364009717793327,,psi_staircase_training,cRDM,,0.213788132579135,0.2247118404459029,0.1654811082079278,453.5774498000974,80,33,male,True
81,0.29,25,up,up,0.7281274000415578,0.7558576406092254,,psi_staircase_training,cRDM,,0.20351942466722,0.2144378586664004,0.1654012154221112,455.2107008000603,80,33,male,True
82,100.0,25,M,down,0.852510099997744,0.3523391499644084,,psi_staircase,emotion,,100.0,100.0,25.00050000000001,489.5593118000543,80,33,male,True
83,145.0,25,M,up,0.6136585000203922,1.4943479215145823,,psi_staircase,emotion,,145.25719053245996,145.25719053245996,25.00050000000028,492.2590888000559,80,33,male,True
84,121.0,25,F,up,0.7365051000379026,1.57500197781281,,psi_staircase,emotion,,120.36392901436103,120.36392901436103,25.71326925488699,494.8092525000684,80,33,male,True
85,97.0,25,F,down,0.6798969000810757,0.5703458672458812,,psi_staircase,emotion,,102.3887610608496,102.3887610608496,26.14633372628729,496.4589537000284,80,33,male,True
86,113.0,25,M,up,1.1849093999480829,0.7715439133022164,,psi_staircase,emotion,,114.01123255420406,114.01123255420406,23.00305641778335,498.2588817999931,80,33,male,True
87,105.0,25,F,down,0.7511570999631658,1.9682571233073165,,psi_staircase,emotion,,104.94359593877375,104.94359593877375,22.15060322358215,501.7586916000582,80,33,male,True
88,116.0,25,M,up,0.7140435000183061,0.6176292346799468,,psi_staircase,emotion,,111.58377353439042,111.58377353439042,20.59785325106301,503.4587754000677,80,33,male,True
89,108.0,25,F,down,1.2429061000002548,1.79362119758871,,psi_staircase,emotion,,107.51987113577816,107.51987113577816,17.54703484605283,506.3088370000478,80,33,male,True
90,116.0,25,F,up,0.7403229000046849,1.8631213922005687,,psi_staircase,emotion,,111.52498693761704,111.52498693761704,16.34487087665532,509.7585129000945,80,33,male,True
91,110.0,25,M,up,0.6888027000240982,0.7370681061959798,,psi_staircase,emotion,,109.29238845796864,109.29238845796864,13.220683937514313,511.5919721000828,80,33,male,True
92,103.0,25,F,up,1.39249719993677,1.4245357470503397,,psi_staircase,emotion,,106.60325556426832,106.60325556426832,14.111810382277048,514.0582953999983,80,33,male,True
93,90.0,25,F,down,0.7466622999636456,1.6237763716204177,,psi_staircase,emotion,,101.1697630019114,101.1697630019114,23.295149063221928,517.4250824000919,80,33,male,True
94,92.0,25,F,down,0.9238482000073418,1.586815486327268,,psi_staircase,emotion,,103.9221076962239,103.9221076962239,20.178138448822544,520.1249740000349,80,33,male,True
95,93.0,25,M,down,0.7623444000491872,1.86234160126882,,psi_staircase,emotion,,105.6832749959516,105.6832749959516,17.530256931481954,523.2584598000394,80,33,male,True
96,118.0,25,M,down,0.9234131999546662,1.7168220903022062,,psi_staircase,emotion,,106.77800845114714,106.77800845114714,15.352792995832656,526.0914392999839,80,33,male,True
97,128.0,25,F,down,0.828794699977152,1.6284287370735806,,psi_staircase,emotion,,110.43799946665358,110.43799946665358,23.590156269106465,529.0079885000596,80,33,male,True
98,139.0,25,F,up,0.6785446000285447,0.4032086209101621,,psi_staircase,emotion,,115.25714158462492,115.25714158462492,30.835614170762423,530.5912538000848,80,33,male,True
99,138.0,25,M,down,1.0882562000770122,0.4012628594679792,,psi_staircase,emotion,,113.7360511457577,113.7360511457577,29.40761129626424,532.0245421000291,80,33,male,True
100,146.0,25,M,up,0.7061389000155032,1.9756256374328347,,psi_staircase,emotion,,118.56072722263234,118.56072722263234,34.73182188514768,535.4576682000188,80,33,male,True
101,145.0,25,M,up,0.6777512999251485,1.2791329263714135,,psi_staircase,emotion,,117.15724652942012,117.15724652942012,33.75413181385444,537.7910048000049,80,33,male,True
102,144.0,25,M,up,0.6536797999870032,1.7320945132067336,,psi_staircase,emotion,,115.9488217617746,115.9488217617746,32.80054524160422,540.5581070000771,80,33,male,True
103,86.0,25,F,down,0.7650030999211594,1.7018800304111408,,psi_staircase,emotion,,114.90344264659144,114.90344264659144,31.87383244230826,543.2907915000105,80,33,male,True
104,144.0,25,F,up,0.6619758999440819,0.8746781751182369,,psi_staircase,emotion,,115.85264431121564,115.85264431121564,30.91494818139343,545.2738344999962,80,33,male,True
105,87.0,25,F,down,0.8102119999239221,1.2711591382068048,,psi_staircase,emotion,,114.97844894235732,114.97844894235732,29.965400352286032,547.5575755999889,80,33,male,True
106,143.0,25,M,up,0.7079428000142798,1.0031156624300972,,psi_staircase,emotion,,115.79393315045492,115.79393315045492,28.99421562456424,549.7238717,80,33,male,True
107,88.0,25,M,down,0.6429933999897912,1.0722697245975623,,psi_staircase,emotion,,115.036309494593,115.036309494593,28.04287331810116,551.8569068000652,80,33,male,True
108,142.0,25,F,up,0.6467320999363437,0.3611947025229122,,psi_staircase,emotion,,115.73582182739364,115.73582182739364,27.091238314032285,553.2070858000079,80,33,male,True
109,89.0,25,F,down,0.4705414000200107,1.93724544724703,,psi_staircase,emotion,,115.0770772981528,115.0770772981528,26.16874369912294,556.1403115000576,80,33,male,True
110,140.0,25,M,up,0.6089055000338703,1.0487375392489588,,psi_staircase,emotion,,115.67777154256568,115.67777154256568,25.26579557593266,558.0069052000763,80,33,male,True
111,90.0,25,M,down,0.6627805000171065,1.52958546099051,,psi_staircase,emotion,,115.07526662518823,115.07526662518823,24.38530827019292,560.4901486000745,80,33,male,True
112,139.0,25,F,up,0.5944507999811321,0.8219294402526589,,psi_staircase,emotion,,115.5935900486743,115.5935900486743,23.55158178480152,562.3234207000351,80,33,male,True
113,91.0,25,M,down,0.7464979999931529,1.7496373825323914,,psi_staircase,emotion,,115.06068428450304,115.06068428450304,22.742984653480413,565.0233209000435,80,33,male,True
114,137.0,25,F,up,1.1332065000897271,0.6774947323115679,,psi_staircase,emotion,,115.51161424985447,115.51161424985447,21.99135243400473,566.8065876000328,80,33,male,True
115,136.0,25,M,up,0.6660257000476122,1.199243089953508,,psi_staircase,emotion,,115.00838995208925,115.00838995208925,21.25164905044078,569.4898267000681,80,33,male,True
116,93.0,25,F,down,0.6187048000283539,1.0149212744388232,,psi_staircase,emotion,,114.55212878261632,114.55212878261632,20.572212570939183,571.5230644000694,80,33,male,True
117,134.0,25,M,up,0.8620755999581888,1.7859136203656654,,psi_staircase,emotion,,114.96955834083784,114.96955834083784,19.913036622263675,574.2727303000866,80,33,male,True
118,94.0,25,F,down,1.2252473999978974,1.40141502696083,,psi_staircase,emotion,,114.52099689683163,114.52099689683163,19.29740337986468,576.8895553000038,80,33,male,True
119,131.0,25,M,up,0.6047147000208497,1.6566917226958804,,psi_staircase,emotion,,114.89362888803886,114.89362888803886,18.719890112222483,580.106109400047,80,33,male,True
120,130.0,25,M,up,0.5961033999919891,1.1617839341388796,,psi_staircase,emotion,,114.41402978037723,114.41402978037723,18.155849475557368,582.222686400055,80,33,male,True
121,96.0,25,F,down,0.7951894000871107,1.5701364850131996,,psi_staircase,emotion,,113.95849912228384,113.95849912228384,17.630302496470478,584.7225917000324,80,33,male,True
122,128.0,25,F,up,0.7123500000452623,1.4733778126870478,,psi_staircase,emotion,,114.31656095332008,114.31656095332008,17.126647100532203,587.3224861000199,80,33,male,True
123,127.0,25,F,up,0.973791699972935,1.821772806100132,,psi_staircase,emotion,,113.84372119730708,113.84372119730708,16.640702914709497,590.1890265999828,80,33,male,True
124,125.0,25,M,up,0.8446840000106022,0.9676030088490384,,psi_staircase,emotion,,113.38443955918336,113.38443955918336,16.178231284600955,592.4721338000381,80,33,male,True
125,124.0,25,M,up,0.9660107999807224,1.5331836083796129,,psi_staircase,emotion,,112.89983956396271,112.89983956396271,15.733667228476472,595.188891400001,80,33,male,True
126,123.0,25,F,up,0.7179818000877276,0.643439903654992,,psi_staircase,emotion,,112.4221213102506,112.4221213102506,15.299838770939648,597.1387955000391,80,33,male,True
127,122.0,25,F,up,0.7270630999701098,1.783274813910882,,psi_staircase,emotion,,111.9488231998622,111.9488231998622,14.871979503549474,599.9887173000025,80,33,male,True
128,121.0,25,F,up,0.8008323999820277,1.004508665163214,,psi_staircase,emotion,,111.47810002396064,111.47810002396064,14.445634915658935,602.0719482999993,80,33,male,True
129,120.0,25,M,up,0.7018640000605956,0.9538735925682976,,psi_staircase,emotion,,111.0086708313629,111.0086708313629,14.016689683562026,604.1718929000199,80,33,male,True
130,120.0,25,M,up,0.719029700034298,0.5116724906105223,,psi_staircase,emotion,,110.53977834290032,110.53977834290032,13.581451763944983,605.7218018000713,80,33,male,True
131,119.0,25,M,up,1.2164130000164732,1.3538923172233723,,psi_staircase,emotion,,110.11132243653957,110.11132243653957,13.13563892986592,608.1383881000802,80,33,male,True
132,0.29,25,up,up,0.725262499996461,0.6560850692954406,,psi_staircase,cRDM,,0.25,0.2569312402994632,0.105,622.4545769999968,80,33,male,True
133,0.25,25,up,down,1.1989960999926552,0.3442755744860895,,psi_staircase,cRDM,,0.2191026665318312,0.2260132002683492,0.1046863203387393,623.7878242000006,80,33,male,True
134,0.36,25,down,down,0.7300894999643788,1.9390337548240908,,psi_staircase,cRDM,,0.3202997408361979,0.3276103223604739,0.1107465658214764,627.1877085000742,80,33,male,True
135,0.33,25,down,down,0.776490299962461,1.4612886310701565,,psi_staircase,cRDM,,0.2990372097977385,0.3064139828071687,0.1117492876491608,629.654305000091,80,33,male,True
136,0.31,25,up,up,0.617969200015068,1.433685404104623,,psi_staircase,cRDM,,0.2780189805609542,0.2853981109641391,0.1117849993448387,632.120803900063,80,33,male,True
137,0.31,25,down,down,1.135979100014083,1.058354036665556,,psi_staircase,cRDM,,0.2582073586141265,0.2655339603556145,0.1109892529502702,634.0708076000446,80,33,male,True
138,0.29,25,up,up,0.6144815000006929,1.7188993018043992,,psi_staircase,cRDM,,0.2413824040928039,0.2485489846939696,0.1085651240775294,637.1873267000774,80,33,male,True
139,0.24,25,down,down,1.132834199932404,0.8287197154896973,,psi_staircase,cRDM,,0.2254490558334334,0.2325152283915249,0.107044062324179,638.9039416000014,80,33,male,True
140,0.24,25,down,down,0.7440890000434592,1.161830648936342,,psi_staircase,cRDM,,0.2047474993923183,0.2122731702078401,0.1140049113130558,641.4536825000541,80,33,male,True
141,0.23,25,up,up,0.4002386000938713,1.9396396885984184,,psi_staircase,cRDM,,0.1850396237580905,0.1928548615388246,0.1183915044816175,644.4037472000346,80,33,male,True
142,0.22,25,down,down,0.5395367000019178,1.352837077201739,,psi_staircase,cRDM,,0.1668004946365475,0.1747693235574314,0.1207182265427456,646.437258400023,80,33,male,True
143,0.19,25,down,down,0.4784677000716328,1.2445731367958002,,psi_staircase,cRDM,,0.1506096300720314,0.158598129293522,0.1210162080690623,648.4702842000406,80,33,male,True
144,0.16,25,down,down,0.427921500056982,1.1839574712066732,,psi_staircase,cRDM,,0.135507089673702,0.1434388787911001,0.120157117823674,650.386850800016,80,33,male,True
145,0.14,25,up,up,0.6082418999867514,1.1565013759531175,,psi_staircase,cRDM,,0.1213518367539312,0.1291794776051846,0.118579396164529,652.2365759999957,80,33,male,True
146,0.12,25,up,up,0.5457784000318497,1.6143594485656023,,psi_staircase,cRDM,,0.1084178208533575,0.116084136894849,0.1161355182591124,654.7200223000254,80,33,male,True
147,0.11,25,down,down,0.4288214000407606,0.9353421719971796,,psi_staircase,cRDM,,0.0965625233657855,0.1040285422265698,0.1131012555491776,656.4699533000821,80,33,male,True
148,0.09,25,down,down,0.6177481000777334,1.5777844307339337,,psi_staircase,cRDM,,0.0859825213914451,0.0931807400325001,0.1090444025392264,658.7370702000335,80,33,male,True
149,0.08,25,up,up,0.6050111999502406,1.9133457563958216,,psi_staircase,cRDM,,0.0762184001724781,0.0831526670422574,0.1050458489201712,661.5197783000767,80,33,male,True
150,0.07,25,up,up,0.957912000012584,0.3826339400504587,,psi_staircase,cRDM,,0.0674179551267727,0.0740405557749694,0.1003244784507758,662.7528875999851,80,33,male,True
151,0.06,25,up,up,0.794523400021717,0.3595572428707638,,psi_staircase,cRDM,,0.0594886579238325,0.0657681603216241,0.0951269503409331,664.3363327999832,80,33,male,True
152,0.06,25,up,up,0.9710584999993443,0.3589530701468472,,psi_staircase,cRDM,,0.0523219480352204,0.0582465793881382,0.0897510784764661,665.7527153000701,80,33,male,True
153,0.05,25,down,down,1.2272220999002457,1.5397315373528413,,psi_staircase,cRDM,,0.0460980611892111,0.0515787442171695,0.0830257923650677,668.5194936000044,80,33,male,True
154,0.04,25,down,up,0.8964382000267506,1.7222920771650156,,psi_staircase,cRDM,,0.0404624409911801,0.0455324610605963,0.0768047397418787,671.7363569000736,80,33,male,True
155,0.08,25,down,down,2.057745300000533,0.9953905791060772,,psi_staircase,cRDM,,0.0592382685384568,0.0655851677442225,0.0961479313676366,673.8859814000316,80,33,male,True
156,0.08,25,up,up,1.3140500000445172,1.9138948937008984,,psi_staircase,cRDM,,0.0545732897435829,0.0604068869936576,0.0883720207053388,678.119149300037,80,33,male,True
157,0.08,25,up,down,0.994695600005798,0.8744061836083827,,psi_staircase,cRDM,,0.0508925165011736,0.0561947152818925,0.0803219695064677,680.569071700098,80,33,male,True
158,0.1,25,down,down,1.2837828999618068,0.5764297056351793,,psi_staircase,cRDM,,0.0690568940984307,0.0777364638501532,0.1314851000046019,682.4189859000035,80,33,male,True
159,0.1,25,down,down,0.8291991000296548,1.1149731360759274,,psi_staircase,cRDM,,0.0640474904089959,0.0724433624449426,0.1271874189447264,685.0855739000253,80,33,male,True
160,0.1,25,up,up,1.4909681000281123,1.4486896903577768,,psi_staircase,cRDM,,0.0598184450254885,0.0678847663208791,0.122195119404761,687.6187998000532,80,33,male,True
161,0.1,25,up,up,0.8470447000581771,0.4391250448051096,,psi_staircase,cRDM,,0.0562922713670902,0.0639918977859369,0.1166401306331151,689.8187411000254,80,33,male,True
162,0.07,25,down,up,0.8684808999532834,1.5089239967150023,,psi_staircase,cRDM,,0.0533954292893439,0.0606995776532304,0.110649111136353,692.4352952000918,80,33,male,True
163,0.11,25,up,up,0.7249363999580964,1.4221054869754026,,psi_staircase,cRDM,,0.066155305764646,0.0742947993615261,0.1233035922500895,695.0018654000014,80,33,male,True
164,0.11,25,down,up,0.8759746999712661,0.8161673984148812,,psi_staircase,cRDM,,0.0632747003135832,0.0710549707063963,0.1178617903795138,696.8018084000796,80,33,male,True
165,0.13,25,up,up,1.3590388000011444,1.5449923652303017,,psi_staircase,cRDM,,0.0753014527422274,0.0851128934760686,0.1486315915396996,699.5017091000918,80,33,male,True
166,0.13,25,down,down,1.118889300036244,1.2631526439269574,,psi_staircase,cRDM,,0.0711529895882346,0.0808150032165996,0.1463679496232274,702.384914400056,80,33,male,True
167,0.13,25,up,up,0.8811848999466747,1.2811587898296897,,psi_staircase,cRDM,,0.0675180413579124,0.0770108770404226,0.1438051060992296,705.0346128999954,80,33,male,True
168,0.12,25,down,up,0.6959802000783384,0.4094800470029581,,psi_staircase,cRDM,,0.0643413313765069,0.0736472298094869,0.1409732303666581,706.5847813000437,80,33,male,True
169,0.18,25,up,down,0.5017231999663636,1.222745766002206,,psi_staircase,cRDM,,0.0777274672826707,0.0879452371170862,0.1547869913984521,708.7680718000047,80,33,male,True
170,0.21,25,up,up,0.788170599960722,1.2567600911615808,,psi_staircase,cRDM,,0.0967825497132456,0.1077190415131509,0.1656747695039492,710.7846105000935,80,33,male,True
171,0.21,25,down,up,0.7892333000199869,0.7315802017576567,,psi_staircase,cRDM,,0.0928050685878551,0.1036593599270591,0.1644295308452479,712.5845541000599,80,33,male,True
172,0.23,25,down,up,0.8516440000385046,0.5704824796631287,,psi_staircase,cRDM,,0.1147249290095999,0.1261278809519955,0.1727410827242923,714.2011591000482,80,33,male,True
173,0.23,25,down,up,0.6809722000034526,0.8565089672020978,,psi_staircase,cRDM,,0.1413819055695156,0.15308163573466,0.1772369178190655,716.1677855000598,80,33,male,True
174,0.24,25,up,up,0.5604310999624431,0.4177429734782787,,psi_staircase,cRDM,,0.1720837941869508,0.1836992575299953,0.1759603762567737,717.5343538000016,80,33,male,True
175,0.23,25,up,up,0.4854747001081705,0.5709254601755949,,psi_staircase,cRDM,,0.1633983061389124,0.1751312319119873,0.1777397915735611,718.9343215000117,80,33,male,True
176,0.23,25,down,up,0.856518599903211,0.4342861591668258,,psi_staircase,cRDM,,0.1555293333233758,0.1673442846162591,0.1789823800869832,720.1342518000165,80,33,male,True
177,0.24,25,down,up,0.8381972999777645,1.2159908138455175,,psi_staircase,cRDM,,0.184608396189236,0.1962398523326317,0.17620264805292,722.4675632000435,80,33,male,True
178,0.24,25,down,down,1.1251755999401212,0.5698888163469161,,psi_staircase,cRDM,,0.2157166086340446,0.2268733404283437,0.1690111419874045,724.1506232999964,80,33,male,True
179,0.24,25,up,up,1.2090442000189796,0.5642556891090964,,psi_staircase,cRDM,,0.2055406476778398,0.2169862811252916,0.1733876564740512,726.1007420000387,80,33,male,True
180,0.23,25,up,up,0.7558604000369087,1.6747825243937635,,psi_staircase,cRDM,,0.1963028366507705,0.2079540712886745,0.1765022685874356,729.2508809000719,80,33,male,True
181,0.23,25,up,up,0.6949142999947071,1.8607536977598045,,psi_staircase,cRDM,,0.1877428753243055,0.1995575177471023,0.1789777010746152,732.1338193999836,80,33,male,True
182,114.0,25,F,down,1.5163306000176815,1.6407052116548788,,experiment,emotion,0.0,,,,742.5334313000785,80,33,male,True
183,104.0,25,M,up,0.7869295000564307,0.7294233824168441,,experiment,emotion,0.0,,,,745.0498301000334,80,33,male,True
184,111.0,25,F,,,1.322261783773491,,experiment,emotion,0.0,,,,747.4332541000331,80,33,male,True
185,114.0,25,M,up,1.109281299985014,0.9585845261998328,,experiment,emotion,0.0,,,,751.0664860000834,80,33,male,True
186,111.0,25,F,down,1.0520969000644982,1.6536601207031325,,experiment,emotion,0.0,,,,754.099684100016,80,33,male,True
187,108.0,25,F,down,1.1554656999651345,1.771327966696014,,experiment,emotion,0.0,,,,757.2162719999906,80,33,male,True
188,104.0,25,M,down,0.9146285000024365,1.380913399468741,,experiment,emotion,0.0,,,,760.016137800063,80,33,male,True
189,108.0,25,F,down,1.2363189000170678,1.105428938236691,,experiment,emotion,0.0,,,,762.2994116999907,80,33,male,True
190,114.0,25,M,down,1.0079489999916404,1.7107369516102862,,experiment,emotion,0.0,,,,765.5328634000616,80,33,male,True
191,108.0,25,M,down,0.9676062000216916,1.818607134898256,,experiment,emotion,0.0,,,,768.6491684000939,80,33,male,True
192,111.0,25,F,down,1.5920292000519112,1.1651903073659031,,experiment,emotion,0.0,,,,771.0657336000586,80,33,male,True
193,114.0,25,M,down,0.9175239000469446,1.7758866593731275,,experiment,emotion,0.0,,,,774.8322592000477,80,33,male,True
194,111.0,25,M,down,1.1109988000243902,1.979622899560311,,experiment,emotion,0.0,,,,777.9988057999872,80,33,male,True
195,104.0,25,M,down,0.74267740000505,0.7843204741579286,,experiment,emotion,0.0,,,,780.1820744000142,80,33,male,True
196,108.0,25,F,down,0.7620681999251246,0.4863571809326111,,experiment,emotion,0.0,,,,781.6986761000007,80,33,male,True
197,104.0,25,F,down,0.7210458000190556,0.6876554075625017,,experiment,emotion,0.0,,,,783.4319375000196,80,33,male,True
198,114.0,25,M,up,0.8608748000115156,1.1016662916208204,,experiment,emotion,0.0,,,,785.5318592000986,80,33,male,True
199,104.0,25,M,down,1.0653822999447584,1.2467476945496525,,experiment,emotion,0.0,,,,787.898454500013,80,33,male,True
200,111.0,25,F,up,1.022066699923016,1.5041674633841122,,experiment,emotion,0.0,,,,790.7316843000008,80,33,male,True
201,111.0,25,F,up,0.6402164000319317,0.40725708229374,,experiment,emotion,0.0,,,,792.4316097000847,80,33,male,True
202,108.0,25,M,up,0.4625978999538347,1.0585231406616202,,experiment,emotion,0.0,,,,794.3982099000132,80,33,male,True
203,108.0,25,F,up,0.4422737000277266,0.7996616656241983,,experiment,emotion,0.0,,,,795.9314809000352,80,33,male,True
204,104.0,25,M,up,0.6463615000247955,1.5374349169654569,,experiment,emotion,0.0,,,,798.1814192000311,80,33,male,True
205,114.0,25,F,up,0.4804466000059619,1.143149327550257,,experiment,emotion,0.0,,,,800.2482719999971,80,33,male,True
206,111.0,25,F,up,0.843536900007166,1.4645886954424334,,experiment,emotion,0.0,,,,802.4812391999876,80,33,male,True
207,104.0,25,M,down,1.1952859000302851,1.7624189409249726,,experiment,emotion,0.0,,,,805.3644849000266,80,33,male,True
208,114.0,25,M,down,0.9083655999274924,0.6829426111124988,,experiment,emotion,0.0,,,,807.5143841000972,80,33,male,True
209,114.0,25,F,down,1.1147839999757707,1.6726291543462248,,experiment,emotion,0.0,,,,810.3809721000725,80,33,male,True
210,108.0,25,M,down,0.9315799999749288,1.6352118362181267,,experiment,emotion,0.0,,,,813.4141538999975,80,33,male,True
211,104.0,25,F,down,0.5933626000769436,0.8924847866096397,,experiment,emotion,0.0,,,,815.4974370000418,80,33,male,True
212,108.0,25,M,down,0.6547269000438973,0.9593209192114304,,experiment,emotion,0.0,,,,817.314018300036,80,33,male,True
213,111.0,25,F,up,1.337429599952884,0.7545196512156975,,experiment,emotion,0.0,,,,818.997337100096,80,33,male,True
214,104.0,25,M,down,0.7578385000815615,1.0593739737309944,,experiment,emotion,0.0,,,,821.663898000028,80,33,male,True
215,114.0,25,F,up,0.9275870999554172,1.2337038866899308,,experiment,emotion,0.0,,,,823.9471432000864,80,33,male,True
216,111.0,25,M,up,1.1987784000812098,1.3686251045342035,,experiment,emotion,0.0,,,,826.4970232000342,80,33,male,True
217,114.0,25,F,up,1.8284476000117136,1.1147912586529036,,experiment,emotion,0.0,,,,829.0802880000556,80,33,male,True
218,104.0,25,M,up,1.0972449000691995,0.4846215747885593,,experiment,emotion,0.0,,,,831.6635017000372,80,33,male,True
219,111.0,25,F,up,0.7893018999602646,0.7308660636429065,,experiment,emotion,0.0,,,,833.7634364999831,80,33,male,True
220,108.0,25,M,up,1.018983400077559,1.5904438930811793,,experiment,emotion,0.0,,,,836.4297705000499,80,33,male,True
221,108.0,25,F,up,0.906472000060603,1.2439161052803291,,experiment,emotion,0.0,,,,838.9632538000587,80,33,male,True
222,111.0,25,F,up,0.73892540007364,0.8985288472208808,,experiment,emotion,0.0,,,,841.0298171000322,80,33,male,True
223,114.0,25,M,up,0.6892985999584198,0.7477757627631372,,experiment,emotion,0.0,,,,842.7964581000851,80,33,male,True
224,108.0,25,F,up,0.7791630000574514,1.7969843418828335,,experiment,emotion,0.0,,,,845.5465872000204,80,33,male,True
225,104.0,25,M,up,0.8114306000061333,0.541580825224726,,experiment,emotion,0.0,,,,847.1462797999848,80,33,male,True
226,104.0,25,M,down,0.9518924999283628,0.5410908638888525,,experiment,emotion,0.0,,,,848.7628569999943,80,33,male,True
227,108.0,25,F,up,0.7869751999387518,1.2794684935625498,,experiment,emotion,0.0,,,,851.2628108999925,80,33,male,True
228,114.0,25,F,up,1.2691027000546455,1.931623100095648,,experiment,emotion,0.0,,,,854.262666100054,80,33,male,True
229,111.0,25,M,up,0.8148730000248179,1.5964712386956388,,experiment,emotion,0.0,,,,857.3958932000678,80,33,male,True
230,104.0,25,F,up,0.8216484000440687,1.843987683541382,,experiment,emotion,0.0,,,,860.3290919000283,80,33,male,True
231,114.0,25,M,up,0.476054499973543,0.3640302889736681,,experiment,emotion,0.0,,,,861.7957456000149,80,33,male,True
232,111.0,25,M,up,0.4964624000713229,1.472523935889767,,experiment,emotion,0.0,,,,864.0122824000427,80,33,male,True
233,111.0,25,M,up,0.6414175999816507,1.7698096373241594,,experiment,emotion,0.0,,,,866.5453267000848,80,33,male,True
234,104.0,25,M,up,0.6399363999953493,1.0179235304067633,,experiment,emotion,0.0,,,,868.4788011000492,80,33,male,True
235,108.0,25,M,up,0.946670199977234,0.3704186170693548,,experiment,emotion,0.0,,,,869.7621253000107,80,33,male,True
236,114.0,25,F,up,0.6740482000168413,0.4594100388166446,,experiment,emotion,0.0,,,,871.4286910000956,80,33,male,True
237,108.0,25,F,up,0.7344141999492422,1.2037763412280649,,experiment,emotion,0.0,,,,873.5953042000765,80,33,male,True
238,108.0,25,F,up,1.271212200052105,1.2443027872553645,,experiment,emotion,0.0,,,,875.8285285000456,80,33,male,True
239,108.0,25,M,up,0.7513052999274805,0.475670478705214,,experiment,emotion,0.0,,,,877.8284746999852,80,33,male,True
240,114.0,25,F,up,0.8457023999653757,1.4628723909292678,,experiment,emotion,0.0,,,,880.2950184000656,80,33,male,True
241,111.0,25,F,up,0.677438999991864,1.4717645163045228,,experiment,emotion,0.0,,,,882.8783040000126,80,33,male,True
242,104.0,25,F,up,0.7285478999838233,0.9812637696318978,,experiment,emotion,0.0,,,,884.8281931000529,80,33,male,True
243,104.0,25,M,down,1.1891258000396192,1.116980539854357,,experiment,emotion,0.0,,,,886.9446149000432,80,33,male,True
244,111.0,25,F,up,0.6010587000055239,0.6986016997113598,,experiment,emotion,0.0,,,,889.0947135000024,80,33,male,True
245,114.0,25,M,up,0.6044481000863016,1.2923573071283725,,experiment,emotion,0.0,,,,891.2613158000167,80,33,male,True
246,114.0,25,M,up,0.771466700010933,0.3337288338024619,,experiment,emotion,0.0,,,,892.4612545000855,80,33,male,True
247,104.0,25,F,up,0.383482800098136,0.7549329281931974,,experiment,emotion,0.0,,,,894.2612243000185,80,33,male,True
248,114.0,25,M,up,0.4496427999110892,1.5729585400153696,,experiment,emotion,0.0,,,,896.5111001000041,80,33,male,True
249,108.0,25,F,up,0.6002966999076307,0.5865499332609786,,experiment,emotion,0.0,,,,897.8274668999948,80,33,male,True
250,111.0,25,M,up,0.5551247000694275,1.2664417234424836,,experiment,emotion,0.0,,,,899.9776250000577,80,33,male,True
251,108.0,25,F,up,0.4901988999918103,0.9923093405715476,,experiment,emotion,0.0,,,,901.7775943999876,80,33,male,True
252,104.0,25,M,up,0.4429093999788165,1.2689142340484365,,experiment,emotion,0.0,,,,903.8108251000522,80,33,male,True
253,111.0,25,F,up,0.45491289999336,0.3997853676351399,,experiment,emotion,0.0,,,,904.91080469999,80,33,male,True
254,108.0,25,F,up,0.4709851000225171,1.013529479803155,,experiment,emotion,0.0,,,,906.6607769000112,80,33,male,True
255,111.0,25,F,up,0.5427392999408767,1.4859639247292775,,experiment,emotion,0.0,,,,908.8939878999954,80,33,male,True
256,104.0,25,F,up,0.4508073999313637,0.7056981173182221,,experiment,emotion,0.0,,,,910.3939124000026,80,33,male,True
257,114.0,25,F,up,0.42024569993373,1.0421250595657103,,experiment,emotion,0.0,,,,912.1605428000912,80,33,male,True
258,111.0,25,M,up,0.5932908999966457,1.7560501469851777,,experiment,emotion,0.0,,,,914.6104185000296,80,33,male,True
259,114.0,25,M,up,0.8610159999225289,1.3747882546761383,,experiment,emotion,0.0,,,,916.8437347,80,33,male,True
260,104.0,25,M,up,1.0524233999894932,1.2804871558373565,,experiment,emotion,0.0,,,,919.260291500017,80,33,male,True
261,108.0,25,M,up,0.4965371999423951,0.7290218101315892,,experiment,emotion,0.0,,,,921.3102021000814,80,33,male,True
262,0.1799857856291465,25,up,up,0.6775571999605745,1.980133105493008,,experiment,cRDM,0.0,,,,949.5592072000728,80,33,male,True
263,0.1799857856291465,25,up,up,0.576353200012818,1.0876702547941972,,experiment,cRDM,0.0,,,,951.5923626000294,80,33,male,True
264,0.1799857856291465,25,down,down,0.6717564999125898,1.668963210745324,,experiment,cRDM,0.0,,,,954.1089904000984,80,33,male,True
265,0.1799857856291465,25,down,down,0.6421389000024647,0.6831060006229088,,experiment,cRDM,0.0,,,,955.725597199984,80,33,male,True
266,0.1799857856291465,25,up,up,0.6614842999260873,1.3185532833477394,,experiment,cRDM,0.0,,,,957.9422357000876,80,33,male,True
267,0.1799857856291465,25,down,down,0.8549904999090359,0.9852895526457754,,experiment,cRDM,0.0,,,,959.8587783999974,80,33,male,True
268,0.1799857856291465,25,up,up,0.9369902999605983,0.4880462168335043,,experiment,cRDM,0.0,,,,961.4587355999976,80,33,male,True
269,0.1799857856291465,25,up,up,0.717092200065963,0.9481215405709128,,experiment,cRDM,0.0,,,,963.608627700014,80,33,male,True
270,0.1799857856291465,25,down,down,0.8154694000259042,0.7747634072530832,,experiment,cRDM,0.0,,,,965.3752545000752,80,33,male,True
271,0.1799857856291465,25,down,down,0.8241881000576541,0.3504589569677884,,experiment,cRDM,0.0,,,,966.8085159000476,80,33,male,True
272,0.1799857856291465,25,down,down,0.5746246000053361,1.8672480904909816,,experiment,cRDM,0.0,,,,969.7750830000732,80,33,male,True
273,0.1799857856291465,25,down,down,0.8060471001081169,0.3842550173614915,,experiment,cRDM,0.0,,,,970.9917003000156,80,33,male,True
274,0.1799857856291465,25,down,down,0.6908400999382138,1.1667274630208992,,experiment,cRDM,0.0,,,,973.2248478000984,80,33,male,True
275,0.1799857856291465,25,down,down,0.8705174999777228,0.9872088499878108,,experiment,cRDM,0.0,,,,975.1582140000536,80,33,male,True
276,0.1799857856291465,25,up,down,0.994599899975583,1.1735244232393496,,experiment,cRDM,0.0,,,,977.4581236999948,80,33,male,True
277,0.1799857856291465,25,up,up,0.5856471000006422,0.3418859216172751,,experiment,cRDM,0.0,,,,979.0580795999848,80,33,male,True
278,0.1799857856291465,25,up,up,0.4893769000191241,0.6404412244140592,,experiment,cRDM,0.0,,,,980.5413693999872,80,33,male,True
279,0.1799857856291465,25,up,up,1.1373288000468165,0.7248900145853262,,experiment,cRDM,0.0,,,,982.0243964000838,80,33,male,True
280,0.1799857856291465,25,down,down,0.638497699983418,1.9110836854691036,,experiment,cRDM,0.0,,,,985.341210899991,80,33,male,True
281,0.1799857856291465,25,up,up,0.8176253000274301,1.4435504590643111,,experiment,cRDM,0.0,,,,987.6911108000204,80,33,male,True
282,0.1799857856291465,25,up,up,0.4730425000889227,0.7438198383746989,,experiment,cRDM,0.0,,,,989.5076776000204,80,33,male,True
283,0.1799857856291465,25,down,down,0.5437198999570683,0.9774360897485384,,experiment,cRDM,0.0,,,,991.2240189000732,80,33,male,True
284,0.1799857856291465,25,up,up,0.855901199975051,1.4658636868009427,,experiment,cRDM,0.0,,,,993.4908709999872,80,33,male,True
285,0.1799857856291465,25,down,down,0.5352102000033483,0.6038010992962448,,experiment,cRDM,0.0,,,,995.2074826000024,80,33,male,True
286,0.1799857856291465,25,down,down,0.7580163000384346,1.886477341510061,,experiment,cRDM,0.0,,,,997.890707500046,80,33,male,True
287,0.1799857856291465,25,up,up,0.5999346999451518,0.5087328340606564,,experiment,cRDM,0.0,,,,999.4237837000984,80,33,male,True
288,0.1799857856291465,25,up,up,0.7555283999536186,1.825572663449734,,experiment,cRDM,0.0,,,,1002.1072118000592,80,33,male,True
289,0.1799857856291465,25,down,down,0.5845350000308827,0.3297049141132386,,experiment,cRDM,0.0,,,,1003.4571842000588,80,33,male,True
290,0.1799857856291465,25,up,up,0.546629499993287,0.888947318052588,,experiment,cRDM,0.0,,,,1005.2070910000476,80,33,male,True
291,0.1799857856291465,25,down,down,0.5376452999189496,0.7980250422519926,,experiment,cRDM,0.0,,,,1006.8070545000955,80,33,male,True
292,0.1799857856291465,25,down,up,0.841733800014481,0.5470281989819156,,experiment,cRDM,0.0,,,,1008.1570242000744,80,33,male,True
293,0.1799857856291465,25,down,up,1.1008003000169992,0.645478961526348,,experiment,cRDM,0.0,,,,1009.9069365999894,80,33,male,True
294,0.1799857856291465,25,up,up,0.8595997000811622,1.0368971204767632,,experiment,cRDM,0.0,,,,1012.290185400052,80,33,male,True
295,0.1799857856291465,25,up,up,0.6309493000153452,0.9372810377278094,,experiment,cRDM,0.0,,,,1014.356792400009,80,33,male,True
296,0.1799857856291465,25,up,up,0.5846902999328449,0.7283487079642842,,experiment,cRDM,0.0,,,,1015.9900610999904,80,33,male,True
297,0.1799857856291465,25,down,down,0.6178321000188589,1.953670853340432,,experiment,cRDM,0.0,,,,1018.7899418000598,80,33,male,True
298,0.1799857856291465,25,down,down,0.4003183000022545,1.817073050451951,,experiment,cRDM,0.0,,,,1021.4731770000652,80,33,male,True
299,0.1799857856291465,25,up,up,0.6395953000755981,0.420086980232949,,experiment,cRDM,0.0,,,,1022.5731442000252,80,33,male,True
300,0.1799857856291465,25,down,up,1.6043616000097245,1.830666472093907,,experiment,cRDM,0.0,,,,1025.306355000008,80,33,male,True
301,0.1799857856291465,25,up,up,0.6477946999948472,0.449156847650727,,experiment,cRDM,0.0,,,,1027.62292600004,80,33,male,True
302,0.1799857856291465,25,up,up,0.5241563000017777,1.2607636939970892,,experiment,cRDM,0.0,,,,1029.789549499983,80,33,male,True
303,0.1799857856291465,25,up,up,0.4002707999898121,1.0315426956674183,,experiment,cRDM,0.0,,,,1031.6061326999916,80,33,male,True
304,0.1799857856291465,25,down,up,0.5370136999990791,1.9437449863467675,,experiment,cRDM,0.0,,,,1034.2226907000877,80,33,male,True
305,0.1799857856291465,25,down,up,0.9947216999717056,1.3480826014196303,,experiment,cRDM,0.0,,,,1036.3559889000608,80,33,male,True
306,0.1799857856291465,25,up,up,0.6377369998954237,0.7475061431227459,,experiment,cRDM,0.0,,,,1038.3559215000132,80,33,male,True
307,0.1799857856291465,25,down,down,0.5562779000028968,1.923344544948153,,experiment,cRDM,0.0,,,,1041.172451700084,80,33,male,True
308,0.1799857856291465,25,down,up,1.050609999918379,0.4374489758054539,,experiment,cRDM,0.0,,,,1042.4391066000098,80,33,male,True
309,0.1799857856291465,25,up,up,0.6276942999102175,0.3426430220868035,,experiment,cRDM,0.0,,,,1044.0890251999954,80,33,male,True
310,0.1799857856291465,25,up,up,0.553759100032039,0.912065536901101,,experiment,cRDM,0.0,,,,1045.8889367000666,80,33,male,True
311,0.1799857856291465,25,down,down,0.6867401999188587,1.718712475646062,,experiment,cRDM,0.0,,,,1048.4219809999922,80,33,male,True
312,0.1799857856291465,25,up,up,0.5535995999816805,0.5990887563038381,,experiment,cRDM,0.0,,,,1049.9721361000556,80,33,male,True
313,0.1799857856291465,25,down,down,0.6896320999367163,0.5744254889333226,,experiment,cRDM,0.0,,,,1051.3720769000938,80,33,male,True
314,0.1799857856291465,25,down,down,0.541368699981831,0.788177125309869,,experiment,cRDM,0.0,,,,1053.1053398000076,80,33,male,True
315,0.1799857856291465,25,down,down,0.5781023000599816,0.9335133571394982,,experiment,cRDM,0.0,,,,1054.8386484000366,80,33,male,True
316,0.1799857856291465,25,up,up,0.504164099926129,0.7953717195937794,,experiment,cRDM,0.0,,,,1056.488544800086,80,33,male,True
317,0.1799857856291465,25,up,up,0.3670849999180063,1.891853571217336,,experiment,cRDM,0.0,,,,1059.1385126000969,80,33,male,True
318,0.1799857856291465,25,down,up,0.469961000024341,0.4638197327956617,,experiment,cRDM,0.0,,,,1060.271750700078,80,33,male,True
319,0.1799857856291465,25,down,down,0.6476677999598905,0.8413729240410026,,experiment,cRDM,0.0,,,,1061.8550408000592,80,33,male,True
320,0.1799857856291465,25,up,up,0.7512073999969289,0.8429669433878244,,experiment,cRDM,0.0,,,,1063.6214979999932,80,33,male,True
321,0.1799857856291465,25,up,up,0.7361593999667093,1.6343216715923854,,experiment,cRDM,0.0,,,,1066.2715521000791,80,33,male,True
322,0.1799857856291465,25,up,up,0.8999484999803826,1.1961773208618436,,experiment,cRDM,0.0,,,,1068.4547810000367,80,33,male,True
323,0.1799857856291465,25,up,up,0.5364031000062823,1.9611598105990435,,experiment,cRDM,0.0,,,,1071.5713354999898,80,33,male,True
324,0.1799857856291465,25,up,up,0.5141800999408588,1.6257336139145055,,experiment,cRDM,0.0,,,,1074.004569199984,80,33,male,True
325,0.1799857856291465,25,down,down,0.807187500060536,0.9280878373851924,,experiment,cRDM,0.0,,,,1075.704520600033,80,33,male,True
326,0.1799857856291465,25,down,down,0.868298799963668,1.3743261044836752,,experiment,cRDM,0.0,,,,1078.1544318000088,80,33,male,True
327,0.1799857856291465,25,up,up,0.5313589000143111,0.3803380288427263,,experiment,cRDM,0.0,,,,1079.6543801000807,80,33,male,True
328,0.1799857856291465,25,down,down,0.4807835000101477,0.5166139209020261,,experiment,cRDM,0.0,,,,1080.9709513999987,80,33,male,True
329,0.1799857856291465,25,down,up,0.7084596999920905,0.687624488300116,,experiment,cRDM,0.0,,,,1082.4042547000572,80,33,male,True
330,0.1799857856291465,25,down,down,0.3338138000108301,1.5785110696853697,,experiment,cRDM,0.0,,,,1084.9541770000942,80,33,male,True
331,0.1799857856291465,25,up,up,0.6319259000010788,1.649737104078011,,experiment,cRDM,0.0,,,,1087.2707889000883,80,33,male,True
332,0.1799857856291465,25,down,down,0.8203160999109969,0.7724302438904478,,experiment,cRDM,0.0,,,,1088.9373780000024,80,33,male,True
333,0.1799857856291465,25,down,up,0.9622892000479624,1.384321131446024,,experiment,cRDM,0.0,,,,1091.4203968000363,80,33,male,True
334,0.1799857856291465,25,down,down,0.5444275999907404,1.1540962150324394,,experiment,cRDM,0.0,,,,1093.7871927000815,80,33,male,True
335,0.1799857856291465,25,up,up,0.730927599943243,1.9647131462520415,,experiment,cRDM,0.0,,,,1096.5537375999847,80,33,male,True
336,0.1799857856291465,25,up,up,0.6327259999234229,1.7264992436713882,,experiment,cRDM,0.0,,,,1099.2869811999844,80,33,male,True
337,0.1799857856291465,25,down,down,0.7891398000065237,1.8320568727527624,,experiment,cRDM,0.0,,,,1102.0035665000323,80,33,male,True
338,0.1799857856291465,25,up,up,0.6528860999969766,1.5832405175571795,,experiment,cRDM,0.0,,,,1104.6368149000918,80,33,male,True
339,0.1799857856291465,25,down,up,0.8952645000535995,1.004405146872084,,experiment,cRDM,0.0,,,,1106.5534100000514,80,33,male,True
340,0.1799857856291465,25,up,up,0.6256795999361202,0.3646920525927862,,experiment,cRDM,0.0,,,,1108.0700036000926,80,33,male,True
341,0.1799857856291465,25,up,up,0.4002842999761924,0.6797818416997592,,experiment,cRDM,0.0,,,,1109.6364316000836,80,33,male,True
342,114.0,25,M,down,1.0143122000154108,1.5143338880028685,,experiment,emotion,1.0,,,,1133.502380900085,80,33,male,True
343,104.0,25,M,up,1.295439700013958,0.9139543085097734,,experiment,emotion,1.0,,,,1135.7022904000478,80,33,male,True
344,111.0,25,F,up,0.7344987000105903,0.7224604892313917,,experiment,emotion,1.0,,,,1138.0021967000794,80,33,male,True
345,114.0,25,F,up,0.867900799959898,1.26753916151528,,experiment,emotion,1.0,,,,1140.2688200999985,80,33,male,True
346,111.0,25,M,up,0.6032912000082433,0.419283681964398,,experiment,emotion,1.0,,,,1141.8354223000351,80,33,male,True
347,108.0,25,F,down,0.5852866000495851,1.506888130849633,,experiment,emotion,1.0,,,,1144.2183908000588,80,33,male,True
348,104.0,25,M,down,1.2547905999235809,1.1934153112772634,,experiment,emotion,1.0,,,,1146.2519127000123,80,33,male,True
349,108.0,25,M,down,1.3299265999812633,1.4751567211930765,,experiment,emotion,1.0,,,,1149.251828800072,80,33,male,True
350,114.0,25,F,up,1.119625800056383,0.7177725899781024,,experiment,emotion,1.0,,,,1151.5850566000445,80,33,male,True
351,108.0,25,F,down,0.9361061999807134,1.4292004977434294,,experiment,emotion,1.0,,,,1154.4016032000072,80,33,male,True
352,111.0,25,F,down,0.6531948000192642,1.3735452855758818,,experiment,emotion,1.0,,,,1157.001502100029,80,33,male,True
353,114.0,25,F,down,0.5302897000219673,0.9684676919371544,,experiment,emotion,1.0,,,,1158.9014292000793,80,33,male,True
354,111.0,25,F,down,0.5093454999150708,1.9552799594537076,,experiment,emotion,1.0,,,,1161.651341799996,80,33,male,True
355,104.0,25,F,down,0.7139544999226928,1.9574741464384304,,experiment,emotion,1.0,,,,1164.417748500011,80,33,male,True
356,108.0,25,M,down,0.585526300012134,1.028096731838506,,experiment,emotion,1.0,,,,1166.4511900000507,80,33,male,True
357,104.0,25,M,down,0.4809440999524668,0.6625558177971193,,experiment,emotion,1.0,,,,1167.9677949000616,80,33,male,True
358,114.0,25,M,down,0.416618000017479,0.6024363237693279,,experiment,emotion,1.0,,,,1169.3010387000395,80,33,male,True
359,104.0,25,M,down,0.6970496000722051,1.8751937531988416,,experiment,emotion,1.0,,,,1171.8676513000391,80,33,male,True
360,111.0,25,F,down,0.9674608000786976,1.156002228855889,,experiment,emotion,1.0,,,,1173.984228400048,80,33,male,True
361,111.0,25,M,down,0.929898799979128,1.5149578334288474,,experiment,emotion,1.0,,,,1176.7508005000418,80,33,male,True
362,108.0,25,M,down,0.6416554000461474,1.0366304474766754,,experiment,emotion,1.0,,,,1178.9840450000484,80,33,male,True
363,108.0,25,F,down,0.99674309999682,1.397945549013596,,experiment,emotion,1.0,,,,1181.2839682000922,80,33,male,True
364,104.0,25,M,down,0.727656599949114,1.6785721368439896,,experiment,emotion,1.0,,,,1184.217038200004,80,33,male,True
365,114.0,25,F,up,1.1652020000619814,0.6190181134145548,,experiment,emotion,1.0,,,,1185.8504695000593,80,33,male,True
366,111.0,25,F,down,0.7349645999493077,1.0774717915920924,,experiment,emotion,1.0,,,,1188.3836816000985,80,33,male,True
367,104.0,25,M,down,0.7611119999783114,1.5444031938226406,,experiment,emotion,1.0,,,,1190.933600999997,80,33,male,True
368,114.0,25,M,up,1.0174982000607995,0.4879642508567459,,experiment,emotion,1.0,,,,1192.4502101000398,80,33,male,True
369,114.0,25,F,up,0.9255897999973968,1.6089859232974142,,experiment,emotion,1.0,,,,1195.3501167000504,80,33,male,True
370,108.0,25,M,up,1.014771500020288,1.8906567465787345,,experiment,emotion,1.0,,,,1198.4499745999929,80,33,male,True
371,104.0,25,F,down,1.5787958999862894,1.5155129459647023,,experiment,emotion,1.0,,,,1201.249891799991,80,33,male,True
372,108.0,25,F,up,1.074571399949491,0.7883623144080119,,experiment,emotion,1.0,,,,1203.8831006000985,80,33,male,True
373,111.0,25,F,down,1.1166514999931678,1.2383845976908665,,experiment,emotion,1.0,,,,1206.4830373000586,80,33,male,True
374,104.0,25,M,up,1.153129499987699,0.5367632440095381,,experiment,emotion,1.0,,,,1208.399598999997,80,33,male,True
375,114.0,25,M,up,1.0295090000145135,1.937569961793524,,experiment,emotion,1.0,,,,1211.766180400038,80,33,male,True
376,111.0,25,M,up,0.9719638999085872,1.0637725679561092,,experiment,emotion,1.0,,,,1214.132751600002,80,33,male,True
377,114.0,25,F,up,0.7744058999232948,1.8201885200029848,,experiment,emotion,1.0,,,,1217.1993033000035,80,33,male,True
378,104.0,25,F,up,0.9095457999501376,1.84825589897102,,experiment,emotion,1.0,,,,1220.0992027000757,80,33,male,True
379,111.0,25,M,up,0.9335837999824436,1.5283253374359806,,experiment,emotion,1.0,,,,1222.799096300034,80,33,male,True
380,108.0,25,F,up,0.7436702999984846,0.3907468872901952,,experiment,emotion,1.0,,,,1224.3990201000124,80,33,male,True
381,108.0,25,M,up,0.7416157000698149,1.7241485091718187,,experiment,emotion,1.0,,,,1227.1320691000435,80,33,male,True
382,111.0,25,M,up,0.8528882999671623,1.353972548542269,,experiment,emotion,1.0,,,,1229.498836399987,80,33,male,True
383,114.0,25,M,up,0.7479470999678597,1.6114386984040827,,experiment,emotion,1.0,,,,1232.2487618000014,80,33,male,True
384,108.0,25,F,down,1.410699400003068,1.9014273047329011,,experiment,emotion,1.0,,,,1235.1819670000114,80,33,male,True
385,104.0,25,F,down,1.4967326999176294,1.270124624423763,,experiment,emotion,1.0,,,,1238.131877799984,80,33,male,True
386,104.0,25,M,up,0.7982938999775797,1.001174132393177,,experiment,emotion,1.0,,,,1240.898419400095,80,33,male,True
387,108.0,25,F,up,0.7236803999403492,1.7038843032614568,,experiment,emotion,1.0,,,,1243.6650062000845,80,33,male,True
388,114.0,25,F,down,1.63611880003009,1.2640236612194329,,experiment,emotion,1.0,,,,1245.931578900083,80,33,male,True
389,111.0,25,M,up,1.2124379000160843,0.984646925025272,,experiment,emotion,1.0,,,,1248.831249400042,80,33,male,True
390,104.0,25,M,down,1.130006399936974,1.7395513010186867,,experiment,emotion,1.0,,,,1252.064673100016,80,33,male,True
391,114.0,25,F,up,0.6660760999657214,0.8412872501029716,,experiment,emotion,1.0,,,,1254.314606800093,80,33,male,True
392,111.0,25,M,down,0.9212149999802932,0.657302925779286,,experiment,emotion,1.0,,,,1255.9145147000672,80,33,male,True
393,111.0,25,F,up,0.7659217000473291,1.5075895560312065,,experiment,emotion,1.0,,,,1258.5977774000494,80,33,male,True
394,104.0,25,F,up,0.9438755000010132,0.9086319434997364,,experiment,emotion,1.0,,,,1260.5308105000297,80,33,male,True
395,108.0,25,F,up,0.918694299994968,1.0142740848502068,,experiment,emotion,1.0,,,,1262.780966600054,80,33,male,True
396,114.0,25,M,up,0.785819899989292,1.5582573572637817,,experiment,emotion,1.0,,,,1265.5308573000366,80,33,male,True
397,108.0,25,M,up,0.9330673000076786,1.3946802679107977,,experiment,emotion,1.0,,,,1267.9807738000527,80,33,male,True
398,108.0,25,F,up,0.8837211000500247,1.9308648427115955,,experiment,emotion,1.0,,,,1271.1139557000715,80,33,male,True
399,108.0,25,F,up,0.7618236999260262,1.063710179776487,,experiment,emotion,1.0,,,,1273.3138902999926,80,33,male,True
400,114.0,25,M,up,0.7708450000500306,1.1223410558515998,,experiment,emotion,1.0,,,,1275.4638342000544,80,33,male,True
401,111.0,25,M,up,0.5644504999509081,0.4259299134572953,,experiment,emotion,1.0,,,,1276.93022390001,80,33,male,True
402,104.0,25,M,up,1.4134073000168428,1.5620207030462638,,experiment,emotion,1.0,,,,1279.3302266000535,80,33,male,True
403,104.0,25,M,down,1.6794189000502229,0.7676472090306061,,experiment,emotion,1.0,,,,1281.7802622000454,80,33,male,True
404,111.0,25,M,up,0.690555699984543,1.156294215879256,,experiment,emotion,1.0,,,,1284.8801262000345,80,33,male,True
405,114.0,25,F,up,0.6185870000626892,0.9341482394722742,,experiment,emotion,1.0,,,,1286.7800931000384,80,33,male,True
406,114.0,25,F,up,0.5530278000514954,1.042877755241047,,experiment,emotion,1.0,,,,1288.696649700054,80,33,male,True
407,104.0,25,M,down,1.375095700030215,1.232125561176207,,experiment,emotion,1.0,,,,1290.7465936000226,80,33,male,True
408,114.0,25,F,up,0.6744927000254393,0.5708657783206943,,experiment,emotion,1.0,,,,1292.9631761000492,80,33,male,True
409,108.0,25,F,down,1.3072296000318602,0.4802967655089488,,experiment,emotion,1.0,,,,1294.396454300033,80,33,male,True
410,111.0,25,F,up,1.044858800014481,1.7477094820067045,,experiment,emotion,1.0,,,,1297.7128202000167,80,33,male,True
411,108.0,25,M,up,0.7961434000171721,1.5963524617298488,,experiment,emotion,1.0,,,,1300.6295686000958,80,33,male,True
412,104.0,25,F,up,0.716880900086835,0.9599155505323872,,experiment,emotion,1.0,,,,1302.6628119000234,80,33,male,True
413,111.0,25,F,up,0.6772445000242442,0.825552804510272,,experiment,emotion,1.0,,,,1304.47943330009,80,33,male,True
414,108.0,25,F,up,0.502658799989149,0.8099862148832937,,experiment,emotion,1.0,,,,1306.2460177000612,80,33,male,True
415,111.0,25,M,up,0.8777654999867082,1.8832627797132369,,experiment,emotion,1.0,,,,1308.8959049000405,80,33,male,True
416,104.0,25,M,up,0.8613113999599591,0.3796874373985414,,experiment,emotion,1.0,,,,1310.412364399992,80,33,male,True
417,114.0,25,F,up,0.6849042000249028,1.6545964900637151,,experiment,emotion,1.0,,,,1313.1957689999836,80,33,male,True
418,111.0,25,M,up,1.0594951000530273,1.4661114989272506,,experiment,emotion,1.0,,,,1315.6121801000554,80,33,male,True
419,114.0,25,F,up,0.7451389000052586,1.5218062021010392,,experiment,emotion,1.0,,,,1318.445577800041,80,33,male,True
420,104.0,25,M,up,0.7276802000124007,0.9586154657831908,,experiment,emotion,1.0,,,,1320.411992300069,80,33,male,True
421,108.0,25,M,up,0.7438898000400513,1.0770497602324969,,experiment,emotion,1.0,,,,1322.511845100089,80,33,male,True
422,0.1799857856291465,25,up,up,0.8112739000935107,1.0523876616766952,,experiment,cRDM,1.0,,,,1349.0444455000106,80,33,male,True
423,0.1799857856291465,25,up,up,1.0176589998882264,1.3440773116235931,,experiment,cRDM,1.0,,,,1351.4610306000104,80,33,male,True
424,0.1799857856291465,25,down,down,1.0284307000692934,1.0111848905552274,,experiment,cRDM,1.0,,,,1353.7442722000417,80,33,male,True
425,0.1799857856291465,25,down,down,1.9640708999941128,1.9668153696600972,,experiment,cRDM,1.0,,,,1357.0105933999876,80,33,male,True
426,0.1799857856291465,25,up,up,0.8493464000057429,1.7003170699832355,,experiment,cRDM,1.0,,,,1360.9273611000972,80,33,male,True
427,0.1799857856291465,25,down,down,0.7694103999529034,1.241174683232846,,experiment,cRDM,1.0,,,,1363.2772523000604,80,33,male,True
428,0.1799857856291465,25,up,up,0.6418736999621615,1.7915571556924486,,experiment,cRDM,1.0,,,,1366.0937939999858,80,33,male,True
429,0.1799857856291465,25,up,up,0.6664983000373468,0.5042201311642759,,experiment,cRDM,1.0,,,,1367.5101612000726,80,33,male,True
430,0.1799857856291465,25,down,down,0.5136239000130445,0.3321180845036297,,experiment,cRDM,1.0,,,,1368.7770445999922,80,33,male,True
431,0.1799857856291465,25,down,up,1.3241027999902144,1.88735789687156,,experiment,cRDM,1.0,,,,1371.4436185000231,80,33,male,True
432,0.1799857856291465,25,down,down,0.797167900018394,1.6160308071813083,,experiment,cRDM,1.0,,,,1374.6434971999845,80,33,male,True
433,0.1799857856291465,25,down,down,0.8245315999956802,0.3538192917441412,,experiment,cRDM,1.0,,,,1376.0601322000148,80,33,male,True
434,0.1799857856291465,25,down,up,0.7473136000335217,1.1568894610861369,,experiment,cRDM,1.0,,,,1378.2933481000364,80,33,male,True
435,0.1799857856291465,25,down,down,0.4646882000379264,1.5698530101182158,,experiment,cRDM,1.0,,,,1380.8599319000496,80,33,male,True
436,0.1799857856291465,25,up,up,0.5547685999190435,0.4752030364943769,,experiment,cRDM,1.0,,,,1382.0599001999944,80,33,male,True
437,0.1799857856291465,25,up,up,0.7600356000475585,0.3253941559411243,,experiment,cRDM,1.0,,,,1383.20962660003,80,33,male,True
438,0.1799857856291465,25,up,up,0.9531778000527992,0.8252376348108379,,experiment,cRDM,1.0,,,,1385.076447700034,80,33,male,True
439,0.1799857856291465,25,up,up,1.5289798999438062,1.9746323562539991,,experiment,cRDM,1.0,,,,1388.2596586000873,80,33,male,True
440,0.1799857856291465,25,down,down,1.0554145000642166,1.5731978906687525,,experiment,cRDM,1.0,,,,1391.6262417000253,80,33,male,True
441,0.1799857856291465,25,up,up,0.8692008999641985,0.9051876526712404,,experiment,cRDM,1.0,,,,1393.8594591000583,80,33,male,True
442,0.1799857856291465,25,up,,,0.7149165288396615,,experiment,cRDM,1.0,,,,1395.692715000012,80,33,male,True
443,0.1799857856291465,25,down,down,1.9413763999473304,0.5836905461126036,,experiment,cRDM,1.0,,,,1398.9592796000652,80,33,male,True
444,0.1799857856291465,25,up,up,0.8842255000490695,1.8727639243405645,,experiment,cRDM,1.0,,,,1403.0424509000732,80,33,male,True
445,0.1799857856291465,25,down,down,1.841350800008513,1.7044695786375,,experiment,cRDM,1.0,,,,1405.89234390005,80,33,male,True
446,0.1799857856291465,25,down,up,1.7637807000428438,0.9118791955578548,,experiment,cRDM,1.0,,,,1408.9088894000745,80,33,male,True
447,0.1799857856291465,25,up,up,0.7187345999991521,1.257714199850714,,experiment,cRDM,1.0,,,,1412.191969800042,80,33,male,True
448,0.1799857856291465,25,up,up,0.5433015000307932,0.6873741062153776,,experiment,cRDM,1.0,,,,1413.8753716000356,80,33,male,True
449,0.1799857856291465,25,down,up,0.6759733000071719,1.084547971908952,,experiment,cRDM,1.0,,,,1415.758686300018,80,33,male,True
450,0.1799857856291465,25,up,up,0.6277847000164911,1.498079738798415,,experiment,cRDM,1.0,,,,1418.1918846000915,80,33,male,True
451,0.1799857856291465,25,down,up,0.9983740999596192,1.7168651815511762,,experiment,cRDM,1.0,,,,1420.8082585000666,80,33,male,True
452,0.1799857856291465,25,down,up,0.4309310999233275,0.9223235996329252,,experiment,cRDM,1.0,,,,1422.9917253000897,80,33,male,True
453,0.1799857856291465,25,down,up,0.4668841999955475,1.0208370966458116,,experiment,cRDM,1.0,,,,1424.7247978000669,80,33,male,True
454,0.1799857856291465,25,up,up,0.7307593000587076,1.5949583950202215,,experiment,cRDM,1.0,,,,1427.05822180002,80,33,male,True
455,0.1799857856291465,25,up,up,0.5305336000164971,1.199376786311309,,experiment,cRDM,1.0,,,,1429.258145500091,80,33,male,True
456,0.1799857856291465,25,up,up,0.6075340999523178,1.319576569428334,,experiment,cRDM,1.0,,,,1431.3580996000674,80,33,male,True
457,0.1799857856291465,25,down,up,2.2248968000058085,0.4005433253892556,,experiment,cRDM,1.0,,,,1432.624753100099,80,33,male,True
458,0.1799857856291465,25,down,up,0.7750804000534117,1.6039917618444652,,experiment,cRDM,1.0,,,,1436.7245766000124,80,33,male,True
459,0.1799857856291465,25,up,up,0.9435294000431896,1.0771741602308396,,experiment,cRDM,1.0,,,,1438.841128500062,80,33,male,True
460,0.1799857856291465,25,down,up,0.923641600064002,1.8326040980326184,,experiment,cRDM,1.0,,,,1441.8909946000203,80,33,male,True
461,0.1799857856291465,25,up,up,0.8327887000050396,1.6077389843601395,,experiment,cRDM,1.0,,,,1444.6909201000817,80,33,male,True
462,0.1799857856291465,25,up,up,0.5074248999590054,0.8377232804720076,,experiment,cRDM,1.0,,,,1446.6242278000573,80,33,male,True
463,0.1799857856291465,25,up,up,1.0460977999027818,0.3891461347476249,,experiment,cRDM,1.0,,,,1447.7905761000002,80,33,male,True
464,0.1799857856291465,25,down,up,1.3183340999530628,1.9111809775848445,,experiment,cRDM,1.0,,,,1451.0073821000988,80,33,male,True
465,0.1799857856291465,25,down,up,1.3757001999765637,0.4956259146864963,,experiment,cRDM,1.0,,,,1453.073970700032,80,33,male,True
466,0.1799857856291465,25,up,up,0.9784872999880464,1.5428571965844629,,experiment,cRDM,1.0,,,,1456.2571629000597,80,33,male,True
467,0.1799857856291465,25,down,down,1.0449076000368225,0.5171404054460578,,experiment,cRDM,1.0,,,,1458.0237916000187,80,33,male,True
468,0.1799857856291465,25,down,up,0.9467072000261396,1.3095209260904854,,experiment,cRDM,1.0,,,,1460.6569507000968,80,33,male,True
469,0.1799857856291465,25,up,up,0.8554145999951288,1.31627900831205,,experiment,cRDM,1.0,,,,1463.190237600007,80,33,male,True
470,0.1799857856291465,25,up,up,0.5428375999908894,0.944153529748625,,experiment,cRDM,1.0,,,,1465.256813300075,80,33,male,True
471,0.1799857856291465,25,down,up,0.7025496000424027,0.6327032488086548,,experiment,cRDM,1.0,,,,1466.6901041000383,80,33,male,True
472,0.1799857856291465,25,up,up,0.6792457000119612,1.0709172975534231,,experiment,cRDM,1.0,,,,1468.7234015000286,80,33,male,True
473,0.1799857856291465,25,down,up,0.6553097000578418,0.3226233211481774,,experiment,cRDM,1.0,,,,1469.9733249000274,80,33,male,True
474,0.1799857856291465,25,down,up,0.6390944999875501,1.6485057887542744,,experiment,cRDM,1.0,,,,1472.5565625000745,80,33,male,True
475,0.1799857856291465,25,down,up,1.3208629000000656,1.8813202146374608,,experiment,cRDM,1.0,,,,1475.3398056000003,80,33,male,True
476,0.1799857856291465,25,up,up,0.7532561999978498,0.9284422620399112,,experiment,cRDM,1.0,,,,1477.856393800001,80,33,male,True
477,0.1799857856291465,25,up,up,1.857039999915287,1.2773184837204337,,experiment,cRDM,1.0,,,,1480.139613400097,80,33,male,True
478,0.1799857856291465,25,down,up,0.7416467999573797,0.3528534801361019,,experiment,cRDM,1.0,,,,1482.605977700092,80,33,male,True
479,0.1799857856291465,25,down,up,0.8515593999763951,1.5542437272451384,,experiment,cRDM,1.0,,,,1485.1561047000578,80,33,male,True
480,0.1799857856291465,25,up,up,0.8269552000565454,1.6473604842581633,,experiment,cRDM,1.0,,,,1487.9226928000571,80,33,male,True
481,0.1799857856291465,25,up,up,1.964990700013004,1.6973968264558812,,experiment,cRDM,1.0,,,,1490.705641800072,80,33,male,True
482,0.1799857856291465,25,up,down,1.520003999932669,1.1733647613507523,,experiment,cRDM,1.0,,,,1494.105641900096,80,33,male,True
483,0.1799857856291465,25,up,up,0.8886505999835208,0.8966378173971348,,experiment,cRDM,1.0,,,,1496.7889794000655,80,33,male,True
484,0.1799857856291465,25,up,up,0.7974162999307737,0.943111733347457,,experiment,cRDM,1.0,,,,1498.8722620999906,80,33,male,True
485,0.1799857856291465,25,down,up,0.7598569000838324,1.8143245553830196,,experiment,cRDM,1.0,,,,1501.7388276000274,80,33,male,True
486,0.1799857856291465,25,down,up,0.6822311000432819,0.9979411494716056,,experiment,cRDM,1.0,,,,1503.755413900013,80,33,male,True
487,0.1799857856291465,25,up,up,0.4949313000543043,0.4417588855130117,,experiment,cRDM,1.0,,,,1505.138690300053,80,33,male,True
488,0.1799857856291465,25,down,down,1.0455306000076234,0.3272053604109824,,experiment,cRDM,1.0,,,,1506.2221009000205,80,33,male,True
489,0.1799857856291465,25,down,up,0.8200701999012381,1.109338674857667,,experiment,cRDM,1.0,,,,1508.6385768000036,80,33,male,True
490,0.1799857856291465,25,down,up,0.8538075999822468,0.8425231066189665,,experiment,cRDM,1.0,,,,1510.571826600004,80,33,male,True
491,0.1799857856291465,25,up,up,0.7035307000624016,0.9625370420712798,,experiment,cRDM,1.0,,,,1512.6550942000467,80,33,male,True
492,0.1799857856291465,25,down,up,1.6057356999954209,0.4887400514853759,,experiment,cRDM,1.0,,,,1514.1049095999915,80,33,male,True
493,0.1799857856291465,25,down,down,2.147413400001824,1.5696518319308053,,experiment,cRDM,1.0,,,,1517.5382388000144,80,33,male,True
494,0.1799857856291465,25,down,down,1.4295281999511644,0.626353845129815,,experiment,cRDM,1.0,,,,1520.5881188000783,80,33,male,True
495,0.1799857856291465,25,up,up,1.0915530999191103,0.4525587954504495,,experiment,cRDM,1.0,,,,1522.7380939000286,80,33,male,True
496,0.1799857856291465,25,up,up,1.5073727999115365,0.8208438945067009,,experiment,cRDM,1.0,,,,1524.9213235999923,80,33,male,True
497,0.1799857856291465,25,down,down,1.0154332999372857,0.4833887198299296,,experiment,cRDM,1.0,,,,1527.1712331000017,80,33,male,True
498,0.1799857856291465,25,up,up,1.2681602999800816,0.619322430591295,,experiment,cRDM,1.0,,,,1529.0544822000666,80,33,male,True
499,0.1799857856291465,25,down,up,1.9459350999677556,1.344191603516701,,experiment,cRDM,1.0,,,,1531.937704400043,80,33,male,True
500,0.1799857856291465,25,up,up,1.1976215000031516,0.5779262606599915,,experiment,cRDM,1.0,,,,1534.720962600084,80,33,male,True
501,0.1799857856291465,25,up,up,0.833755400031805,0.6966604612873192,,experiment,cRDM,1.0,,,,1536.8708807000658,80,33,male,True
502,114.0,25,M,down,1.7802629000507295,0.4685299950361065,,experiment,emotion,2.0,,,,1558.653384800069,80,33,male,True
503,104.0,25,M,down,1.0622564000077546,0.7164878461334006,,experiment,emotion,2.0,,,,1561.4366269999882,80,33,male,True
504,111.0,25,F,up,1.019470200059004,0.9814934412994452,,experiment,emotion,2.0,,,,1563.7532136000227,80,33,male,True
505,114.0,25,F,up,0.809528800076805,1.7083426149584628,,experiment,emotion,2.0,,,,1566.7531102000503,80,33,male,True
506,111.0,25,M,up,0.9423152999952435,1.8611797243503376,,experiment,emotion,2.0,,,,1569.6862965000328,80,33,male,True
507,108.0,25,F,up,0.6184168999316171,1.875397807002314,,experiment,emotion,2.0,,,,1572.786204700009,80,33,male,True
508,104.0,25,M,up,0.5820033999625593,1.6282417393853734,,experiment,emotion,2.0,,,,1575.3026718000183,80,33,male,True
509,108.0,25,M,up,0.5342706999508664,1.866511615996566,,experiment,emotion,2.0,,,,1578.0193720000098,80,33,male,True
510,114.0,25,F,up,0.6463937000371516,1.92841958857942,,experiment,emotion,2.0,,,,1580.7692394000478,80,33,male,True
511,108.0,25,F,up,0.7065051000099629,1.2337539925565424,,experiment,emotion,2.0,,,,1582.9191472000675,80,33,male,True
512,111.0,25,F,up,1.6039004999911413,1.5767370226504271,,experiment,emotion,2.0,,,,1585.4857293000678,80,33,male,True
513,114.0,25,F,up,0.684321100008674,1.93098428573682,,experiment,emotion,2.0,,,,1589.3022615000373,80,33,male,True
514,111.0,25,F,up,0.7901295999763533,1.878108755816049,,experiment,emotion,2.0,,,,1592.135498000076,80,33,male,True
515,104.0,25,F,up,0.7238558999961242,0.4017993216180935,,experiment,emotion,2.0,,,,1593.6187793000136,80,33,male,True
516,108.0,25,M,up,0.5375703000463545,0.3054891258303659,,experiment,emotion,2.0,,,,1594.9020546000684,80,33,male,True
517,104.0,25,M,down,0.7416818999918178,0.6910268225236029,,experiment,emotion,2.0,,,,1596.4019954000833,80,33,male,True
518,114.0,25,M,up,0.885009599965997,0.6119396738861543,,experiment,emotion,2.0,,,,1598.0186184000922,80,33,male,True
519,104.0,25,M,up,0.7001247999724001,1.838839928908907,,experiment,emotion,2.0,,,,1601.0185091000749,80,33,male,True
520,111.0,25,F,up,0.5485704001039267,1.3017393384547942,,experiment,emotion,2.0,,,,1603.285060300026,80,33,male,True
521,111.0,25,M,up,0.680624199914746,1.036131056056445,,experiment,emotion,2.0,,,,1605.1350143000018,80,33,male,True
522,108.0,25,M,up,0.7437547000590712,0.9449629261312008,,experiment,emotion,2.0,,,,1607.034930700087,80,33,male,True
523,108.0,25,F,up,0.9517609000904486,1.0788240850823263,,experiment,emotion,2.0,,,,1609.1348660000367,80,33,male,True
524,104.0,25,M,up,0.695579000050202,1.6673834485072352,,experiment,emotion,2.0,,,,1612.0180749000283,80,33,male,True
525,114.0,25,F,up,0.6202153000049293,0.5025090874307766,,experiment,emotion,2.0,,,,1613.5014041000975,80,33,male,True
526,111.0,25,F,up,0.995378699968569,1.1471185002483562,,experiment,emotion,2.0,,,,1615.5512898000889,80,33,male,True
527,104.0,25,M,up,0.8861049000406638,1.0239238080616382,,experiment,emotion,2.0,,,,1617.8345367000438,80,33,male,True
528,114.0,25,M,up,0.5145429000258446,0.9563872605257502,,experiment,emotion,2.0,,,,1619.9511250000214,80,33,male,True
529,114.0,25,F,up,0.7472592000849545,1.7882502577253978,,experiment,emotion,2.0,,,,1622.534374000039,80,33,male,True
530,108.0,25,M,up,1.1339891999959946,1.3983547269063965,,experiment,emotion,2.0,,,,1624.9675915000262,80,33,male,True
531,104.0,25,F,up,0.6400582001078874,0.6995689337506958,,experiment,emotion,2.0,,,,1627.067548000021,80,33,male,True
532,108.0,25,F,up,0.900477199931629,0.4639384437720956,,experiment,emotion,2.0,,,,1628.434136900003,80,33,male,True
533,111.0,25,F,up,1.1298130999784917,1.163943478672714,,experiment,emotion,2.0,,,,1630.7838161000982,80,33,male,True
534,104.0,25,M,down,2.23833600000944,1.58564207266989,,experiment,emotion,2.0,,,,1633.7672697000671,80,33,male,True
535,114.0,25,M,,,0.864938406443341,,experiment,emotion,2.0,,,,1637.15049670008,80,33,male,True
536,111.0,25,M,up,1.034038000041619,0.9518560183232894,,experiment,emotion,2.0,,,,1640.7836104000453,80,33,male,True
537,114.0,25,F,up,0.7300058999098837,1.354269076445322,,experiment,emotion,2.0,,,,1643.4336156999923,80,33,male,True
538,104.0,25,F,up,0.7967565000290051,0.8205777103987619,,experiment,emotion,2.0,,,,1645.2668755000925,80,33,male,True
539,111.0,25,M,up,0.6175406000111252,1.8166938983372172,,experiment,emotion,2.0,,,,1648.150084300083,80,33,male,True
540,108.0,25,F,up,0.7274842999177054,0.4464795067436456,,experiment,emotion,2.0,,,,1649.4831201999914,80,33,male,True
541,108.0,25,M,up,0.5463171999435872,1.3495288599174362,,experiment,emotion,2.0,,,,1651.8333042000886,80,33,male,True
542,111.0,25,M,up,0.5137792000314221,1.6057836603166054,,experiment,emotion,2.0,,,,1654.2498491000151,80,33,male,True
543,114.0,25,M,up,0.7254544000606984,0.4734218195641043,,experiment,emotion,2.0,,,,1655.533168700058,80,33,male,True
544,108.0,25,F,up,0.5685425999108702,1.112737278064048,,experiment,emotion,2.0,,,,1657.63307109999,80,33,male,True
545,104.0,25,F,up,0.4472606999333948,0.9948086024724848,,experiment,emotion,2.0,,,,1659.4663512000116,80,33,male,True
546,104.0,25,M,up,0.5320717000868171,1.919062277863012,,experiment,emotion,2.0,,,,1662.0995807000436,80,33,male,True
547,108.0,25,F,up,0.5457740999991074,1.529081659793349,,experiment,emotion,2.0,,,,1664.432846400072,80,33,male,True
548,114.0,25,F,up,0.4965681999456137,0.9665460446820648,,experiment,emotion,2.0,,,,1666.2160882999888,80,33,male,True
549,111.0,25,M,up,0.7008986999280751,1.0255751663219297,,experiment,emotion,2.0,,,,1668.032719900017,80,33,male,True
550,104.0,25,M,up,0.4790329999523237,0.8201601443006612,,experiment,emotion,2.0,,,,1669.8326179999858,80,33,male,True
551,114.0,25,F,up,0.6203830000013113,0.9328258622208668,,experiment,emotion,2.0,,,,1671.499244500068,80,33,male,True
552,111.0,25,M,up,0.670527399983257,1.6118879232541783,,experiment,emotion,2.0,,,,1673.9991425999906,80,33,male,True
553,111.0,25,F,up,0.5563218001043424,1.785323773113496,,experiment,emotion,2.0,,,,1676.7323744000169,80,33,male,True
554,104.0,25,F,up,0.7773438000585884,1.7742871922586412,,experiment,emotion,2.0,,,,1679.3322722000305,80,33,male,True
555,108.0,25,F,up,0.4001847000326961,0.7522584873958755,,experiment,emotion,2.0,,,,1681.1322127000894,80,33,male,True
556,114.0,25,M,up,0.4715574999572709,0.8251539503506398,,experiment,emotion,2.0,,,,1682.6821312000975,80,33,male,True
557,108.0,25,M,up,0.400174600072205,0.6314663072350446,,experiment,emotion,2.0,,,,1684.0487773000496,80,33,male,True
558,108.0,25,F,up,0.5506009000819176,1.8942974518991609,,experiment,emotion,2.0,,,,1686.6320210000267,80,33,male,True
559,108.0,25,F,up,1.0748477999586612,0.6311177493052031,,experiment,emotion,2.0,,,,1688.08176239999,80,33,male,True
560,114.0,25,M,up,0.6050527999177575,1.3115689114304967,,experiment,emotion,2.0,,,,1690.7485492000123,80,33,male,True
561,111.0,25,M,up,0.7991520999930799,1.958978225366547,,experiment,emotion,2.0,,,,1693.598444400006,80,33,male,True
562,104.0,25,M,up,0.8039813000941649,0.3523586729740424,,experiment,emotion,2.0,,,,1695.0316817000275,80,33,male,True
563,104.0,25,M,up,0.8779690000228584,0.3096585575449502,,experiment,emotion,2.0,,,,1696.4316473000215,80,33,male,True
564,111.0,25,M,up,0.9427946999203414,1.537926312513807,,experiment,emotion,2.0,,,,1699.1148625999922,80,33,male,True
565,114.0,25,F,up,1.0014344999799505,0.3790741105921104,,experiment,emotion,2.0,,,,1700.69818330009,80,33,male,True
566,114.0,25,F,up,1.7509002001024785,1.8375029402142329,,experiment,emotion,2.0,,,,1703.81471950002,80,33,male,True
567,104.0,25,M,up,0.9339916000608356,0.9223816238138464,,experiment,emotion,2.0,,,,1706.764602500014,80,33,male,True
568,114.0,25,F,up,0.8544076000107452,0.6201785391205108,,experiment,emotion,2.0,,,,1708.5811873000348,80,33,male,True
569,108.0,25,F,up,1.2875020999927074,0.7112687692656452,,experiment,emotion,2.0,,,,1710.4311336000685,80,33,male,True
570,111.0,25,F,up,2.06364389997907,1.9018385266562567,,experiment,emotion,2.0,,,,1713.8809773999965,80,33,male,True
571,108.0,25,M,up,0.7870401999680325,0.6257382878690825,,experiment,emotion,2.0,,,,1716.8475704999871,80,33,male,True
572,104.0,25,F,up,0.7297784999245778,0.9214621509935856,,experiment,emotion,2.0,,,,1718.8308150999949,80,33,male,True
573,111.0,25,F,up,0.7445040999446064,0.3837995819001318,,experiment,emotion,2.0,,,,1720.1971114000771,80,33,male,True
574,108.0,25,F,up,0.6609570999862626,1.7734835562250535,,experiment,emotion,2.0,,,,1722.980674899998,80,33,male,True
575,111.0,25,M,up,0.8263875999255106,1.126340535430549,,experiment,emotion,2.0,,,,1725.047269300092,80,33,male,True
576,104.0,25,M,down,1.94010910007637,0.9265895063480484,,experiment,emotion,2.0,,,,1727.0804970000172,80,33,male,True
577,114.0,25,F,up,1.087217099964619,1.5406579796397453,,experiment,emotion,2.0,,,,1730.830371399992,80,33,male,True
578,111.0,25,M,up,1.643965300056152,1.2295681524593924,,experiment,emotion,2.0,,,,1733.4136432000669,80,33,male,True
579,114.0,25,F,down,1.07978470006492,1.630622926395142,,experiment,emotion,2.0,,,,1736.946834100061,80,33,male,True
580,104.0,25,M,down,1.1428448000224307,0.5452641034832637,,experiment,emotion,2.0,,,,1738.84674920002,80,33,male,True
581,108.0,25,M,down,0.9082164999563248,1.4193748501376715,,experiment,emotion,2.0,,,,1741.6964249000885,80,33,male,True
582,0.1799857856291465,25,up,up,0.7093463999917731,0.5274374646683903,,experiment,cRDM,2.0,,,,1769.662238900084,80,33,male,True
583,0.1799857856291465,25,up,up,0.964017100050114,0.5224184401302359,,experiment,cRDM,2.0,,,,1771.1455712000609,80,33,male,True
584,0.1799857856291465,25,down,down,0.7221154000144452,0.9659042619285318,,experiment,cRDM,2.0,,,,1773.3454969000304,80,33,male,True
585,0.1799857856291465,25,down,down,0.7745468000648543,1.2658202056562973,,experiment,cRDM,2.0,,,,1775.612053000019,80,33,male,True
586,0.1799857856291465,25,up,up,0.786700899945572,1.703804656217507,,experiment,cRDM,2.0,,,,1778.3619283000007,80,33,male,True
587,0.1799857856291465,25,down,down,0.6820345999440178,0.5632244064317491,,experiment,cRDM,2.0,,,,1779.9785660000052,80,33,male,True
588,0.1799857856291465,25,up,up,0.8514872000087053,1.6387402347846434,,experiment,cRDM,2.0,,,,1782.5451383000473,80,33,male,True
589,0.1799857856291465,25,up,down,1.9678744999691844,0.7109055670818536,,experiment,cRDM,2.0,,,,1784.361723100068,80,33,male,True
590,0.1799857856291465,25,down,down,0.8035644999472424,0.603719848956028,,experiment,cRDM,2.0,,,,1787.195016700076,80,33,male,True
591,0.1799857856291465,25,down,down,1.0425073000369594,1.8155204728581904,,experiment,cRDM,2.0,,,,1790.0780083000427,80,33,male,True
592,0.1799857856291465,25,down,down,0.8315175999887288,1.9018592713090483,,experiment,cRDM,2.0,,,,1793.2780811000848,80,33,male,True
593,0.1799857856291465,25,down,down,1.1408427000278607,0.907868606126123,,experiment,cRDM,2.0,,,,1795.27778080001,80,33,male,True
594,0.1799857856291465,25,down,up,1.0218706999439746,0.6849429343163711,,experiment,cRDM,2.0,,,,1797.377778800088,80,33,male,True
595,0.1799857856291465,25,down,down,0.8404358000261709,1.701887949654151,,experiment,cRDM,2.0,,,,1800.3611683000345,80,33,male,True
596,0.1799857856291465,25,up,down,2.125880799954757,0.5105913562391894,,experiment,cRDM,2.0,,,,1801.9777516000904,80,33,male,True
597,0.1799857856291465,25,up,up,0.6876558000221848,0.7961465579128427,,experiment,cRDM,2.0,,,,1805.1609790000368,80,33,male,True
598,0.1799857856291465,25,up,down,0.83467509993352,0.8048358346892379,,experiment,cRDM,2.0,,,,1806.9109413000988,80,33,male,True
599,0.1799857856291465,25,up,up,0.7257814999902621,0.3495983256915398,,experiment,cRDM,2.0,,,,1808.3608615000269,80,33,male,True
600,0.1799857856291465,25,down,down,0.7001579999923706,1.0800873630496015,,experiment,cRDM,2.0,,,,1810.4274424000175,80,33,male,True
601,0.1799857856291465,25,up,up,0.5328999999910593,1.0717945042497932,,experiment,cRDM,2.0,,,,1812.460687700077,80,33,male,True
602,0.1799857856291465,25,up,up,0.4460232999408617,0.9011686070890168,,experiment,cRDM,2.0,,,,1814.1606233000057,80,33,male,True
603,0.1799857856291465,25,down,down,0.6576841999776661,1.6711908038578431,,experiment,cRDM,2.0,,,,1816.543915300048,80,33,male,True
604,0.1799857856291465,25,up,up,0.8364758999086916,1.3696211992415288,,experiment,cRDM,2.0,,,,1818.827129399986,80,33,male,True
605,0.1799857856291465,25,down,up,0.5252328000497073,1.788738480321651,,experiment,cRDM,2.0,,,,1821.7103640000569,80,33,male,True
606,0.1799857856291465,25,down,down,0.8188099999679253,1.2790002110639775,,experiment,cRDM,2.0,,,,1823.7767942000648,80,33,male,True
607,0.1799857856291465,25,up,up,0.6669454999500886,0.6365178202492932,,experiment,cRDM,2.0,,,,1825.4766963000875,80,33,male,True
608,0.1799857856291465,25,up,up,1.8011553999967873,1.734575985666863,,experiment,cRDM,2.0,,,,1828.1434599000493,80,33,male,True
609,0.1799857856291465,25,down,up,0.9182816999964416,1.4320474386726336,,experiment,cRDM,2.0,,,,1831.6433255000736,80,33,male,True
610,0.1799857856291465,25,up,up,0.5050309000071138,1.1426424575345064,,experiment,cRDM,2.0,,,,1833.9765674000373,80,33,male,True
611,0.1799857856291465,25,down,down,0.712118300027214,1.7360194016477155,,experiment,cRDM,2.0,,,,1836.4764753000345,80,33,male,True
612,0.1799857856291465,25,down,down,0.9771841999609024,0.4797129363328153,,experiment,cRDM,2.0,,,,1837.926414699992,80,33,male,True
613,0.1799857856291465,25,down,down,0.7739652999443933,1.43581227493604,,experiment,cRDM,2.0,,,,1840.6096742000664,80,33,male,True
614,0.1799857856291465,25,up,up,0.7510698999976739,1.3175363450448907,,experiment,cRDM,2.0,,,,1842.9595761999956,80,33,male,True
615,0.1799857856291465,25,up,up,0.547104400000535,0.8831231014255889,,experiment,cRDM,2.0,,,,1844.8595077000791,80,33,male,True
616,0.1799857856291465,25,up,up,0.5497709999326617,1.5326275513283285,,experiment,cRDM,2.0,,,,1847.1927881999875,80,33,male,True
617,0.1799857856291465,25,down,up,0.5401958000147715,0.4794231650470835,,experiment,cRDM,2.0,,,,1848.474457800039,80,33,male,True
618,0.1799857856291465,25,down,up,0.5881885999115184,1.4353481026569068,,experiment,cRDM,2.0,,,,1850.724392000004,80,33,male,True
619,0.1799857856291465,25,up,up,0.4622700000181794,1.2628055883367857,,experiment,cRDM,2.0,,,,1852.8413305000868,80,33,male,True
620,0.1799857856291465,25,down,down,0.8023319999920204,1.468439001171643,,experiment,cRDM,2.0,,,,1855.041245600092,80,33,male,True
621,0.1799857856291465,25,up,up,0.6485691999550909,0.4845847730003257,,experiment,cRDM,2.0,,,,1856.609116100008,80,33,male,True
622,0.1799857856291465,25,up,up,0.7013981000054628,0.6775983772454881,,experiment,cRDM,2.0,,,,1858.1922172000632,80,33,male,True
623,0.1799857856291465,25,up,up,0.6395956000778824,1.0970048863709372,,experiment,cRDM,2.0,,,,1860.2589466000209,80,33,male,True
624,0.1799857856291465,25,down,down,1.1443880000151694,1.0832812775780651,,experiment,cRDM,2.0,,,,1862.242195900064,80,33,male,True
625,0.1799857856291465,25,down,up,1.231825799914077,0.9727389706725792,,experiment,cRDM,2.0,,,,1864.6088260000104,80,33,male,True
626,0.1799857856291465,25,up,up,0.5683386999880895,1.065558089448104,,experiment,cRDM,2.0,,,,1867.175252699992,80,33,male,True
627,0.1799857856291465,25,down,up,1.219989600009285,1.7039953270037749,,experiment,cRDM,2.0,,,,1869.7086079000728,80,33,male,True
628,0.1799857856291465,25,down,down,0.8030886999331415,1.1811806517815857,,experiment,cRDM,2.0,,,,1872.358502499992,80,33,male,True
629,0.1799857856291465,25,up,up,0.6191630999092013,1.12928633700522,,experiment,cRDM,2.0,,,,1874.5584183000028,80,33,male,True
630,0.1799857856291465,25,up,up,0.4238953000167385,0.3014164265097799,,experiment,cRDM,2.0,,,,1875.741701800027,80,33,male,True
631,0.1799857856291465,25,down,up,0.9183389999670908,0.4234812723105767,,experiment,cRDM,2.0,,,,1876.858334299992,80,33,male,True
632,0.1799857856291465,25,up,up,0.570651900023222,0.4442214177732396,,experiment,cRDM,2.0,,,,1878.4749283000128,80,33,male,True
633,0.1799857856291465,25,down,up,0.592305599944666,0.9833534865659116,,experiment,cRDM,2.0,,,,1880.2913103000028,80,33,male,True
634,0.1799857856291465,25,down,up,0.5574396000010893,0.5625313671826107,,experiment,cRDM,2.0,,,,1881.7081733000232,80,33,male,True
635,0.1799857856291465,25,down,up,0.645365700009279,0.3709378142856186,,experiment,cRDM,2.0,,,,1882.8912543000188,80,33,male,True
636,0.1799857856291465,25,up,up,2.3603714000200853,1.5876638552777549,,experiment,cRDM,2.0,,,,1885.3912242000224,80,33,male,True
637,0.1799857856291465,25,up,up,0.7293884000973776,1.627765632153696,,experiment,cRDM,2.0,,,,1889.641193700023,80,33,male,True
638,0.1799857856291465,25,down,down,0.6668175000231713,0.3351800783109546,,experiment,cRDM,2.0,,,,1890.957812400069,80,33,male,True
639,0.1799857856291465,25,down,down,1.4303528999444095,0.37597060455687,,experiment,cRDM,2.0,,,,1892.2742174000011,80,33,male,True
640,0.1799857856291465,25,up,up,0.6619709000224248,1.585280050921518,,experiment,cRDM,2.0,,,,1895.557631800068,80,33,male,True
641,0.1799857856291465,25,up,up,0.9253289999905974,1.1491539409459737,,experiment,cRDM,2.0,,,,1897.624249799992,80,33,male,True
642,0.1799857856291465,25,up,up,1.222873300081119,1.2763316549067454,,experiment,cRDM,2.0,,,,1900.09071020002,80,33,male,True
643,0.1799857856291465,25,up,up,0.6782163999741897,0.8914750859707452,,experiment,cRDM,2.0,,,,1902.4573865000857,80,33,male,True
644,0.1799857856291465,25,up,up,0.4859823000151664,1.2394083592885143,,experiment,cRDM,2.0,,,,1904.6406588000243,80,33,male,True
645,0.1799857856291465,25,down,down,0.8100004999432713,1.19143157517828,,experiment,cRDM,2.0,,,,1906.5736863000784,80,33,male,True
646,0.1799857856291465,25,down,up,0.9194048000499606,1.2719494239760392,,experiment,cRDM,2.0,,,,1908.9071700000204,80,33,male,True
647,0.1799857856291465,25,up,up,0.9775255999993532,1.7302539767718166,,experiment,cRDM,2.0,,,,1911.807063500048,80,33,male,True
648,0.1799857856291465,25,down,down,1.2935703999828547,0.4580970574673466,,experiment,cRDM,2.0,,,,1913.5069823000813,80,33,male,True
649,0.1799857856291465,25,down,up,1.3750938000157475,0.9049616184589376,,experiment,cRDM,2.0,,,,1915.973482200061,80,33,male,True
650,0.1799857856291465,25,down,up,0.7184302000096068,1.291770620173057,,experiment,cRDM,2.0,,,,1918.890143100056,80,33,male,True
651,0.1799857856291465,25,up,down,1.5861960999900475,1.4656624170373072,,experiment,cRDM,2.0,,,,1921.3233851999976,80,33,male,True
652,0.1799857856291465,25,down,down,1.0339555999962613,0.4410170257629625,,experiment,cRDM,2.0,,,,1923.6066600000488,80,33,male,True
653,0.1799857856291465,25,down,up,0.7423882000148296,1.064071504328109,,experiment,cRDM,2.0,,,,1925.9731913000576,80,33,male,True
654,0.1799857856291465,25,down,up,1.671056600054726,0.8320132104540583,,experiment,cRDM,2.0,,,,1927.8064672000476,80,33,male,True
655,0.1799857856291465,25,up,up,0.7970682999584824,1.650832447860981,,experiment,cRDM,2.0,,,,1931.3895050000865,80,33,male,True
656,0.1799857856291465,25,up,up,0.7913077999837697,1.3466952081174228,,experiment,cRDM,2.0,,,,1933.806266700034,80,33,male,True
657,0.1799857856291465,25,down,up,0.8571373999584466,1.375529664526855,,experiment,cRDM,2.0,,,,1936.23946130008,80,33,male,True
658,0.1799857856291465,25,up,up,0.6698280000127852,0.9613802392160906,,experiment,cRDM,2.0,,,,1938.322745500016,80,33,male,True
659,0.1799857856291465,25,down,down,1.5352914000395683,1.5721323885741365,,experiment,cRDM,2.0,,,,1940.839303100016,80,33,male,True
660,0.1799857856291465,25,up,up,1.364977000048384,0.674957660129152,,experiment,cRDM,2.0,,,,1943.3225668000523,80,33,male,True
661,0.1799857856291465,25,up,up,0.5138035999843851,1.2141356739804223,,experiment,cRDM,2.0,,,,1946.1558006000705,80,33,male,True
662,114.0,25,M,down,1.6071914000203833,0.8697557146843771,,experiment,emotion,3.0,,,,1970.371385400067,80,33,male,True
663,104.0,25,M,down,0.9857674000086264,0.8241932708246613,,experiment,emotion,3.0,,,,1973.1048090000404,80,33,male,True
664,111.0,25,F,up,0.9595409000758082,0.343717072828103,,experiment,emotion,3.0,,,,1974.7380649000409,80,33,male,True
665,114.0,25,F,down,1.0032693999819458,1.1605313666514332,,experiment,emotion,3.0,,,,1977.121325400076,80,33,male,True
666,111.0,25,M,up,1.536088400054723,1.2761809981592824,,experiment,emotion,3.0,,,,1979.654529700056,80,33,male,True
667,108.0,25,F,down,1.5828705000458283,1.6110841476857958,,experiment,emotion,3.0,,,,1983.0877648000603,80,33,male,True
668,104.0,25,M,up,1.0966235001105815,1.7177936346758116,,experiment,emotion,3.0,,,,1986.6709443000143,80,33,male,True
669,108.0,25,M,down,1.0197356999851763,1.6754074016285774,,experiment,emotion,3.0,,,,1989.7208562000887,80,33,male,True
670,114.0,25,F,down,1.0751702999696136,1.4512561871524396,,experiment,emotion,3.0,,,,1992.4874093000544,80,33,male,True
671,108.0,25,F,down,0.8345628000097349,0.3683539109413647,,experiment,emotion,3.0,,,,1994.2040087000933,80,33,male,True
672,111.0,25,F,down,0.6562644001096487,0.7468998644375804,,experiment,emotion,3.0,,,,1996.0703298000155,80,33,male,True
673,114.0,25,F,up,0.6703488000202924,1.3407107379583978,,experiment,emotion,3.0,,,,1998.3371991000604,80,33,male,True
674,111.0,25,F,up,0.8200937999645248,1.246473946604225,,experiment,emotion,3.0,,,,2000.520447900053,80,33,male,True
675,104.0,25,F,up,1.169912900077179,1.8106946913931896,,experiment,emotion,3.0,,,,2003.4536641000304,80,33,male,True
676,108.0,25,M,up,1.369783699978143,1.580676735691965,,experiment,emotion,3.0,,,,2006.486782100052,80,33,male,True
677,104.0,25,M,down,1.0460715999361128,0.3812765501797669,,experiment,emotion,3.0,,,,2008.5034980000928,80,33,male,True
678,114.0,25,M,up,1.1088324999436736,1.9190202073689224,,experiment,emotion,3.0,,,,2011.7367292999988,80,33,male,True
679,104.0,25,M,up,1.2909659000579268,1.7255886596559955,,experiment,emotion,3.0,,,,2014.8366040000687,80,33,male,True
680,111.0,25,F,up,0.6184454000322148,1.2968104309411357,,experiment,emotion,3.0,,,,2017.703146600048,80,33,male,True
681,111.0,25,M,up,0.6345293000340462,0.3612279971619144,,experiment,emotion,3.0,,,,2018.9530731000705,80,33,male,True
682,108.0,25,M,down,1.1081965999910608,0.8601549501778982,,experiment,emotion,3.0,,,,2020.736364100012,80,33,male,True
683,108.0,25,F,up,0.7847686999011785,1.5974151534181025,,experiment,emotion,3.0,,,,2023.702834900003,80,33,male,True
684,104.0,25,M,up,0.7880265000276268,0.4780545638173596,,experiment,emotion,3.0,,,,2025.2195416000905,80,33,male,True
685,114.0,25,F,up,0.7198121999390423,1.7576153699261794,,experiment,emotion,3.0,,,,2028.0527599999916,80,33,male,True
686,111.0,25,F,up,0.7456156000262126,1.983895366719476,,experiment,emotion,3.0,,,,2031.035983100068,80,33,male,True
687,104.0,25,M,up,1.6929227999644354,1.5442900538813205,,experiment,emotion,3.0,,,,2033.6026018999985,80,33,male,True
688,114.0,25,M,up,0.5465015000663698,1.954607357686145,,experiment,emotion,3.0,,,,2037.5190693000327,80,33,male,True
689,114.0,25,F,up,0.7654837999725714,0.3215694015543499,,experiment,emotion,3.0,,,,2038.669073300087,80,33,male,True
690,108.0,25,M,up,1.0406250999076292,1.6060332397431971,,experiment,emotion,3.0,,,,2041.3189387000168,80,33,male,True
691,104.0,25,F,down,1.3697037000674754,0.9417851461106546,,experiment,emotion,3.0,,,,2043.5688649000367,80,33,male,True
692,108.0,25,F,up,0.9114791000029072,1.245886333161213,,experiment,emotion,3.0,,,,2046.4520840999903,80,33,male,True
693,111.0,25,F,up,0.679030800005421,0.3290549501979943,,experiment,emotion,3.0,,,,2047.968525800039,80,33,male,True
694,104.0,25,M,up,0.5341255000093952,1.149601907004677,,experiment,emotion,3.0,,,,2050.0684301999863,80,33,male,True
695,114.0,25,M,up,0.4543919001007452,0.8068843847960063,,experiment,emotion,3.0,,,,2051.685240900028,80,33,male,True
696,111.0,25,M,up,0.4383711999980733,0.3585747566625985,,experiment,emotion,3.0,,,,2052.7851930999896,80,33,male,True
697,114.0,25,F,up,0.4167703000130132,1.7272762746297352,,experiment,emotion,3.0,,,,2055.2184382000705,80,33,male,True
698,104.0,25,F,down,0.6946824999758974,1.0639163507945175,,experiment,emotion,3.0,,,,2056.984874600079,80,33,male,True
699,111.0,25,M,down,0.6822620000457391,0.6762529233444015,,experiment,emotion,3.0,,,,2058.618323500036,80,33,male,True
700,108.0,25,F,down,0.770905000041239,1.0092298800268775,,experiment,emotion,3.0,,,,2060.5847031000303,80,33,male,True
701,108.0,25,M,down,0.8690528000006452,1.649535934730322,,experiment,emotion,3.0,,,,2063.284511600039,80,33,male,True
702,111.0,25,M,down,0.96189310005866,1.7188927712568134,,experiment,emotion,3.0,,,,2066.134701700066,80,33,male,True
703,114.0,25,M,up,1.1860040000174197,1.9488621991306887,,experiment,emotion,3.0,,,,2069.3345812000334,80,33,male,True
704,108.0,25,F,up,0.5387244001030922,0.9476480084070606,,experiment,emotion,3.0,,,,2071.717835800024,80,33,male,True
705,104.0,25,F,down,1.0031729999464003,1.2272467726313698,,experiment,emotion,3.0,,,,2073.7843348000897,80,33,male,True
706,104.0,25,M,down,0.8269226999254897,0.4598064187733165,,experiment,emotion,3.0,,,,2075.517658900004,80,33,male,True
707,108.0,25,F,down,0.6983097000047565,1.863555632586234,,experiment,emotion,3.0,,,,2078.484247000073,80,33,male,True
708,114.0,25,F,up,0.6523762000724673,0.4743589670982943,,experiment,emotion,3.0,,,,2079.93418500002,80,33,male,True
709,111.0,25,M,up,1.576798600028269,0.7693086288487927,,experiment,emotion,3.0,,,,2081.6508110000286,80,33,male,True
710,104.0,25,M,down,0.9768477000761776,1.5043884489514563,,experiment,emotion,3.0,,,,2085.000690900022,80,33,male,True
711,114.0,25,F,up,1.6699628999922425,1.2129328778938842,,experiment,emotion,3.0,,,,2087.450595400064,80,33,male,True
712,111.0,25,M,up,0.7677828000159934,0.9465798162211216,,experiment,emotion,3.0,,,,2090.333778600092,80,33,male,True
713,111.0,25,F,up,0.6414343999931589,0.6047369026390765,,experiment,emotion,3.0,,,,2091.967086300021,80,33,male,True
714,104.0,25,F,down,0.8055905000073835,0.6880928722826655,,experiment,emotion,3.0,,,,2093.5670053000795,80,33,male,True
715,108.0,25,F,up,1.2372399000450969,1.694323583482761,,experiment,emotion,3.0,,,,2096.350281300023,80,33,male,True
716,114.0,25,M,up,0.7774270999943838,1.675275814615619,,experiment,emotion,3.0,,,,2099.55012800009,80,33,male,True
717,108.0,25,M,down,0.7911934999283403,1.952212547097516,,experiment,emotion,3.0,,,,2102.5333735999884,80,33,male,True
718,108.0,25,F,down,0.825664300005883,1.7615478438076375,,experiment,emotion,3.0,,,,2105.349922100082,80,33,male,True
719,108.0,25,F,up,0.7883297000080347,0.4833517059889936,,experiment,emotion,3.0,,,,2106.9332137000747,80,33,male,True
720,114.0,25,M,up,0.8724656999111176,0.4441262626896836,,experiment,emotion,3.0,,,,2108.433128100005,80,33,male,True
721,111.0,25,M,up,0.582528300001286,1.550364526505266,,experiment,emotion,3.0,,,,2111.133017400047,80,33,male,True
722,104.0,25,M,up,0.5298222000710666,1.4795945000822874,,experiment,emotion,3.0,,,,2113.48275960004,80,33,male,True
723,104.0,25,M,up,0.6663406000006944,0.8729247049244455,,experiment,emotion,3.0,,,,2115.1662246000487,80,33,male,True
724,111.0,25,M,up,0.6450447000097483,0.9374403733243892,,experiment,emotion,3.0,,,,2117.0495042999974,80,33,male,True
725,114.0,25,F,up,0.4513039999874308,1.2447697563530464,,experiment,emotion,3.0,,,,2119.1994238999905,80,33,male,True
726,114.0,25,F,up,0.5748033000854775,1.7558169321124322,,experiment,emotion,3.0,,,,2121.665747300023,80,33,male,True
727,104.0,25,M,up,0.7972863999893889,1.4878058609169802,,experiment,emotion,3.0,,,,2123.999244900071,80,33,male,True
728,114.0,25,F,up,1.1910683000460267,1.0729007855285366,,experiment,emotion,3.0,,,,2126.132484900066,80,33,male,True
729,108.0,25,F,up,0.6820948999375105,1.3643581942852976,,experiment,emotion,3.0,,,,2128.9655106000137,80,33,male,True
730,111.0,25,F,down,1.2078743999591095,1.717583008562649,,experiment,emotion,3.0,,,,2131.648939799983,80,33,male,True
731,108.0,25,M,up,0.6533460000064224,1.570899487596103,,experiment,emotion,3.0,,,,2134.682194299996,80,33,male,True
732,104.0,25,F,up,0.7570926999906078,0.3146457446093312,,experiment,emotion,3.0,,,,2135.915459400043,80,33,male,True
733,111.0,25,F,up,0.5621388000436127,1.5739150553471075,,experiment,emotion,3.0,,,,2138.51537430007,80,33,male,True
734,108.0,25,F,,,0.3170396567422701,,experiment,emotion,3.0,,,,2139.6651027000044,80,33,male,True
735,111.0,25,M,up,0.6201268999138847,1.3977554458937616,,experiment,emotion,3.0,,,,2143.7485006999923,80,33,male,True
736,104.0,25,M,up,2.105771300033666,0.5475376069948695,,experiment,emotion,3.0,,,,2145.1818195000524,80,33,male,True
737,114.0,25,F,up,0.7565170000307262,0.9414016844652204,,experiment,emotion,3.0,,,,2148.5150184000377,80,33,male,True
738,111.0,25,M,down,0.8219277000753209,0.8268257828181711,,experiment,emotion,3.0,,,,2150.3816083000274,80,33,male,True
739,114.0,25,F,up,1.4713626999873668,1.620287564795001,,experiment,emotion,3.0,,,,2153.0981890000403,80,33,male,True
740,104.0,25,M,up,0.8389689000323415,1.0411791878416004,,experiment,emotion,3.0,,,,2155.8645380000817,80,33,male,True
741,108.0,25,M,up,0.8222301999339834,1.7371765938887092,,experiment,emotion,3.0,,,,2158.731303500012,80,33,male,True
742,0.1799857856291465,25,up,up,1.5144506000215188,0.4839880784961888,,experiment,cRDM,3.0,,,,2182.4970912000863,80,33,male,True
743,0.1799857856291465,25,up,up,0.7565339999273419,0.5708353610519572,,experiment,cRDM,3.0,,,,2184.846986600081,80,33,male,True
744,0.1799857856291465,25,down,down,0.6986629000166431,1.6289253459272424,,experiment,cRDM,3.0,,,,2187.49691039999,80,33,male,True
745,0.1799857856291465,25,down,down,1.147723100031726,0.9846201586568544,,experiment,cRDM,3.0,,,,2189.4468182000564,80,33,male,True
746,0.1799857856291465,25,up,up,0.7539111999794841,1.492342689888165,,experiment,cRDM,3.0,,,,2192.346707400051,80,33,male,True
747,0.1799857856291465,25,down,down,0.9009442999958992,1.9825141580995864,,experiment,cRDM,3.0,,,,2195.346608799998,80,33,male,True
748,0.1799857856291465,25,up,up,0.7120205999817699,0.7384118836945652,,experiment,cRDM,3.0,,,,2197.24652340007,80,33,male,True
749,0.1799857856291465,25,up,up,1.8993904000381008,0.4833235144412309,,experiment,cRDM,3.0,,,,2198.7131565000163,80,33,male,True
750,0.1799857856291465,25,down,down,0.693820699932985,1.207467837846553,,experiment,cRDM,3.0,,,,2202.079730199999,80,33,male,True
751,0.1799857856291465,25,down,down,0.6842651000479236,1.4454807829288527,,experiment,cRDM,3.0,,,,2204.4962761000497,80,33,male,True
