,stimLvl,stimTime,rand,response,rt,precedingITI,trialNumber,trialType,stimuli,block,estIntens,estThres,estSlope,trialStart,subject,age,gender,headRest
0,150.0,100,F,,,1.0515535310797393,,introTrial,emotion,,,,,225.55406730002144,171,23,female,True
1,0.9,100,down,down,1.993299900001148,1.8826568772281895,,introTrial,cRDM,,,,,231.37043680000352,171,23,female,True
2,0.9,25,down,down,0.7305124000122305,1.046889179851802,,tutorial,cRDM,,,,,274.7521753000037,171,23,female,True
3,0.9,25,down,down,0.6779121000145096,1.802455011448698,,tutorial,cRDM,,,,,277.5687526000256,171,23,female,True
4,0.9,25,up,up,0.6290363000007346,1.3380557962799495,,tutorial,cRDM,,,,,279.8686190000153,171,23,female,True
5,0.9,25,up,up,0.9657354000082704,1.94595191598786,,tutorial,cRDM,,,,,282.7019030000083,171,23,female,True
6,0.9,25,down,down,0.65688819999923,1.4090641368871268,,tutorial,cRDM,,,,,285.351797100011,171,23,female,True
7,0.9,25,down,up,0.7039563000143971,1.86437890374089,,tutorial,cRDM,,,,,288.15168180002365,171,23,female,True
8,0.9,25,up,up,0.6366693000018131,1.9583316350110007,,tutorial,cRDM,,,,,291.0849616000196,171,23,female,True
9,0.9,25,up,up,1.295524099987233,0.4605660057445431,,tutorial,cRDM,,,,,292.46814860001905,171,23,female,True
10,0.9,25,up,up,0.5948692999954801,0.3625104095248084,,tutorial,cRDM,,,,,294.38478590000886,171,23,female,True
11,0.9,25,down,down,0.6119279999984428,0.9882202938677258,,tutorial,cRDM,,,,,296.2347431000089,171,23,female,True
12,200.0,25,M,up,1.100262299994938,1.6146729464940346,,tutorial,emotion,,,,,307.184410100017,171,23,female,True
13,200.0,25,M,up,0.6760548999882303,0.4467425380313696,,tutorial,emotion,,,,,309.0176418000192,171,23,female,True
14,200.0,25,F,up,0.4977575999801047,0.8861624893800781,,tutorial,emotion,,,,,310.8509129000013,171,23,female,True
15,0.0,25,F,down,0.6077810000278987,1.242043443032223,,tutorial,emotion,,,,,312.9008690000046,171,23,female,True
16,0.0,25,M,down,0.5708559000049718,0.3570816998107943,,tutorial,emotion,,,,,314.1507943000179,171,23,female,True
17,200.0,25,F,up,0.6508818000147585,1.4552703113020915,,tutorial,emotion,,,,,316.46774760002154,171,23,female,True
18,0.0,25,M,down,0.4817359000153374,1.723261881611886,,tutorial,emotion,,,,,319.1339418000134,171,23,female,True
19,200.0,25,M,down,0.5498056999931578,1.2158009683548832,,tutorial,emotion,,,,,321.1338774000178,171,23,female,True
20,0.0,25,F,down,0.8158492000075057,1.3009273569233726,,tutorial,emotion,,,,,323.28381180000724,171,23,female,True
21,0.0,25,F,down,0.6606218000233639,0.9689105781733888,,tutorial,emotion,,,,,325.3670232000004,171,23,female,True
22,0.29,25,up,up,0.808959899994079,0.3395229353233411,,psi_staircase_training,cRDM,,0.25,0.2569312402994632,0.105,342.566682100005,171,23,female,True
23,0.25,25,up,down,1.2653965999779755,1.173909268865454,,psi_staircase_training,cRDM,,0.2191026665318312,0.2260132002683492,0.1046863203387393,344.81627940002363,171,23,female,True
24,0.36,25,down,down,0.7238975999935064,1.7769706282126947,,psi_staircase_training,cRDM,,0.3202997408361979,0.3276103223604739,0.1107465658214764,348.13281990002724,171,23,female,True
25,0.33,25,down,down,0.7865862000035122,1.7885713902182092,,psi_staircase_training,cRDM,,0.2990372097977385,0.3064139828071687,0.1117492876491608,350.9160622000054,171,23,female,True
26,0.31,25,up,up,0.7409880999766756,1.2051931359228656,,psi_staircase_training,cRDM,,0.2780189805609542,0.2853981109641391,0.1117849993448387,353.1826790000196,171,23,female,True
27,0.31,25,down,down,0.5845164000056684,1.5695655162518003,,psi_staircase_training,cRDM,,0.2582073586141265,0.2655339603556145,0.1109892529502702,355.7661914000055,171,23,female,True
28,0.29,25,up,up,0.494129900005646,1.256128646467071,,psi_staircase_training,cRDM,,0.2413824040928039,0.2485489846939696,0.1085651240775294,357.88250710000284,171,23,female,True
29,0.24,25,down,down,0.5619756999949459,0.7193398281726315,,psi_staircase_training,cRDM,,0.2254490558334334,0.2325152283915249,0.107044062324179,359.3666822000232,171,23,female,True
30,0.24,25,down,down,0.5760366000176873,0.9428504961307084,,psi_staircase_training,cRDM,,0.2047474993923183,0.2122731702078401,0.1140049113130558,361.1656607000041,171,23,female,True
31,0.23,25,up,up,0.4268022000032943,1.9344949558522464,,psi_staircase_training,cRDM,,0.1850396237580905,0.1928548615388246,0.1183915044816175,363.9489029000106,171,23,female,True
32,0.22,25,down,down,0.5117648999730591,0.4149462586317967,,psi_staircase_training,cRDM,,0.1668004946365475,0.1747693235574314,0.1207182265427456,365.0488775000267,171,23,female,True
33,0.19,25,down,up,0.8822568999894429,0.8008488582829187,,psi_staircase_training,cRDM,,0.1506096300720314,0.158598129293522,0.1210162080690623,366.6154770000139,171,23,female,True
34,0.24,25,down,down,0.6526161000074353,0.7984538590334573,,psi_staircase_training,cRDM,,0.2064288458525479,0.2146269464691537,0.1241914184983997,368.5820519000117,171,23,female,True
35,0.24,25,up,up,0.5713766999833751,1.4098708178586796,,psi_staircase_training,cRDM,,0.1919452470250221,0.2003125239366002,0.1267542370135015,370.9153214000107,171,23,female,True
36,0.23,25,up,up,0.5211041999864392,1.8246311064754823,,psi_staircase_training,cRDM,,0.1793714215531557,0.1877831176719241,0.1274271348721052,373.5985554000072,171,23,female,True
37,0.23,25,down,down,0.6454888999869581,1.5241972196301363,,psi_staircase_training,cRDM,,0.1681181685808186,0.1765239907238098,0.1273381511650125,375.9151384000143,171,23,female,True
38,0.18,25,down,down,0.7459063999995124,1.2087749833031087,,psi_staircase_training,cRDM,,0.1587128596284365,0.1670316598150355,0.1260198726136404,378.0317244000034,171,23,female,True
39,0.17,25,up,up,0.5772974999854341,0.3723820349131849,,psi_staircase_training,cRDM,,0.1462241670913493,0.1548757472059317,0.13106109048066,379.4483488000114,171,23,female,True
40,0.17,25,up,up,0.6466871999728028,1.5183628295060374,,psi_staircase_training,cRDM,,0.1344078139186588,0.1432901274553372,0.1345564258424936,381.8149070000218,171,23,female,True
41,0.17,25,up,up,0.5288349000038579,0.6867178267695996,,psi_staircase_training,cRDM,,0.1237721999878418,0.1327621740223847,0.1361873536111705,383.4148382999993,171,23,female,True
42,0.15,25,up,up,0.5288622000080068,1.2497222646089297,,psi_staircase_training,cRDM,,0.1143970140821364,0.123392895935054,0.1362768499931374,385.46476470000925,171,23,female,True
43,0.13,25,down,up,0.4170440000016242,0.901398111906392,,psi_staircase_training,cRDM,,0.1055315102395152,0.1144843574488502,0.1356249266170963,387.1647109000187,171,23,female,True
44,0.18,25,down,up,0.5636954999936279,1.7850617248083411,,psi_staircase_training,cRDM,,0.134232059619167,0.1434337067618583,0.1393939480149618,389.647944700002,171,23,female,True
45,0.18,25,down,down,0.5564734000072349,1.4306969090716006,,psi_staircase_training,cRDM,,0.1640214833829681,0.1731506811534732,0.1382964266838753,391.9312053000031,171,23,female,True
46,0.18,25,up,up,0.660865100013325,1.0821173443562662,,psi_staircase_training,cRDM,,0.1546213054465861,0.1640213730715753,0.1423997809887362,393.84778570002527,171,23,female,True
47,0.18,25,up,down,0.7186038000218105,0.5530762170513766,,psi_staircase_training,cRDM,,0.1459492988075786,0.1555385726474047,0.1452660288317674,395.331086900027,171,23,female,True
48,0.24,25,down,up,0.7436039000167511,0.8630055574793514,,psi_staircase_training,cRDM,,0.1723380364750968,0.1815185765903322,0.1390742017953632,397.18106790000456,171,23,female,True
49,0.25,25,down,down,0.6153339000011329,1.5675146124777095,,psi_staircase_training,cRDM,,0.2004274385310234,0.2102183551645463,0.1483206759689909,399.7642565999995,171,23,female,True
50,0.25,25,up,up,0.5252318999846466,0.928523416305532,,psi_staircase_training,cRDM,,0.1923540581913683,0.2021645801882862,0.1486176737742229,401.5974937000137,171,23,female,True
51,0.23,25,up,up,0.7525280000118073,1.176127926031406,,psi_staircase_training,cRDM,,0.185212311662118,0.1950049296876965,0.1483464500235786,403.5641025000077,171,23,female,True
52,100.0,25,M,up,1.144181000010576,1.4941316736053416,,psi_staircase_training,emotion,,100.0,100.0,25.00050000000001,412.88052080001216,171,23,female,True
53,55.0,25,M,down,0.8847936000092886,0.3524557951501957,,psi_staircase_training,emotion,,54.7428094675419,54.7428094675419,25.00050000000011,414.71378600000753,171,23,female,True
54,79.0,25,F,down,0.9286042000167072,1.6958707026187771,,psi_staircase_training,emotion,,79.636070985635,79.636070985635,25.713269254886413,417.6469821000064,171,23,female,True
55,103.0,25,F,up,0.6233635999960825,0.5178326367791553,,psi_staircase_training,emotion,,97.61123893914808,97.61123893914808,26.1463337262867,419.4302676000225,171,23,female,True
56,87.0,25,M,down,0.8651826999848709,0.41383186218305,,psi_staircase_training,emotion,,85.98876744579668,85.98876744579668,23.003056417783498,420.81354280002415,171,23,female,True
57,95.0,25,F,down,0.964173699991079,1.8930741472256825,,psi_staircase_training,emotion,,95.05640406123077,95.05640406123077,22.150603223582728,423.91345360002015,171,23,female,True
58,108.0,25,M,down,1.1510014999948908,1.5159138546285729,,psi_staircase_training,emotion,,102.67895770092096,102.67895770092096,23.933073614491192,426.7466691000154,171,23,female,True
59,126.0,25,F,up,0.7900682999752462,0.4097007164275156,,psi_staircase_training,emotion,,113.52218870526065,113.52218870526065,31.611106717665084,428.64658390000113,171,23,female,True
60,122.0,25,F,up,0.7477830999996513,0.5541958712705688,,psi_staircase_training,emotion,,107.37737850761332,107.37737850761332,29.23899594163205,430.3298685000045,171,23,female,True
61,120.0,25,M,up,0.8252409000124317,1.8314808848860769,,psi_staircase_training,emotion,,103.399560746868,103.399560746868,27.102653483724943,433.2464387000073,171,23,female,True
62,85.0,25,F,down,0.5319700000109151,0.8165897271687745,,psi_staircase_training,emotion,,100.68299433852276,100.68299433852276,25.22442575292765,435.22965110000223,171,23,female,True
63,119.0,25,F,up,1.1050826999999117,1.9150318300632605,,psi_staircase_training,emotion,,102.90796399394476,102.90796399394476,23.38137491483795,438.02958940001554,171,23,female,True
64,86.0,25,F,down,0.697501500020735,1.6646233893960656,,psi_staircase_training,emotion,,101.03048750272734,101.03048750272734,21.49534648996879,441.1461335000058,171,23,female,True
65,116.0,25,M,up,1.0452011000015773,0.6263001487864905,,psi_staircase_training,emotion,,102.56848107266026,102.56848107266026,19.69985422242832,442.8294231000182,171,23,female,True
66,88.0,25,M,down,0.8730379000189714,1.626237640028941,,psi_staircase_training,emotion,,101.12966445670249,101.12966445670249,17.94103701303449,445.8626094000065,171,23,female,True
67,113.0,25,F,down,1.2707778999756556,0.5733660590757976,,psi_staircase_training,emotion,,102.2583733482534,102.2583733482534,16.32489012690738,447.645907099999,171,23,female,True
68,125.0,25,F,up,0.8145352999854367,1.609878021413633,,psi_staircase_training,emotion,,106.13819822643195,106.13819822643195,21.398798818920326,450.8791149000172,171,23,female,True
69,123.0,25,M,up,0.8319117000210099,0.3116169873049213,,psi_staircase_training,emotion,,105.09312712947788,105.09312712947788,19.865665207911565,452.3457153000054,171,23,female,True
70,88.0,25,M,down,1.1115590000117663,1.4544455152471552,,psi_staircase_training,emotion,,104.28083895109032,104.28083895109032,18.53428269632403,454.97897580001154,171,23,female,True
71,90.0,25,M,down,2.22342349999235,0.3394270333227578,,psi_staircase_training,emotion,,105.11804039012836,105.11804039012836,17.239885735810596,456.7622388000018,171,23,female,True
72,121.0,25,M,up,0.799907999986317,1.2780446000407495,,psi_staircase_training,emotion,,105.81201532377138,105.81201532377138,16.12045600511083,460.6287561000208,171,23,female,True
73,92.0,25,F,down,0.930629999988014,0.7423400493172386,,psi_staircase_training,emotion,,105.16021928073287,105.16021928073287,15.042982514770504,462.51203010001336,171,23,female,True
74,118.0,25,F,down,0.9088217000244184,1.1663157437649856,,psi_staircase_training,emotion,,105.7661785106263,105.7661785106263,14.123525074503188,464.9618177000084,171,23,female,True
75,127.0,25,F,up,0.4831683000084013,0.5279867324810549,,psi_staircase_training,emotion,,108.40801433822512,108.40801433822512,17.949187615361186,466.728532100009,171,23,female,True
76,125.0,25,M,up,0.7991559999936726,1.51385163240842,,psi_staircase_training,emotion,,107.84863523310496,107.84863523310496,16.904813415768064,469.0784556000144,171,23,female,True
77,92.0,25,M,down,0.6962417000031564,1.2707350455541242,,psi_staircase_training,emotion,,107.37633018347604,107.37633018347604,16.00482452425042,471.4783836000133,171,23,female,True
78,94.0,25,F,down,1.1513508000061847,0.4442657343111995,,psi_staircase_training,emotion,,107.88060550256226,107.88060550256226,15.177021343843636,472.97831190002034,171,23,female,True
79,123.0,25,F,up,0.5190800999989733,0.4285330039671986,,psi_staircase_training,emotion,,108.35148580431388,108.35148580431388,14.44986533974281,474.9115692000196,171,23,female,True
80,96.0,25,M,down,1.0791889999818522,0.8743297426735133,,psi_staircase_training,emotion,,107.93797160747486,107.93797160747486,13.762980430561052,476.6614702000225,171,23,female,True
81,97.0,25,M,down,1.0012092999822926,0.4321200636036704,,psi_staircase_training,emotion,,108.400405090911,108.400405090911,13.162206517135594,478.5114385000197,171,23,female,True
82,0.29,25,up,up,0.675523499987321,1.3708534461970416,,psi_staircase,cRDM,,0.25,0.2569312402994632,0.105,521.2931133000238,171,23,female,True
83,0.25,25,up,up,1.014558900002157,0.7611992649539331,,psi_staircase,cRDM,,0.2191026665318312,0.2260132002683492,0.1046863203387393,522.993057100015,171,23,female,True
84,0.21,25,down,down,0.6736479999963194,1.3172279664341846,,psi_staircase,cRDM,,0.1900540959403307,0.1968497961554001,0.1029467298424999,525.592948000005,171,23,female,True
85,0.18,25,down,down,0.6400931999960449,1.1779329426112437,,psi_staircase,cRDM,,0.1635257589279754,0.1701521334256793,0.1003816477568649,527.7095561000169,171,23,female,True
86,0.15,25,up,up,0.4348115999891888,0.7332022418664543,,psi_staircase,cRDM,,0.1401895574244936,0.1466013351187503,0.0971307628663642,529.342827800021,171,23,female,True
87,0.13,25,down,down,0.826208200014662,1.6766970829191612,,psi_staircase,cRDM,,0.1198760602145479,0.1260554767618333,0.0936107694196103,531.7094057000068,171,23,female,True
88,0.11,25,up,up,0.4856712000037078,1.8363146666532495,,psi_staircase,cRDM,,0.1025773523696548,0.1084910344569865,0.0895852101993795,534.642937800003,171,23,female,True
89,0.09,25,down,down,0.5573868000064977,1.1338434406176028,,psi_staircase,cRDM,,0.087844325958594,0.0934818215320969,0.0854013148647635,536.5092230000009,171,23,female,True
90,0.08,25,down,up,0.5417778000119142,1.15490238494744,,psi_staircase,cRDM,,0.0751852092118086,0.0805556301471181,0.0813554535472043,538.4758838000125,171,23,female,True
91,0.13,25,up,down,0.4922376000031363,0.871321380587085,,psi_staircase,cRDM,,0.1145374077699418,0.1210371210567565,0.0984628819128368,540.1424269000127,171,23,female,True
92,0.2,25,down,up,0.589614900003653,1.6548997428166128,,psi_staircase,cRDM,,0.163694178028886,0.1714746156794365,0.1178643241341766,542.5590261000034,171,23,female,True
93,0.3,25,down,down,0.7087627000000793,1.7069840670537124,,psi_staircase,cRDM,,0.2302025415992222,0.2388716034121065,0.1313259172998717,545.1089091000031,171,23,female,True
94,0.27,25,down,up,0.55310940000345,1.648437424537668,,psi_staircase,cRDM,,0.2117353704735519,0.2203530879314025,0.1305481117346899,547.7254812000028,171,23,female,True
95,0.34,25,up,down,0.5692742000101134,1.4329911365028145,,psi_staircase,cRDM,,0.282712122522203,0.2917537000166316,0.136969084304942,549.9754426,171,23,female,True
96,0.41,25,up,up,1.41941780000343,1.4204776498178078,,psi_staircase,cRDM,,0.3523274220933193,0.3610603356084282,0.1322931942148134,552.2253018000047,171,23,female,True
97,0.39,25,down,down,0.6630897000140976,1.7412459326100025,,psi_staircase,cRDM,,0.337720830682491,0.346642352733843,0.1351503879420398,555.6585395000002,171,23,female,True
98,0.38,25,down,down,0.915237100009108,1.2306261744707412,,psi_staircase,cRDM,,0.3230570261911805,0.3321387794580693,0.1375776992030084,557.8084270000109,171,23,female,True
99,0.34,25,up,up,1.1139996999991126,1.4473868509769412,,psi_staircase,cRDM,,0.3090964290441091,0.3182843056414474,0.1391853407239721,560.4416529000155,171,23,female,True
100,0.33,25,up,up,0.7926472999970429,1.8589461141038932,,psi_staircase,cRDM,,0.2929240125370951,0.3024545573739534,0.1443763546832466,563.6749299000076,171,23,female,True
101,0.33,25,up,up,0.810810200026026,1.543575693591667,,psi_staircase,cRDM,,0.277334811458321,0.2871275182726303,0.1483477950666485,566.2748320000246,171,23,female,True
102,0.32,25,up,up,0.8319141000101808,1.4704764298690691,,psi_staircase,cRDM,,0.2631571625836615,0.2730990457672155,0.1506076386291218,568.824717600015,171,23,female,True
103,0.32,25,down,up,1.1026859999983571,0.7880042004821824,,psi_staircase,cRDM,,0.2500664023494303,0.2600909363016933,0.1518596989155198,570.7079590000212,171,23,female,True
104,0.35,25,down,up,0.656108299997868,1.937072349911481,,psi_staircase,cRDM,,0.2990569469509233,0.3090395948063976,0.1512251746496174,574.0245167000103,171,23,female,True
105,0.4,25,down,down,0.7521647999819834,1.2624738494581278,,psi_staircase,cRDM,,0.3420761027317868,0.3516656983315786,0.1452709031103865,576.224440400023,171,23,female,True
106,0.4,25,up,up,0.5159845000016503,1.7753946911751084,,psi_staircase,cRDM,,0.3329695144032927,0.3425016936226719,0.1444011136235342,579.0076511000225,171,23,female,True
107,0.34,25,up,up,0.6924053000111599,1.840536036814544,,psi_staircase,cRDM,,0.3249667287765037,0.3343775785225502,0.142563117226134,581.6242331000103,171,23,female,True
108,0.34,25,down,up,0.611792499985313,0.8228353475760628,,psi_staircase,cRDM,,0.3132488020303939,0.3230740591499423,0.1488408932572243,583.3908336000168,171,23,female,True
109,0.4,25,down,up,0.53051989999949,1.028974498569491,,psi_staircase,cRDM,,0.3464899809731077,0.3554159829852793,0.1352182539899237,585.2741049000178,171,23,female,True
110,0.43,25,up,up,0.606545599992387,1.7984136483038295,,psi_staircase,cRDM,,0.3760980639185811,0.3860732149704043,0.1511116070413173,587.8740591000242,171,23,female,True
111,0.43,25,up,up,0.5696891999978106,1.942777519447048,,psi_staircase,cRDM,,0.368807774146548,0.3787638235902869,0.1508222405264962,590.6739694999997,171,23,female,True
112,0.43,25,down,up,0.574813199986238,1.0244298761582606,,psi_staircase,cRDM,,0.3621392776906851,0.3720158913098222,0.1496188827978898,592.5238310999994,171,23,female,True
113,0.44,25,up,up,0.5468313000164926,0.7016153847794901,,psi_staircase,cRDM,,0.389930999972144,0.4003829582263313,0.1583346658425116,594.0737835000036,171,23,female,True
114,0.42,25,down,down,0.4518805000116117,0.8277345645524135,,psi_staircase,cRDM,,0.3833161471758249,0.3938209881410069,0.159135775660458,595.7237072999997,171,23,female,True
115,0.42,25,up,up,0.4766843000252265,1.1583753780156634,,psi_staircase,cRDM,,0.3762858857543364,0.3868683168706556,0.1603111736437059,597.6069819000259,171,23,female,True
116,0.42,25,down,down,0.6034453999891412,1.6889104427948838,,psi_staircase,cRDM,,0.3695543263844521,0.3801677708211701,0.1607809883523565,600.0401919000142,171,23,female,True
117,0.42,25,up,up,0.4467940000176895,0.3955250627295388,,psi_staircase,cRDM,,0.36313504110606,0.3737430426620279,0.1606985352192849,601.3068439000053,171,23,female,True
118,0.42,25,down,down,0.4170280999969691,0.8754933060692562,,psi_staircase,cRDM,,0.3570403373363263,0.3676140805541589,0.1601795623733302,602.9067765000218,171,23,female,True
119,0.38,25,up,up,0.553206799988402,1.7744561646020955,,psi_staircase,cRDM,,0.3512819217682035,0.3617982297906465,0.1593094878620818,605.3733955000062,171,23,female,True
120,0.39,25,up,down,1.2863331999978982,0.5342488839335271,,psi_staircase,cRDM,,0.3443204065353774,0.3549195070153027,0.1605636945639208,606.723289800022,171,23,female,True
121,0.44,25,down,up,0.541459300002316,1.83859449152919,,psi_staircase,cRDM,,0.3675025727830136,0.3780722110058918,0.1601173766098046,610.1231793000188,171,23,female,True
122,0.45,25,down,up,0.4218265999807045,0.9498270434695092,,psi_staircase,cRDM,,0.389197331321337,0.4001933535986078,0.166576585030943,611.8897859000135,171,23,female,True
123,0.44,25,down,up,0.6445514000079129,1.1953736230356489,,psi_staircase,cRDM,,0.408992493029013,0.4200623752096342,0.1676954742220139,613.7730521000049,171,23,female,True
124,0.44,25,up,up,0.8902949999901466,0.7362385598235419,,psi_staircase,cRDM,,0.425220236994913,0.4360677125149703,0.1643262793376554,615.406320900016,171,23,female,True
125,0.44,25,up,down,0.8937035999842919,0.4607710284354506,,psi_staircase,cRDM,,0.4205965430116836,0.4315957214868969,0.1666243976546069,617.0229036000092,171,23,female,True
126,0.44,25,down,down,1.1747897999885026,1.9936607794929275,,psi_staircase,cRDM,,0.4343771132196397,0.4450524036873592,0.1617178817472758,620.1728064000199,171,23,female,True
127,0.44,25,down,down,0.8719194000004791,0.9280333272142698,,psi_staircase,cRDM,,0.430164198855288,0.4410394139163328,0.1647465002040304,622.5227168000129,171,23,female,True
128,0.44,25,down,down,1.1253126000228804,1.164304375965029,,psi_staircase,cRDM,,0.426001046560682,0.4370229839935344,0.1669691686405842,624.8393050000013,171,23,female,True
129,0.44,25,up,up,0.4803653000271879,0.8159975899583185,,psi_staircase,cRDM,,0.421872677466004,0.4330008805609705,0.1685789663160229,627.0392338000238,171,23,female,True
130,0.52,25,up,up,0.8634651000029407,0.5557636555998839,,psi_staircase,cRDM,,0.4177674457144209,0.4289714362006779,0.1697270546438976,628.3391694000165,171,23,female,True
131,0.44,25,up,down,0.8548197999771219,0.9495425197805432,,psi_staircase,cRDM,,0.4152740967306889,0.426391564476408,0.1684163386156006,630.405770900019,171,23,female,True
132,100.0,25,M,down,0.8278446000185795,1.8738195257712515,,psi_staircase,emotion,,100.0,100.0,25.00050000000001,641.0387615000072,171,23,female,True
133,145.0,25,M,up,0.5272756000049412,0.8790205331364955,,psi_staircase,emotion,,145.25719053245996,145.25719053245996,25.00050000000028,643.1053706000093,171,23,female,True
134,121.0,25,F,up,0.6383104999840725,0.9351436426417012,,psi_staircase,emotion,,120.36392901436103,120.36392901436103,25.71326925488699,644.9053095000272,171,23,female,True
135,97.0,25,F,down,0.6446750999893993,0.9356996798881608,,psi_staircase,emotion,,102.3887610608496,102.3887610608496,26.14633372628729,646.8219089000195,171,23,female,True
136,113.0,25,M,down,0.7657972000015434,0.9295183332329452,,psi_staircase,emotion,,114.01123255420406,114.01123255420406,23.00305641778335,648.7218208000122,171,23,female,True
137,127.0,25,F,up,0.4708660999895073,1.9283233016992527,,psi_staircase,emotion,,123.15505271238727,123.15505271238727,23.86267166612523,651.7717292000016,171,23,female,True
138,117.0,25,M,up,1.0783190000220202,1.5365777816488817,,psi_staircase,emotion,,116.72664759921038,116.72664759921038,20.612160618334432,654.1382825000037,171,23,female,True
139,107.0,25,F,down,1.336428300011903,0.7922292101827658,,psi_staircase,emotion,,111.41772370799676,111.41772370799676,20.39996786109954,656.3381966000015,171,23,female,True
140,121.0,25,F,up,0.8101290999911726,0.3946853310064964,,psi_staircase,emotion,,115.1254421930638,115.1254421930638,17.30223446310546,658.4214847000258,171,23,female,True
141,110.0,25,M,up,0.8405108000151813,0.3742712326079521,,psi_staircase,emotion,,112.91211428675946,112.91211428675946,14.50625946918904,659.9550834000111,171,23,female,True
142,97.0,25,F,down,0.7385895999905188,0.7606572186761533,,psi_staircase,emotion,,108.16912828420608,108.16912828420608,20.70150480586505,661.887996800011,171,23,female,True
143,99.0,25,F,down,1.1020492000097877,1.940759645942509,,psi_staircase,emotion,,110.4856510771758,110.4856510771758,17.85905415464157,664.9045651000051,171,23,female,True
144,122.0,25,F,up,0.7158294999971986,1.1338780316008557,,psi_staircase,emotion,,111.9240612467726,111.9240612467726,15.535427561120969,667.4878046000085,171,23,female,True
145,102.0,25,M,down,0.9706095999863464,1.1614577750247628,,psi_staircase,emotion,,110.81740819445253,110.81740819445253,13.501137028403065,669.7210428000253,171,23,female,True
146,120.0,25,M,up,0.5612914999946952,1.653058613047726,,psi_staircase,emotion,,111.8047904452042,111.8047904452042,11.649785908980045,672.7043029000051,171,23,female,True
147,105.0,25,F,down,0.8317497000098228,1.6438212027430854,,psi_staircase,emotion,,111.05536873994312,111.05536873994312,10.110952210529916,675.2708676000184,171,23,female,True
148,114.0,25,F,down,0.8102330999972764,1.8467173600371265,,psi_staircase,emotion,,111.82529339361184,111.82529339361184,8.792342862196133,678.2873976000119,171,23,female,True
149,121.0,25,M,up,1.3712833999888971,1.6927066213852442,,psi_staircase,emotion,,113.57216496085546,113.57216496085546,9.950029704313364,681.1543075000227,171,23,female,True
150,108.0,25,M,down,0.8050873999891337,1.340995803529854,,psi_staircase,emotion,,113.02456956765806,113.02456956765806,8.657542290108669,684.2205213000125,171,23,female,True
151,113.0,25,M,down,0.8104907000088133,1.011033514757694,,psi_staircase,emotion,,113.61553435696582,113.61553435696582,7.667445518636623,686.3871136000089,171,23,female,True
152,113.0,25,M,down,1.0666625000012573,1.5114215804496387,,psi_staircase,emotion,,114.55207364053878,114.55207364053878,7.294458819892164,689.0369960000098,171,23,female,True
153,114.0,25,F,down,0.8397186000074726,1.624424082035556,,psi_staircase,emotion,,115.25756423349524,115.25756423349524,6.676388358676549,692.0538929000031,171,23,female,True
154,118.0,25,F,down,0.9344513000105508,0.8100276173384109,,psi_staircase,emotion,,115.90002729132446,115.90002729132446,6.106961602890194,694.0701655000157,171,23,female,True
155,124.0,25,F,up,0.8005702999944333,1.7636490768236146,,psi_staircase,emotion,,117.2658990056685,117.2658990056685,8.995165879196195,697.1200439000095,171,23,female,True
156,123.0,25,M,up,0.6172997999819927,1.3256659048702135,,psi_staircase,emotion,,116.68550645231072,116.68550645231072,7.663420164839186,699.6032974000263,171,23,female,True
157,114.0,25,M,down,1.0016859000024851,0.4336525195190857,,psi_staircase,emotion,,116.31840148447488,116.31840148447488,6.694766234122839,700.9699008000025,171,23,female,True
158,114.0,25,F,up,0.7154981000057887,0.6520650807375321,,psi_staircase,emotion,,116.77366182773518,116.77366182773518,6.110508656037724,702.9531521000026,171,23,female,True
159,123.0,25,F,down,0.8488701000169385,1.1242288346416502,,psi_staircase,emotion,,115.8965064375207,115.8965064375207,7.61122868816648,705.1197604000045,171,23,female,True
160,129.0,25,M,down,0.7982772999966983,1.5238677714817912,,psi_staircase,emotion,,117.37342584551337,117.37342584551337,11.738847596688023,707.8363149000215,171,23,female,True
161,137.0,25,M,up,0.7649643000040669,0.3881448705258125,,psi_staircase,emotion,,119.94114864606824,119.94114864606824,18.860026842786485,709.3696130000171,171,23,female,True
162,136.0,25,F,up,0.7257182000030298,0.6113938783686246,,psi_staircase,emotion,,119.21806883350708,119.21806883350708,17.206137093213044,711.1028684000194,171,23,female,True
163,135.0,25,M,up,0.7001345000171568,1.9816523601650096,,psi_staircase,emotion,,118.67356890082858,118.67356890082858,15.811258091457784,714.1694343000127,171,23,female,True
164,134.0,25,F,up,0.5992550000082701,1.751812423914075,,psi_staircase,emotion,,118.25983900222704,118.25983900222704,14.641516169188872,716.969327800005,171,23,female,True
165,133.0,25,M,up,0.5966859000036493,1.229196745044751,,psi_staircase,emotion,,117.93972862857832,117.93972862857832,13.660384764476571,719.1528986000048,171,23,female,True
166,132.0,25,F,up,0.6004498000256717,1.46567963925019,,psi_staircase,emotion,,117.6854081324604,117.6854081324604,12.833501544470488,721.5691592000076,171,23,female,True
167,104.0,25,M,up,0.4992198999971151,1.6303044946307337,,psi_staircase,emotion,,117.47648771212724,117.47648771212724,12.130929457377682,724.1523950000119,171,23,female,True
168,98.0,25,F,down,0.8350026999833062,1.420084485843417,,psi_staircase,emotion,,116.13387145166888,116.13387145166888,16.32406681857212,726.435595500021,171,23,female,True
169,99.0,25,M,down,0.7290908000140917,1.8096553142578689,,psi_staircase,emotion,,116.40707244974114,116.40707244974114,15.452633672896988,729.4355139000108,171,23,female,True
170,133.0,25,M,up,0.4701262000016868,0.654685504784883,,psi_staircase,emotion,,116.63219374238422,116.63219374238422,14.699953666787223,731.1854830000084,171,23,female,True
171,100.0,25,F,down,0.7578559999819845,1.1163068459593195,,psi_staircase,emotion,,116.42506990103614,116.42506990103614,14.03237923713605,733.1187123000273,171,23,female,True
172,132.0,25,F,up,0.793336000002455,1.026077452656,,psi_staircase,emotion,,116.6160233430074,116.6160233430074,13.441372574532863,735.2352933000075,171,23,female,True
173,102.0,25,F,down,0.695684899983462,0.5303087487329361,,psi_staircase,emotion,,116.43392774092952,116.43392774092952,12.913608107200233,736.9019307000272,171,23,female,True
174,131.0,25,M,up,0.6691247999842744,1.816564190654996,,psi_staircase,emotion,,116.61800806415476,116.61800806415476,12.431407678466062,739.7684908000228,171,23,female,True
175,103.0,25,M,down,0.8842053999833297,1.088077371227214,,psi_staircase,emotion,,116.45197463022504,116.45197463022504,12.007309736075278,741.8684137000237,171,23,female,True
176,129.0,25,F,up,1.1289373000035994,1.6494115809141094,,psi_staircase,emotion,,116.6213016188683,116.6213016188683,11.616476807341543,744.7516262000136,171,23,female,True
177,104.0,25,F,down,0.8148051000025589,1.8023159819769277,,psi_staircase,emotion,,116.44784562422362,116.44784562422362,11.256529146168338,748.034822000016,171,23,female,True
178,128.0,25,F,up,0.7255064999917522,1.0706847762643574,,psi_staircase,emotion,,116.60876271346535,116.60876271346535,10.930497868158096,750.2680958000128,171,23,female,True
179,105.0,25,M,up,0.9459228000196164,1.234841891127,,psi_staircase,emotion,,116.44064944978729,116.44064944978729,10.625417708185864,752.5846931000124,171,23,female,True
180,101.0,25,M,up,1.1537069999903906,1.23727228846876,,psi_staircase,emotion,,115.5167142836232,115.5167142836232,12.2713288399564,755.1179014000227,171,23,female,True
181,97.0,25,M,down,1.212480400019558,1.5990638177065066,,psi_staircase,emotion,,114.5038695385282,114.5038695385282,14.57623338563896,758.2011350000103,171,23,female,True
182,0.428416951556327,25,down,down,0.7335114000015892,1.339434554376976,,experiment,cRDM,0.0,,,,766.9340642000025,171,23,female,True
183,0.428416951556327,25,up,up,0.5122991000243928,1.9860514013786348,,experiment,cRDM,0.0,,,,769.9172805999988,171,23,female,True
184,0.428416951556327,25,down,down,0.4900500000221655,1.266469580974977,,experiment,cRDM,0.0,,,,771.9505674000247,171,23,female,True
185,0.428416951556327,25,up,up,0.473813099990366,1.8381565680302536,,experiment,cRDM,0.0,,,,774.5337890000083,171,23,female,True
186,0.428416951556327,25,down,down,0.638161399983801,0.4158186897074216,,experiment,cRDM,0.0,,,,775.7004170000146,171,23,female,True
187,0.428416951556327,25,down,up,0.2838351000100374,0.7346408850841293,,experiment,cRDM,0.0,,,,777.3336643000075,171,23,female,True
188,0.428416951556327,25,up,up,0.6352696000249125,1.6865820304846486,,experiment,cRDM,0.0,,,,779.7002692000242,171,23,female,True
189,0.428416951556327,25,down,down,0.7247969000018202,1.8195331662558467,,experiment,cRDM,0.0,,,,782.4168397000176,171,23,female,True
190,0.428416951556327,25,up,up,0.416905999998562,1.8575784483037936,,experiment,cRDM,0.0,,,,785.2667717000004,171,23,female,True
191,0.428416951556327,25,up,down,0.3838365999981761,1.8697004770437708,,experiment,cRDM,0.0,,,,787.8165879000153,171,23,female,True
192,0.428416951556327,25,down,down,0.5797383000026457,1.1613265657052785,,experiment,cRDM,0.0,,,,789.6498821999994,171,23,female,True
193,0.428416951556327,25,up,up,0.3999800999881699,1.0633883081514413,,experiment,cRDM,0.0,,,,791.5501601000142,171,23,female,True
194,0.428416951556327,25,up,up,0.6201937999867368,0.4371891411293099,,experiment,cRDM,0.0,,,,792.666454900027,171,23,female,True
195,0.428416951556327,25,up,down,1.323868899984518,0.3075925080864108,,experiment,cRDM,0.0,,,,793.8497275000263,171,23,female,True
196,0.428416951556327,25,down,down,0.9176560999767388,1.1872691419567354,,experiment,cRDM,0.0,,,,796.6329568000219,171,23,female,True
197,0.428416951556327,25,down,down,0.7167017000028864,1.270709683129615,,experiment,cRDM,0.0,,,,799.0828896000166,171,23,female,True
198,0.428416951556327,25,up,up,0.5651416000036988,1.0312137800757617,,experiment,cRDM,0.0,,,,801.0994696000125,171,23,female,True
199,0.428416951556327,25,up,up,0.5841309000097681,0.5849626210977051,,experiment,cRDM,0.0,,,,802.4994303000276,171,23,female,True
200,0.428416951556327,25,down,down,0.5302278000162914,1.7632228543630883,,experiment,cRDM,0.0,,,,805.0993036,171,23,female,True
201,0.428416951556327,25,down,down,0.8453419999859761,0.6652718547246204,,experiment,cRDM,0.0,,,,806.5492744000221,171,23,female,True
202,0.428416951556327,25,up,up,0.4430915999982971,1.077695448125477,,experiment,cRDM,0.0,,,,808.7325008000189,171,23,female,True
203,0.428416951556327,25,down,down,0.5541796000034083,0.998939148821734,,experiment,cRDM,0.0,,,,810.4324569000164,171,23,female,True
204,0.428416951556327,25,up,up,0.4421932999975979,0.5376861311532379,,experiment,cRDM,0.0,,,,811.7824177000148,171,23,female,True
205,0.428416951556327,25,down,down,0.4925221999874338,0.8057618734630663,,experiment,cRDM,0.0,,,,813.2990554000135,171,23,female,True
206,0.428416951556327,25,down,up,1.1019438999937847,1.1544719741926337,,experiment,cRDM,0.0,,,,815.2156360000081,171,23,female,True
207,0.428416951556327,25,up,up,0.5530430000217166,1.2245216480022767,,experiment,cRDM,0.0,,,,817.8155230000266,171,23,female,True
208,0.428416951556327,25,up,up,0.7210609999892768,0.6465001993958225,,experiment,cRDM,0.0,,,,819.2655200000154,171,23,female,True
209,0.428416951556327,25,down,down,0.6055441999924369,1.6415266927067245,,experiment,cRDM,0.0,,,,821.8820493000094,171,23,female,True
210,0.428416951556327,25,up,up,0.4999211000103969,0.5315513266557246,,experiment,cRDM,0.0,,,,823.29864980001,171,23,female,True
211,0.428416951556327,25,down,down,0.5226163000043016,0.6094726529079104,,experiment,cRDM,0.0,,,,824.6819581000018,171,23,female,True
212,0.428416951556327,25,up,up,0.611037499998929,1.4787961350821006,,experiment,cRDM,0.0,,,,826.9485053000099,171,23,female,True
213,0.428416951556327,25,down,down,0.9947945000021718,1.2182652855299032,,experiment,cRDM,0.0,,,,829.0317807000247,171,23,female,True
214,0.428416951556327,25,up,up,0.5858603999949992,0.7053122204210689,,experiment,cRDM,0.0,,,,830.981704100006,171,23,female,True
215,0.428416951556327,25,down,down,0.4642716999805998,1.3298974444036338,,experiment,cRDM,0.0,,,,833.1482981000154,171,23,female,True
216,0.428416951556327,25,up,up,0.7557336000027135,1.828671914743495,,experiment,cRDM,0.0,,,,835.7148604000104,171,23,female,True
217,0.428416951556327,25,down,down,1.0121469000005163,1.898823517290584,,experiment,cRDM,0.0,,,,838.6314424000157,171,23,female,True
218,0.428416951556327,25,up,up,0.5445577000209596,1.3927584075986483,,experiment,cRDM,0.0,,,,841.2980061999988,171,23,female,True
219,0.428416951556327,25,down,down,0.7139419000013731,1.3468814703152892,,experiment,cRDM,0.0,,,,843.4646192000073,171,23,female,True
220,0.428416951556327,25,up,up,0.6530567000154406,1.829667116872337,,experiment,cRDM,0.0,,,,846.2645207000023,171,23,female,True
221,0.428416951556327,25,down,down,0.7502587999915704,1.0340842418039395,,experiment,cRDM,0.0,,,,848.214414600021,171,23,female,True
222,0.428416951556327,25,down,down,0.728216399991652,1.5440426273574213,,experiment,cRDM,0.0,,,,850.7643644000054,171,23,female,True
223,0.428416951556327,25,up,up,0.6277261000068393,0.4700771244825969,,experiment,cRDM,0.0,,,,852.230939000001,171,23,female,True
224,0.428416951556327,25,down,down,0.491314799990505,0.9420561464654348,,experiment,cRDM,0.0,,,,854.0642036000208,171,23,female,True
225,0.428416951556327,25,up,up,1.017442000011215,1.0566191217342051,,experiment,cRDM,0.0,,,,855.8641238000127,171,23,female,True
226,0.428416951556327,25,up,up,0.5645174999954179,1.273825531639066,,experiment,cRDM,0.0,,,,858.4140474000014,171,23,female,True
227,0.428416951556327,25,down,down,0.5992885000014212,1.2646439984945448,,experiment,cRDM,0.0,,,,860.4972923000169,171,23,female,True
228,0.428416951556327,25,down,down,0.5186522999720182,1.6014263647300064,,experiment,cRDM,0.0,,,,862.9639105000242,171,23,female,True
229,0.428416951556327,25,up,up,0.6670996000175364,0.4769913118709812,,experiment,cRDM,0.0,,,,864.2304692000034,171,23,female,True
230,0.428416951556327,25,down,down,0.6304548000043724,0.3745660819518631,,experiment,cRDM,0.0,,,,865.5471102000156,171,23,female,True
231,0.428416951556327,25,up,up,0.5648197999980766,0.5220716723558771,,experiment,cRDM,0.0,,,,866.9637736000004,171,23,female,True
232,0.428416951556327,25,up,up,0.7709715999953914,1.712967207762169,,experiment,cRDM,0.0,,,,869.513609400019,171,23,female,True
233,0.428416951556327,25,up,up,0.6876621000119485,1.994390364143531,,experiment,cRDM,0.0,,,,872.546897400025,171,23,female,True
234,0.428416951556327,25,up,up,1.2488002000027336,1.7615958109601806,,experiment,cRDM,0.0,,,,875.2467844000203,171,23,female,True
235,0.428416951556327,25,up,up,0.5502801999973599,1.7635562420867188,,experiment,cRDM,0.0,,,,878.5132833000098,171,23,female,True
236,0.428416951556327,25,down,down,0.9543802000116556,0.3289768923375758,,experiment,cRDM,0.0,,,,879.6632481999986,171,23,female,True
237,0.428416951556327,25,down,down,1.013727099983953,1.1071651608541768,,experiment,cRDM,0.0,,,,881.97983690002,171,23,female,True
238,0.428416951556327,25,down,down,0.9908226999978068,1.3329571823280766,,experiment,cRDM,0.0,,,,884.5797402000171,171,23,female,True
239,0.428416951556327,25,up,up,0.7799127000034787,1.252683653905179,,experiment,cRDM,0.0,,,,887.0796487000189,171,23,female,True
240,0.428416951556327,25,down,down,0.437990099977469,0.8642828552324393,,experiment,cRDM,0.0,,,,888.9795767000178,171,23,female,True
241,0.428416951556327,25,down,up,0.6235010999953374,0.4151587484373495,,experiment,cRDM,0.0,,,,890.0962177000183,171,23,female,True
242,0.428416951556327,25,down,down,0.8187669000180904,1.2803076912564209,,experiment,cRDM,0.0,,,,892.2627855000028,171,23,female,True
243,0.428416951556327,25,up,up,0.4908585999801289,1.728142869650609,,experiment,cRDM,0.0,,,,895.0627017000224,171,23,female,True
244,0.428416951556327,25,down,down,0.9482873999804724,0.413094951166286,,experiment,cRDM,0.0,,,,896.2292709000176,171,23,female,True
245,0.428416951556327,25,up,up,0.6236138999811374,0.902136059036438,,experiment,cRDM,0.0,,,,898.3459423000168,171,23,female,True
246,0.428416951556327,25,up,up,0.8443904000159819,0.792521351668108,,experiment,cRDM,0.0,,,,900.0291679000075,171,23,female,True
247,0.428416951556327,25,down,down,0.6655015999858733,0.8936422242652144,,experiment,cRDM,0.0,,,,902.0290810000153,171,23,female,True
248,0.428416951556327,25,up,up,0.5079114000254776,1.9789233723038584,,experiment,cRDM,0.0,,,,904.9457018000248,171,23,female,True
249,0.428416951556327,25,down,down,0.4459133999771438,0.8233576190543421,,experiment,cRDM,0.0,,,,906.5456431000202,171,23,female,True
250,0.428416951556327,25,up,up,1.1330696999793872,1.2450989503329497,,experiment,cRDM,0.0,,,,908.4955229000188,171,23,female,True
251,0.428416951556327,25,down,down,0.5784742999821901,1.1103494460742855,,experiment,cRDM,0.0,,,,911.012081200024,171,23,female,True
252,0.428416951556327,25,up,up,0.4471735999977682,1.388192777692708,,experiment,cRDM,0.0,,,,913.2453867000004,171,23,female,True
253,0.428416951556327,25,down,down,0.5979654999973718,1.9285446175861949,,experiment,cRDM,0.0,,,,915.878583600017,171,23,female,True
254,0.428416951556327,25,down,down,0.8063266999961343,0.9003574222310387,,experiment,cRDM,0.0,,,,917.6452165000082,171,23,female,True
255,0.428416951556327,25,down,down,1.4654331000056118,0.5360768608565198,,experiment,cRDM,0.0,,,,919.245153100026,171,23,female,True
256,0.428416951556327,25,down,down,0.9984861999982968,0.5793469145201702,,experiment,cRDM,0.0,,,,921.5450892000226,171,23,female,True
257,0.428416951556327,25,down,down,1.6979692000022624,0.93082028572824,,experiment,cRDM,0.0,,,,923.7286181000236,171,23,female,True
258,0.428416951556327,25,up,up,0.8156595000182278,0.5626783798785191,,experiment,cRDM,0.0,,,,926.2448857999988,171,23,female,True
259,0.428416951556327,25,up,down,1.936794799985364,1.966863796977993,,experiment,cRDM,0.0,,,,929.2947594000144,171,23,female,True
260,0.428416951556327,25,up,up,0.7179661999980453,1.9950901444683944,,experiment,cRDM,0.0,,,,933.4946130000172,171,23,female,True
261,0.428416951556327,25,up,up,0.6990305999934208,1.3164363229501332,,experiment,cRDM,0.0,,,,935.794534100016,171,23,female,True
262,120.0,25,M,down,1.735789800004568,0.5895680878706635,,experiment,emotion,0.0,,,,940.4777527000116,171,23,female,True
263,109.0,25,M,down,0.8899202000175137,0.3364761488372175,,experiment,emotion,0.0,,,,942.8276519000063,171,23,female,True
264,116.0,25,F,down,1.0019614000048025,0.6581613166151026,,experiment,emotion,0.0,,,,944.6775919000212,171,23,female,True
265,120.0,25,F,down,1.1493863000068814,1.553719141682932,,experiment,emotion,0.0,,,,947.4941652000124,171,23,female,True
266,116.0,25,M,down,0.7934669000096619,0.7334895620268884,,experiment,emotion,0.0,,,,949.644087200024,171,23,female,True
267,112.0,25,F,down,0.9215573999972548,1.3801663320439732,,experiment,emotion,0.0,,,,952.0939913000038,171,23,female,True
268,109.0,25,M,down,0.7573947999917436,1.2275372700898757,,experiment,emotion,0.0,,,,954.5271469000144,171,23,female,True
269,112.0,25,M,down,0.6814203999820165,1.5182346070176402,,experiment,emotion,0.0,,,,957.077130700025,171,23,female,True
270,120.0,25,F,down,0.7075337000133004,1.7521661778822508,,experiment,emotion,0.0,,,,959.7770348000048,171,23,female,True
271,112.0,25,F,down,0.6852255999983754,0.7995979927605315,,experiment,emotion,0.0,,,,961.5603254000016,171,23,female,True
272,116.0,25,F,down,0.4943662000005133,1.5346613150804986,,experiment,emotion,0.0,,,,964.0602230000076,171,23,female,True
273,120.0,25,F,down,0.5087906999979168,1.208876317660334,,experiment,emotion,0.0,,,,966.026792700024,171,23,female,True
274,116.0,25,F,down,0.3168418999994173,1.86463776473084,,experiment,emotion,0.0,,,,968.6767081000144,171,23,female,True
275,109.0,25,F,down,0.5532931999769062,1.6557116277945747,,experiment,emotion,0.0,,,,971.0432548000244,171,23,female,True
276,112.0,25,M,up,0.960129399987636,1.5569912349044468,,experiment,emotion,0.0,,,,973.426502700022,171,23,female,True
277,109.0,25,M,down,0.9014492999995128,0.8985010513282881,,experiment,emotion,0.0,,,,975.543139800022,171,23,female,True
278,120.0,25,M,down,0.7701570999925025,0.5114888637992079,,experiment,emotion,0.0,,,,977.2263775000174,171,23,female,True
279,109.0,25,M,down,1.1397095000138506,0.6250760954354211,,experiment,emotion,0.0,,,,978.893026500009,171,23,female,True
280,116.0,25,F,down,0.7186521000112407,1.275187466399752,,experiment,emotion,0.0,,,,981.5929079000198,171,23,female,True
281,116.0,25,M,down,0.6543812000018079,0.9449143666101498,,experiment,emotion,0.0,,,,983.5261771000224,171,23,female,True
282,112.0,25,M,down,0.6688012000231538,1.0027535152750235,,experiment,emotion,0.0,,,,985.4427523000048,171,23,female,True
283,112.0,25,F,down,0.712879900005646,1.5465061192448477,,experiment,emotion,0.0,,,,987.9426687000088,171,23,female,True
284,109.0,25,M,down,0.6299384000012651,0.6645443741260939,,experiment,emotion,0.0,,,,989.5925844000012,171,23,female,True
285,120.0,25,F,down,0.6916672000079416,0.6164709889348483,,experiment,emotion,0.0,,,,991.1258763000078,171,23,female,True
286,116.0,25,F,down,1.543807799986098,1.9409202397144747,,experiment,emotion,0.0,,,,994.0257597000164,171,23,female,True
287,109.0,25,M,down,1.1272075999877416,1.0594755184274758,,experiment,emotion,0.0,,,,996.8923396000172,171,23,female,True
288,120.0,25,M,down,1.732987099996535,0.8304646911997873,,experiment,emotion,0.0,,,,999.125559600012,171,23,female,True
289,120.0,25,F,down,0.6317335999920033,1.393316665332378,,experiment,emotion,0.0,,,,1002.5088060999988,171,23,female,True
290,112.0,25,M,down,1.4328108000045177,0.9342045059104512,,experiment,emotion,0.0,,,,1004.3587337000064,171,23,female,True
291,109.0,25,F,down,1.1172646000050008,1.2101098710307998,,experiment,emotion,0.0,,,,1007.2752972000162,171,23,female,True
292,112.0,25,F,down,1.0869462999980897,0.4833266241184883,,experiment,emotion,0.0,,,,1009.158599700022,171,23,female,True
293,116.0,25,F,down,1.2984118000022136,0.7097144195205396,,experiment,emotion,0.0,,,,1011.2251345000112,171,23,female,True
294,109.0,25,M,down,1.1497842999815475,0.6995206070862853,,experiment,emotion,0.0,,,,1013.4917546000216,171,23,female,True
295,120.0,25,M,down,1.116013999999268,1.2354940155915797,,experiment,emotion,0.0,,,,1016.1415977000142,171,23,female,True
296,116.0,25,M,down,1.2636721000017133,0.506308646680881,,experiment,emotion,0.0,,,,1018.0248693000176,171,23,female,True
297,120.0,25,F,down,1.211777099990286,0.6623905122203249,,experiment,emotion,0.0,,,,1020.2247964999988,171,23,female,True
298,109.0,25,F,down,0.6548554000037257,1.201656921695037,,experiment,emotion,0.0,,,,1022.9246881,171,23,female,True
299,116.0,25,M,down,1.1499312000232749,0.8743439788459322,,experiment,emotion,0.0,,,,1024.7246286000009,171,23,female,True
300,112.0,25,F,down,1.1188351000018883,1.4558688869661238,,experiment,emotion,0.0,,,,1027.6078702000086,171,23,female,True
301,112.0,25,M,down,1.094137200008845,1.528121446634454,,experiment,emotion,0.0,,,,1030.5244174000109,171,23,female,True
302,116.0,25,M,down,0.9332201999786776,1.875667544769678,,experiment,emotion,0.0,,,,1033.774320100027,171,23,female,True
303,120.0,25,M,down,1.3096748999960257,1.3984002269314022,,experiment,emotion,0.0,,,,1036.3908764000223,171,23,female,True
304,112.0,25,F,down,0.9487648000067566,0.6812123007926967,,experiment,emotion,0.0,,,,1038.64076390001,171,23,female,True
305,109.0,25,F,down,0.7901631999993697,1.1418566272911377,,experiment,emotion,0.0,,,,1041.007398600021,171,23,female,True
306,109.0,25,M,down,0.648955799988471,1.2669421348712473,,experiment,emotion,0.0,,,,1043.340565600025,171,23,female,True
307,112.0,25,F,down,1.0306545999774244,0.5230756348020964,,experiment,emotion,0.0,,,,1044.773914600024,171,23,female,True
308,120.0,25,F,up,1.777096600009827,1.070992312119481,,experiment,emotion,0.0,,,,1047.1404345000046,171,23,female,True
309,116.0,25,M,down,1.4055225999909453,1.800552303448424,,experiment,emotion,0.0,,,,1051.0070020000276,171,23,female,True
310,109.0,25,M,down,0.8376700000080746,1.3154144809857924,,experiment,emotion,0.0,,,,1054.0069043000112,171,23,female,True
311,120.0,25,F,down,1.1203477999952156,0.3567772556840634,,experiment,emotion,0.0,,,,1055.4901913000213,171,23,female,True
312,116.0,25,M,up,2.191740399983246,1.077212822412692,,experiment,emotion,0.0,,,,1057.95676250002,171,23,female,True
313,116.0,25,F,down,1.0546104999957606,1.1106241734167144,,experiment,emotion,0.0,,,,1061.5399384000048,171,23,female,True
314,109.0,25,F,down,1.040355900011491,1.465920884705508,,experiment,emotion,0.0,,,,1064.3231650000089,171,23,female,True
315,112.0,25,F,down,1.690118300000904,1.1537854982320324,,experiment,emotion,0.0,,,,1066.806436200015,171,23,female,True
316,120.0,25,M,up,1.8382413999934213,0.9269559037474022,,experiment,emotion,0.0,,,,1069.7063301000162,171,23,female,True
317,112.0,25,M,down,1.0476492999878246,0.3663597981500726,,experiment,emotion,0.0,,,,1072.1728953000274,171,23,female,True
318,112.0,25,F,down,0.9293720000132452,0.5054022510227199,,experiment,emotion,0.0,,,,1074.006163300015,171,23,female,True
319,112.0,25,F,down,0.9394254999933764,0.7052769202388691,,experiment,emotion,0.0,,,,1075.9061050000018,171,23,female,True
320,120.0,25,M,up,0.9368842999974732,1.158940138337916,,experiment,emotion,0.0,,,,1078.272676200024,171,23,female,True
321,116.0,25,M,down,0.6815816999878734,0.7464859125448084,,experiment,emotion,0.0,,,,1080.2559534000177,171,23,female,True
322,109.0,25,M,down,0.9223675999965052,1.5591370998385723,,experiment,emotion,0.0,,,,1082.789180899999,171,23,female,True
323,109.0,25,M,down,1.062739099987084,0.3237655330356969,,experiment,emotion,0.0,,,,1084.305795500026,171,23,female,True
324,116.0,25,M,down,1.170232800010126,1.7389318670652247,,experiment,emotion,0.0,,,,1087.3723390000232,171,23,female,True
325,120.0,25,F,down,1.241260200011311,1.2123220220139816,,experiment,emotion,0.0,,,,1090.022269100009,171,23,female,True
326,120.0,25,F,down,0.9171270999941044,1.274866590794084,,experiment,emotion,0.0,,,,1092.8054511000228,171,23,female,True
327,109.0,25,M,down,1.084802800003672,1.0857697410788858,,experiment,emotion,0.0,,,,1095.0887302000192,171,23,female,True
328,120.0,25,F,down,0.869957599992631,1.9481620293638569,,experiment,emotion,0.0,,,,1098.3886099000229,171,23,female,True
329,112.0,25,F,down,1.1256981999904383,1.6928776943772927,,experiment,emotion,0.0,,,,1101.2218304999988,171,23,female,True
330,116.0,25,F,down,0.8626981000124943,0.7342036653019339,,experiment,emotion,0.0,,,,1103.3717444000067,171,23,female,True
331,112.0,25,M,up,1.3948659999878146,0.5213180321566857,,experiment,emotion,0.0,,,,1105.0216672000242,171,23,female,True
332,109.0,25,F,down,0.99906010000268,1.5338244758434807,,experiment,emotion,0.0,,,,1108.2215558000023,171,23,female,True
333,116.0,25,F,down,1.9346818999911195,0.606854705276338,,experiment,emotion,0.0,,,,1110.104851800017,171,23,female,True
334,112.0,25,F,down,1.3727924000122584,0.3551452553997645,,experiment,emotion,0.0,,,,1112.6547371000051,171,23,female,True
335,116.0,25,M,down,0.884942200005753,1.9989134323652231,,experiment,emotion,0.0,,,,1116.3045837000243,171,23,female,True
336,109.0,25,M,down,0.9616733000148088,1.3100561751968332,,experiment,emotion,0.0,,,,1118.7878530000162,171,23,female,True
337,120.0,25,F,down,0.7934352000011131,1.5492371161713017,,experiment,emotion,0.0,,,,1121.5710824000123,171,23,female,True
338,116.0,25,M,down,1.7458566000277642,0.3009831565486158,,experiment,emotion,0.0,,,,1122.9377029000025,171,23,female,True
339,120.0,25,F,down,1.055610399984289,0.5609279001951408,,experiment,emotion,0.0,,,,1125.5209296000248,171,23,female,True
340,109.0,25,M,down,0.8603787000174634,1.6613260234100728,,experiment,emotion,0.0,,,,1128.5041513000033,171,23,female,True
341,112.0,25,M,down,0.8524783999891952,1.4490504325429063,,experiment,emotion,0.0,,,,1131.1040460000222,171,23,female,True
342,0.428416951556327,25,up,up,0.8790780999988783,1.864641491849939,,experiment,cRDM,1.0,,,,1138.020460300002,171,23,female,True
343,0.428416951556327,25,up,up,0.6029529999941587,1.941212096270494,,experiment,cRDM,1.0,,,,1141.1035919999997,171,23,female,True
344,0.428416951556327,25,down,down,0.6096640999894589,0.9279968866757756,,experiment,cRDM,1.0,,,,1142.8868850000144,171,23,female,True
345,0.428416951556327,25,down,down,0.9946457000041846,0.8140547374440794,,experiment,cRDM,1.0,,,,1144.5868389000243,171,23,female,True
346,0.428416951556327,25,up,up,0.8967743999965023,1.7374152156928675,,experiment,cRDM,1.0,,,,1147.5867269000155,171,23,female,True
347,0.428416951556327,25,down,down,0.4855552999943029,1.4236899797416482,,experiment,cRDM,1.0,,,,1150.1699627000198,171,23,female,True
348,0.428416951556327,25,up,up,0.4987039999978151,0.9542497091813285,,experiment,cRDM,1.0,,,,1151.8699075000186,171,23,female,True
349,0.428416951556327,25,up,up,0.9649753000121564,0.3070942507601752,,experiment,cRDM,1.0,,,,1152.9365671000269,171,23,female,True
350,0.428416951556327,25,down,down,0.7374390000186395,1.1536553349791898,,experiment,cRDM,1.0,,,,1155.320079700003,171,23,female,True
351,0.428416951556327,25,down,up,0.8361201999941841,0.5715456639280765,,experiment,cRDM,1.0,,,,1156.8863883000158,171,23,female,True
352,0.428416951556327,25,down,down,0.5365450000099372,0.6592701550345158,,experiment,cRDM,1.0,,,,1158.6529787000036,171,23,female,True
353,0.428416951556327,25,down,down,0.9165833999868482,0.5105462200645022,,experiment,cRDM,1.0,,,,1159.95293270002,171,23,female,True
354,0.428416951556327,25,down,down,0.6217296000104398,1.2759000057627232,,experiment,cRDM,1.0,,,,1162.402813699999,171,23,female,True
355,0.428416951556327,25,down,down,0.6874121000000741,1.2870511181820228,,experiment,cRDM,1.0,,,,1164.586105499999,171,23,female,True
356,0.428416951556327,25,up,up,0.6471645999990869,1.0372611006533408,,experiment,cRDM,1.0,,,,1166.5693593000178,171,23,female,True
357,0.428416951556327,25,up,up,1.6009314999973867,0.4200495224842691,,experiment,cRDM,1.0,,,,1167.902632500016,171,23,female,True
358,0.428416951556327,25,up,up,0.6673166000109632,0.3670438840008398,,experiment,cRDM,1.0,,,,1170.1192050000243,171,23,female,True
359,0.428416951556327,25,up,up,0.6416664000134915,1.2882272886646784,,experiment,cRDM,1.0,,,,1172.335850100004,171,23,female,True
360,0.428416951556327,25,down,down,0.5678044000233058,1.7878063368734702,,experiment,cRDM,1.0,,,,1175.0357327000238,171,23,female,True
361,0.428416951556327,25,up,up,0.4982216999924276,0.5367932238779624,,experiment,cRDM,1.0,,,,1176.4023106000095,171,23,female,True
362,0.428416951556327,25,up,up,0.6278726999880746,0.3724236959536164,,experiment,cRDM,1.0,,,,1177.5356478000176,171,23,female,True
363,0.428416951556327,25,down,down,0.6346345999918412,0.5564108080703742,,experiment,cRDM,1.0,,,,1178.9688928000105,171,23,female,True
364,0.428416951556327,25,up,up,0.5124142999993637,1.9349296941480767,,experiment,cRDM,1.0,,,,1181.8021015000122,171,23,female,True
365,0.428416951556327,25,down,down,0.4687881999998353,1.029564462454223,,experiment,cRDM,1.0,,,,1183.618725200009,171,23,female,True
366,0.428416951556327,25,down,down,0.6072640999918804,1.634607715389044,,experiment,cRDM,1.0,,,,1185.985290200013,171,23,female,True
367,0.428416951556327,25,up,up,0.4466533999948296,1.4464158893373067,,experiment,cRDM,1.0,,,,1188.3018606000114,171,23,female,True
368,0.428416951556327,25,up,up,0.4737618000071961,1.6920175348384314,,experiment,cRDM,1.0,,,,1190.7017840000044,171,23,female,True
369,0.428416951556327,25,down,down,0.5991859000059776,0.9787096757955304,,experiment,cRDM,1.0,,,,1192.418403800024,171,23,female,True
370,0.428416951556327,25,up,up,0.5109270999964792,1.4214835815657234,,experiment,cRDM,1.0,,,,1194.701636200014,171,23,female,True
371,0.428416951556327,25,down,down,0.4002816999854985,0.3471601009672331,,experiment,cRDM,1.0,,,,1195.8182772000146,171,23,female,True
372,0.428416951556327,25,down,down,0.8213044999865815,0.8145093722798689,,experiment,cRDM,1.0,,,,1197.318219400011,171,23,female,True
373,0.428416951556327,25,down,down,0.8033811000059359,0.3177769816022456,,experiment,cRDM,1.0,,,,1198.7181781000108,171,23,female,True
374,0.428416951556327,25,up,up,0.5911369000095874,1.7819646919325205,,experiment,cRDM,1.0,,,,1201.5513753000123,171,23,female,True
375,0.428416951556327,25,up,up,1.0152076000231318,1.1455661672603543,,experiment,cRDM,1.0,,,,1203.5513309000237,171,23,female,True
376,0.428416951556327,25,up,up,0.4427223000093363,1.796538259250965,,experiment,cRDM,1.0,,,,1206.6177928000106,171,23,female,True
377,0.428416951556327,25,down,down,0.6120648999931291,1.037914440891819,,experiment,cRDM,1.0,,,,1208.384453400009,171,23,female,True
378,0.428416951556327,25,down,up,0.7287843000085559,0.7066196572268063,,experiment,cRDM,1.0,,,,1209.9677577000111,171,23,female,True
379,0.428416951556327,25,up,up,0.7678392000088934,1.558173070704877,,experiment,cRDM,1.0,,,,1212.517651800008,171,23,female,True
380,0.428416951556327,25,down,down,0.483269200020004,1.0354779899646571,,experiment,cRDM,1.0,,,,1214.5842475000245,171,23,female,True
381,0.428416951556327,25,up,up,0.3505010000080801,1.0843381812425448,,experiment,cRDM,1.0,,,,1216.4174768000084,171,23,female,True
382,0.428416951556327,25,up,up,0.6217172000033315,1.1946146321788058,,experiment,cRDM,1.0,,,,1218.3007660000003,171,23,female,True
383,0.428416951556327,25,up,up,0.4731896000157576,1.532640631055091,,experiment,cRDM,1.0,,,,1220.717379400012,171,23,female,True
384,0.428416951556327,25,down,down,0.6152325000148267,0.9260101531409852,,experiment,cRDM,1.0,,,,1222.3672985000012,171,23,female,True
385,0.428416951556327,25,down,down,0.5892855999991298,1.2794529170119242,,experiment,cRDM,1.0,,,,1224.5172211000172,171,23,female,True
386,0.428416951556327,25,up,up,0.4854406999947969,1.3372297507587771,,experiment,cRDM,1.0,,,,1226.717116600019,171,23,female,True
387,0.428416951556327,25,down,up,1.4477347999927588,0.3723485650210821,,experiment,cRDM,1.0,,,,1227.8338066000142,171,23,female,True
388,0.428416951556327,25,down,down,0.5618702000065241,1.0525855693812836,,experiment,cRDM,1.0,,,,1230.5836647000106,171,23,female,True
389,0.428416951556327,25,up,up,0.6582517999922857,0.7988135193376489,,experiment,cRDM,1.0,,,,1232.2002555000072,171,23,female,True
390,0.428416951556327,25,up,up,0.7126608999969903,0.7394272239720621,,experiment,cRDM,1.0,,,,1233.866865100019,171,23,female,True
391,0.428416951556327,25,down,down,0.7920379999850411,0.9791468913269668,,experiment,cRDM,1.0,,,,1235.833508300013,171,23,female,True
392,0.428416951556327,25,up,up,0.4002576000057161,1.7050222539690587,,experiment,cRDM,1.0,,,,1238.583352000016,171,23,female,True
393,0.428416951556327,25,down,down,0.3671105000248644,1.9372928375783756,,experiment,cRDM,1.0,,,,1241.216624200024,171,23,female,True
394,0.428416951556327,25,down,up,0.9952860999910628,0.6014368813896325,,experiment,cRDM,1.0,,,,1242.483230100013,171,23,female,True
395,0.428416951556327,25,down,down,0.6627003999892622,0.8652097284343951,,experiment,cRDM,1.0,,,,1244.5998061000137,171,23,female,True
396,0.428416951556327,25,up,up,0.4538035999867134,0.8683713151967754,,experiment,cRDM,1.0,,,,1246.399735700019,171,23,female,True
397,0.428416951556327,25,up,up,0.6181925999990199,1.248944810151797,,experiment,cRDM,1.0,,,,1248.3663520000118,171,23,female,True
398,0.428416951556327,25,down,down,0.5156258000060916,1.9821448383298117,,experiment,cRDM,1.0,,,,1251.2329245000146,171,23,female,True
399,0.428416951556327,25,down,down,0.7143398000043817,0.9098898764259484,,experiment,cRDM,1.0,,,,1252.9161655000062,171,23,female,True
400,0.428416951556327,25,up,up,0.590444799978286,1.6724287758642955,,experiment,cRDM,1.0,,,,1255.5660653000232,171,23,female,True
401,0.428416951556327,25,up,up,0.6241849999933038,1.0890031376079978,,experiment,cRDM,1.0,,,,1257.4993258000177,171,23,female,True
402,0.428416951556327,25,up,up,1.3062138000095729,1.2470397894627234,,experiment,cRDM,1.0,,,,1259.6492994000146,171,23,female,True
403,0.428416951556327,25,up,up,0.5029586000018753,0.5028541160892328,,experiment,cRDM,1.0,,,,1261.7325531000097,171,23,female,True
404,0.428416951556327,25,up,up,0.5440407999849413,1.731396713953942,,experiment,cRDM,1.0,,,,1264.2324578000116,171,23,female,True
405,0.428416951556327,25,down,down,0.5625432999804616,0.9027206021902928,,experiment,cRDM,1.0,,,,1265.9490218000135,171,23,female,True
406,0.428416951556327,25,down,down,1.162640399998054,0.5508275119718002,,experiment,cRDM,1.0,,,,1267.3159275000216,171,23,female,True
407,0.428416951556327,25,up,up,0.4356166000070516,0.4621113313533476,,experiment,cRDM,1.0,,,,1269.1988945000048,171,23,female,True
408,0.428416951556327,25,down,down,0.4720605000038631,1.1104446681855191,,experiment,cRDM,1.0,,,,1271.015477600013,171,23,female,True
409,0.428416951556327,25,down,down,0.4508083000255283,1.759305222858951,,experiment,cRDM,1.0,,,,1273.4987187000224,171,23,female,True
410,0.428416951556327,25,down,down,0.6924876999983098,1.2578995983690338,,experiment,cRDM,1.0,,,,1275.4820116000192,171,23,female,True
411,0.428416951556327,25,up,up,0.437892699992517,1.3159843192253409,,experiment,cRDM,1.0,,,,1277.748591200012,171,23,female,True
412,0.428416951556327,25,down,down,0.4533518000098411,1.6213216916845248,,experiment,cRDM,1.0,,,,1280.0651600000274,171,23,female,True
413,0.428416951556327,25,down,down,0.4169794000044931,1.957741201134004,,experiment,cRDM,1.0,,,,1282.7317784000188,171,23,female,True
414,0.428416951556327,25,down,down,0.5538455999922007,1.9782195761109889,,experiment,cRDM,1.0,,,,1285.3816417000198,171,23,female,True
415,0.428416951556327,25,up,up,0.7099088999966625,0.5867536377670751,,experiment,cRDM,1.0,,,,1286.7815904000015,171,23,female,True
416,0.428416951556327,25,up,up,0.6044266000099014,1.7967160238650548,,experiment,cRDM,1.0,,,,1289.5481370000052,171,23,female,True
417,0.428416951556327,25,down,down,0.621772599988617,0.3535553753891495,,experiment,cRDM,1.0,,,,1290.764789800014,171,23,female,True
418,0.428416951556327,25,up,up,0.540153600013582,1.7346189213103462,,experiment,cRDM,1.0,,,,1293.381349000003,171,23,female,True
419,0.428416951556327,25,down,down,0.4698521999816876,0.6371771303027,,experiment,cRDM,1.0,,,,1294.8146349000162,171,23,female,True
420,0.428416951556327,25,up,up,0.3339098999858834,1.311109370346116,,experiment,cRDM,1.0,,,,1296.84788440002,171,23,female,True
421,0.428416951556327,25,up,down,0.3505072999978438,0.8472100576296406,,experiment,cRDM,1.0,,,,1298.3644977000076,171,23,female,True
422,120.0,25,M,down,1.2647624000092037,0.5251992537459758,,experiment,emotion,1.0,,,,1302.747731600015,171,23,female,True
423,109.0,25,M,down,0.6915271000179928,1.6049626425538872,,experiment,emotion,1.0,,,,1305.88096770001,171,23,female,True
424,116.0,25,F,down,0.6272629000013694,1.1175954035030504,,experiment,emotion,1.0,,,,1307.964213500003,171,23,female,True
425,120.0,25,F,down,0.7220273000129964,1.1917872120068125,,experiment,emotion,1.0,,,,1310.047490500001,171,23,female,True
426,116.0,25,M,down,1.4894144000136291,0.3326582317126565,,experiment,emotion,1.0,,,,1311.3640935000149,171,23,female,True
427,112.0,25,F,down,0.9515162000025156,1.233297127828746,,experiment,emotion,1.0,,,,1314.3639807,171,23,female,True
428,109.0,25,M,down,0.7423200999910478,1.468329080069091,,experiment,emotion,1.0,,,,1317.0472094000145,171,23,female,True
429,112.0,25,M,down,0.4363861999881919,1.175918027708943,,experiment,emotion,1.0,,,,1319.2471362000215,171,23,female,True
430,120.0,25,F,down,0.4170111999846995,1.264093690371771,,experiment,emotion,1.0,,,,1321.2137078000233,171,23,female,True
431,112.0,25,F,down,0.5838234999973793,0.9724345509133964,,experiment,emotion,1.0,,,,1322.863676000008,171,23,female,True
432,116.0,25,F,down,0.6962644000013825,1.2867227742753375,,experiment,emotion,1.0,,,,1325.0302472000185,171,23,female,True
433,120.0,25,F,down,0.6713190000155009,1.2300307343533634,,experiment,emotion,1.0,,,,1327.2301829000062,171,23,female,True
434,116.0,25,F,down,0.7743629000033252,0.9519740266961674,,experiment,emotion,1.0,,,,1329.1301090000195,171,23,female,True
435,109.0,25,F,down,0.5951468000130262,1.7719366610777063,,experiment,emotion,1.0,,,,1331.963334800006,171,23,female,True
436,112.0,25,M,down,0.5382833999756258,1.232300403619522,,experiment,emotion,1.0,,,,1334.0632418000023,171,23,female,True
437,109.0,25,M,down,0.5789747999806423,0.624730694279604,,experiment,emotion,1.0,,,,1335.496532500023,171,23,female,True
438,120.0,25,M,down,0.5427350999962073,1.1831395012023076,,experiment,emotion,1.0,,,,1337.5297789000033,171,23,female,True
439,109.0,25,M,down,0.6534271000127774,1.2695796853490195,,experiment,emotion,1.0,,,,1339.6130619000178,171,23,female,True
440,116.0,25,F,down,1.1488618000003044,1.2361093861111516,,experiment,emotion,1.0,,,,1341.7796297000025,171,23,female,True
441,116.0,25,M,down,0.7809674000018276,1.7449400641201904,,experiment,emotion,1.0,,,,1344.9295332000183,171,23,female,True
442,112.0,25,M,up,1.48003940001945,0.8926909528713953,,experiment,emotion,1.0,,,,1346.8794352000114,171,23,female,True
443,112.0,25,F,down,0.7051445000106469,0.7015086027567294,,experiment,emotion,1.0,,,,1349.3293528000067,171,23,female,True
444,109.0,25,M,down,1.9189207000017632,1.4584601782616924,,experiment,emotion,1.0,,,,1351.7626049000246,171,23,female,True
445,120.0,25,F,,,0.9517928080531564,,experiment,emotion,1.0,,,,1354.91249040002,171,23,female,True
446,116.0,25,F,down,0.5834506999817677,0.4652747759875056,,experiment,emotion,1.0,,,,1358.0790339000232,171,23,female,True
447,109.0,25,M,up,1.3842245999840088,1.065956571369619,,experiment,emotion,1.0,,,,1360.0122832000195,171,23,female,True
448,120.0,25,M,up,0.983024600020144,1.8146840606245895,,experiment,emotion,1.0,,,,1363.4954873000097,171,23,female,True
449,120.0,25,F,up,0.7807527999975719,1.6703875032998865,,experiment,emotion,1.0,,,,1366.4287377000146,171,23,female,True
450,112.0,25,M,up,1.436181500001112,1.4506780086790536,,experiment,emotion,1.0,,,,1368.945310500014,171,23,female,True
451,109.0,25,F,down,1.1136770999873988,1.7078714941420496,,experiment,emotion,1.0,,,,1372.3618475000258,171,23,female,True
452,112.0,25,F,down,1.2390791999932844,1.3864189548272474,,experiment,emotion,1.0,,,,1375.1284085000225,171,23,female,True
453,116.0,25,F,up,1.0288801999995485,1.7620389834176446,,experiment,emotion,1.0,,,,1378.4116084999987,171,23,female,True
454,109.0,25,M,down,1.1582917000050656,1.4047659488592537,,experiment,emotion,1.0,,,,1381.1281984000234,171,23,female,True
455,120.0,25,M,down,1.056769599992549,1.5782284939189832,,experiment,emotion,1.0,,,,1384.1447589000163,171,23,female,True
456,116.0,25,M,down,1.105847900005756,1.2858240246719357,,experiment,emotion,1.0,,,,1386.744642100006,171,23,female,True
457,120.0,25,F,down,1.515039699996123,1.3705713199452412,,experiment,emotion,1.0,,,,1389.4945427000057,171,23,female,True
458,109.0,25,F,down,0.7130307999905199,1.1640234216400558,,experiment,emotion,1.0,,,,1392.444444600027,171,23,female,True
459,116.0,25,M,down,0.7861804999993183,1.565588298023535,,experiment,emotion,1.0,,,,1394.9943285000045,171,23,female,True
460,112.0,25,F,down,0.6998750999919139,0.963652040722127,,experiment,emotion,1.0,,,,1397.0276086000083,171,23,female,True
461,112.0,25,M,down,0.6886590999783948,1.073601933566873,,experiment,emotion,1.0,,,,1399.0608594000223,171,23,female,True
462,116.0,25,M,down,0.7440528000006452,1.907834113636859,,experiment,emotion,1.0,,,,1401.927416999999,171,23,female,True
463,120.0,25,M,down,0.9267906000022776,0.4698031491158739,,experiment,emotion,1.0,,,,1403.410691600002,171,23,female,True
464,112.0,25,F,down,1.6125410000095144,1.988875220778708,,experiment,emotion,1.0,,,,1406.5938970000134,171,23,female,True
465,109.0,25,F,down,1.2644308999879286,1.987963698864282,,experiment,emotion,1.0,,,,1410.4771151000168,171,23,female,True
466,109.0,25,M,down,1.0958704999939073,1.9426954374557892,,experiment,emotion,1.0,,,,1413.9436436000103,171,23,female,True
467,112.0,25,F,down,1.5046143000072334,1.9729090481905869,,experiment,emotion,1.0,,,,1417.2768670000078,171,23,female,True
468,120.0,25,F,up,1.0684311999939382,1.3271102669315449,,experiment,emotion,1.0,,,,1420.4100528999988,171,23,female,True
469,116.0,25,M,down,0.7094922999967821,0.7956107196590823,,experiment,emotion,1.0,,,,1422.5599901000096,171,23,female,True
470,109.0,25,M,down,0.8378917000081856,1.177566907220173,,experiment,emotion,1.0,,,,1424.7265900000057,171,23,female,True
471,120.0,25,F,down,1.0250215999840293,1.906602199950632,,experiment,emotion,1.0,,,,1427.7264847000188,171,23,female,True
472,116.0,25,M,down,0.7868674000201281,1.574810391048728,,experiment,emotion,1.0,,,,1430.6096161000023,171,23,female,True
473,116.0,25,F,down,0.6798601000045892,1.402107785507408,,experiment,emotion,1.0,,,,1433.0596183000016,171,23,female,True
474,109.0,25,F,down,0.7726033999933861,1.7274700295739671,,experiment,emotion,1.0,,,,1435.7428492000035,171,23,female,True
475,112.0,25,F,,,1.5253770890932683,,experiment,emotion,1.0,,,,1438.3427558000258,171,23,female,True
476,120.0,25,M,down,1.4525624999951106,1.589344405281486,,experiment,emotion,1.0,,,,1442.6259111000109,171,23,female,True
477,112.0,25,M,down,0.7470570000004955,1.5949061958231947,,experiment,emotion,1.0,,,,1445.9424755000218,171,23,female,True
478,112.0,25,F,down,0.726470200024778,1.0562808788947715,,experiment,emotion,1.0,,,,1448.0090206000025,171,23,female,True
479,112.0,25,F,down,0.5785848000086844,0.7999935130052827,,experiment,emotion,1.0,,,,1449.8088969000091,171,23,female,True
480,120.0,25,M,down,0.8553115999966394,1.5297306228096526,,experiment,emotion,1.0,,,,1452.192172800016,171,23,female,True
481,116.0,25,M,down,0.5083376000111457,1.075934145406941,,experiment,emotion,1.0,,,,1454.3921397000086,171,23,female,True
482,109.0,25,M,down,0.8531164999876637,1.7918981378729664,,experiment,emotion,1.0,,,,1456.9753802000196,171,23,female,True
483,109.0,25,M,down,0.6438900000066496,0.7973864523951413,,experiment,emotion,1.0,,,,1458.9086023000127,171,23,female,True
484,116.0,25,M,down,0.7083007000037469,1.86554341807764,,experiment,emotion,1.0,,,,1461.6752104000188,171,23,female,True
485,120.0,25,F,down,0.5523506999888923,1.5578468078933445,,experiment,emotion,1.0,,,,1464.225138400012,171,23,female,True
486,120.0,25,F,up,1.229073199996492,0.8148090118262847,,experiment,emotion,1.0,,,,1465.8584310000006,171,23,female,True
487,109.0,25,M,down,0.9095345000096132,0.4239566988231865,,experiment,emotion,1.0,,,,1467.774975200009,171,23,female,True
488,120.0,25,F,down,1.1349343999754635,1.3936506402739133,,experiment,emotion,1.0,,,,1470.341563599999,171,23,female,True
489,112.0,25,F,down,0.8449948999914341,0.3946938378293014,,experiment,emotion,1.0,,,,1472.1415074000251,171,23,female,True
490,116.0,25,F,down,0.7887132999894675,1.550766990333797,,experiment,emotion,1.0,,,,1474.824729600019,171,23,female,True
491,112.0,25,M,down,0.986185799993109,1.9649683994824476,,experiment,emotion,1.0,,,,1477.8412915000226,171,23,female,True
492,109.0,25,F,up,1.1805661000253167,0.3554958859524496,,experiment,emotion,1.0,,,,1479.4578954000026,171,23,female,True
493,116.0,25,F,down,0.8043437000014819,1.4417000941765958,,experiment,emotion,1.0,,,,1482.3411266000185,171,23,female,True
494,112.0,25,F,up,1.0354527000163216,0.732088492086807,,experiment,emotion,1.0,,,,1484.141061900009,171,23,female,True
495,116.0,25,M,down,1.16617040001438,0.9221844265379402,,experiment,emotion,1.0,,,,1486.374301200005,171,23,female,True
496,109.0,25,M,down,0.7489466999832075,1.7504867031006546,,experiment,emotion,1.0,,,,1489.5575222000189,171,23,female,True
497,120.0,25,F,down,1.1796365000191145,0.3536461297098333,,experiment,emotion,1.0,,,,1490.9408070000063,171,23,female,True
498,116.0,25,M,down,1.2480837999901269,0.3224931880242478,,experiment,emotion,1.0,,,,1492.7073617000133,171,23,female,True
499,120.0,25,F,up,1.3831581000122242,0.6440930202099477,,experiment,emotion,1.0,,,,1494.857331700012,171,23,female,True
500,109.0,25,M,down,1.1432010999997146,0.639008018055903,,experiment,emotion,1.0,,,,1497.1572516000017,171,23,female,True
501,112.0,25,M,down,1.3706682000192814,1.230267976368625,,experiment,emotion,1.0,,,,1499.823818300007,171,23,female,True
502,0.428416951556327,25,up,up,0.8672757000022102,0.6762808893479338,,experiment,cRDM,2.0,,,,1505.640190500009,171,23,female,True
503,0.428416951556327,25,up,up,0.6705970999901183,0.5885123828970686,,experiment,cRDM,2.0,,,,1507.3568684000056,171,23,female,True
504,0.428416951556327,25,down,down,0.5877294999954756,0.5747905870711727,,experiment,cRDM,2.0,,,,1508.856736900023,171,23,female,True
505,0.428416951556327,25,down,down,0.7454244999971706,0.4381060693745218,,experiment,cRDM,2.0,,,,1510.140026900015,171,23,female,True
506,0.428416951556327,25,up,up,0.5261678000097163,0.788897455439092,,experiment,cRDM,2.0,,,,1511.9233209000083,171,23,female,True
507,0.428416951556327,25,down,down,0.4501921000191942,0.5256334714919583,,experiment,cRDM,2.0,,,,1513.2233015000238,171,23,female,True
508,0.428416951556327,25,up,up,0.6496270000061486,0.5383904181551347,,experiment,cRDM,2.0,,,,1514.489844100026,171,23,female,True
509,0.428416951556327,25,up,up,0.6023637000180315,1.5170586469749936,,experiment,cRDM,2.0,,,,1516.9231513000268,171,23,female,True
510,0.428416951556327,25,down,down,0.5337444000178948,0.6534199749161989,,experiment,cRDM,2.0,,,,1518.439724100026,171,23,female,True
511,0.428416951556327,25,down,up,0.3671217999944929,0.6864497812432028,,experiment,cRDM,2.0,,,,1519.923034700012,171,23,female,True
512,0.428416951556327,25,down,down,0.8598859999910928,0.9940953667936998,,experiment,cRDM,2.0,,,,1521.5895807000052,171,23,female,True
513,0.428416951556327,25,down,up,1.537243300001137,0.6997918560350941,,experiment,cRDM,2.0,,,,1523.4062156,171,23,female,True
514,0.428416951556327,25,down,down,1.2296620999986771,0.6328601871482198,,experiment,cRDM,2.0,,,,1525.8228211000096,171,23,female,True
515,0.428416951556327,25,down,up,0.8787783999869134,0.7510247534516512,,experiment,cRDM,2.0,,,,1528.0727040000202,171,23,female,True
516,0.428416951556327,25,up,down,1.5038130000175445,1.123014536707599,,experiment,cRDM,2.0,,,,1530.3226511000248,171,23,female,True
517,0.428416951556327,25,up,up,0.6216294000041671,1.3580544424239007,,experiment,cRDM,2.0,,,,1533.455850600003,171,23,female,True
518,0.428416951556327,25,up,down,1.500338499987265,0.7092146918790647,,experiment,cRDM,2.0,,,,1535.0391057000088,171,23,female,True
519,0.428416951556327,25,up,up,0.677059100009501,0.3380647179008445,,experiment,cRDM,2.0,,,,1537.1224008999998,171,23,female,True
520,0.428416951556327,25,down,down,0.5634685999830253,0.3733118359863459,,experiment,cRDM,2.0,,,,1538.4389856000198,171,23,female,True
521,0.428416951556327,25,up,up,0.7359069999947678,1.587344561865996,,experiment,cRDM,2.0,,,,1540.8555567000003,171,23,female,True
522,0.428416951556327,25,up,up,0.7993312999897171,1.124228906699459,,experiment,cRDM,2.0,,,,1542.9721273000175,171,23,female,True
523,0.428416951556327,25,down,down,0.5547212999954354,1.6018109757277768,,experiment,cRDM,2.0,,,,1545.6387411000032,171,23,female,True
524,0.428416951556327,25,up,up,0.6518599000119139,1.6237024705693883,,experiment,cRDM,2.0,,,,1548.0886048000248,171,23,female,True
525,0.428416951556327,25,down,down,0.7844952000014018,1.4183539403647183,,experiment,cRDM,2.0,,,,1550.421916500025,171,23,female,True
526,0.428416951556327,25,down,up,1.0793120000162162,0.4347908438780569,,experiment,cRDM,2.0,,,,1551.905144600023,171,23,female,True
527,0.428416951556327,25,up,up,1.2700328000064474,1.5992444417756964,,experiment,cRDM,2.0,,,,1554.8383801000018,171,23,female,True
528,0.428416951556327,25,up,up,1.7828326000017114,1.3598030173249849,,experiment,cRDM,2.0,,,,1557.7216421000194,171,23,female,True
529,0.428416951556327,25,down,down,2.1559785999997985,1.6497741353300526,,experiment,cRDM,2.0,,,,1561.4214852000005,171,23,female,True
530,0.428416951556327,25,up,up,0.5731089000182692,0.8284056284630281,,experiment,cRDM,2.0,,,,1564.6713509000256,171,23,female,True
531,0.428416951556327,25,down,up,2.010910900018644,1.7859221503654883,,experiment,cRDM,2.0,,,,1567.3045883000011,171,23,female,True
532,0.428416951556327,25,down,down,0.9069432999822312,0.8148828952661025,,experiment,cRDM,2.0,,,,1570.404506700026,171,23,female,True
533,0.428416951556327,25,down,down,0.5858355000091251,1.905019388565428,,experiment,cRDM,2.0,,,,1573.487692100025,171,23,female,True
534,0.428416951556327,25,up,up,1.37850549997529,1.3288466576768163,,experiment,cRDM,2.0,,,,1575.670944900019,171,23,female,True
535,0.428416951556327,25,up,up,0.8869664999947418,0.9905571437035166,,experiment,cRDM,2.0,,,,1578.287502000021,171,23,female,True
536,0.428416951556327,25,up,up,0.5730735999823082,1.6078926123992536,,experiment,cRDM,2.0,,,,1581.037391300022,171,23,female,True
537,0.428416951556327,25,down,down,1.1484953000035605,0.835182795110363,,experiment,cRDM,2.0,,,,1582.704068899999,171,23,female,True
538,0.428416951556327,25,down,down,1.1489123000064865,1.8591486768343617,,experiment,cRDM,2.0,,,,1585.9705506000028,171,23,female,True
539,0.428416951556327,25,up,up,0.5636363000085112,0.8689246538267112,,experiment,cRDM,2.0,,,,1588.2538267000054,171,23,female,True
540,0.428416951556327,25,down,down,0.4420180000015534,0.9326595649029974,,experiment,cRDM,2.0,,,,1590.020439600019,171,23,female,True
541,0.428416951556327,25,up,up,0.6681263000064064,1.5890721195360145,,experiment,cRDM,2.0,,,,1592.3203253000102,171,23,female,True
542,0.428416951556327,25,up,up,0.6249084000010043,1.699524388916692,,experiment,cRDM,2.0,,,,1594.9535527000262,171,23,female,True
543,0.428416951556327,25,up,down,1.7459322000213433,0.4314843311682995,,experiment,cRDM,2.0,,,,1596.253519800026,171,23,female,True
544,0.428416951556327,25,down,down,1.1957456000091042,1.2313570917289205,,experiment,cRDM,2.0,,,,1599.4867071000044,171,23,female,True
545,0.428416951556327,25,down,down,0.6931336999987252,0.5930265264464898,,experiment,cRDM,2.0,,,,1601.5533336000226,171,23,female,True
546,0.428416951556327,25,up,up,0.6888916000025347,1.0822418775587122,,experiment,cRDM,2.0,,,,1603.5865664000155,171,23,female,True
547,0.428416951556327,25,down,down,0.8650032999867108,0.4936505541844874,,experiment,cRDM,2.0,,,,1605.036445500009,171,23,female,True
548,0.428416951556327,25,down,down,0.8543312000110745,1.43967534076805,,experiment,cRDM,2.0,,,,1607.603127600014,171,23,female,True
549,0.428416951556327,25,up,up,0.6157991999934893,1.2540934563057102,,experiment,cRDM,2.0,,,,1609.969654400018,171,23,female,True
550,0.428416951556327,25,up,down,1.0884753999998793,0.8533215155346761,,experiment,cRDM,2.0,,,,1611.7029836000002,171,23,female,True
551,0.428416951556327,25,down,up,0.7292289999895729,0.5791037028113581,,experiment,cRDM,2.0,,,,1613.6362198000134,171,23,female,True
552,0.428416951556327,25,up,down,0.5449968999892008,0.7429908335394202,,experiment,cRDM,2.0,,,,1615.3694635000138,171,23,female,True
553,0.428416951556327,25,down,down,1.2363863000064157,1.3168510671010405,,experiment,cRDM,2.0,,,,1617.4860626000154,171,23,female,True
554,0.428416951556327,25,down,up,0.8861408999946434,0.4909572119649273,,experiment,cRDM,2.0,,,,1619.4693116000271,171,23,female,True
555,0.428416951556327,25,down,down,0.5219136000087019,1.4415563898812844,,experiment,cRDM,2.0,,,,1622.0525781000033,171,23,female,True
556,0.428416951556327,25,up,up,0.4409837999846786,1.0172095109664334,,experiment,cRDM,2.0,,,,1623.8524927000108,171,23,female,True
557,0.428416951556327,25,up,down,1.3480290999868885,1.9466998109460416,,experiment,cRDM,2.0,,,,1626.5024336000206,171,23,female,True
558,0.428416951556327,25,down,down,0.812116099987179,0.83206664541483,,experiment,cRDM,2.0,,,,1628.9523246000172,171,23,female,True
559,0.428416951556327,25,down,down,0.5551802000263706,1.730047076517774,,experiment,cRDM,2.0,,,,1631.7522239000243,171,23,female,True
560,0.428416951556327,25,up,up,0.5663146000006236,0.59056041484988,,experiment,cRDM,2.0,,,,1633.1521403000224,171,23,female,True
561,0.428416951556327,25,up,up,0.9663512999832164,1.633573580365597,,experiment,cRDM,2.0,,,,1635.6021107000124,171,23,female,True
562,0.428416951556327,25,up,up,0.7348355999856722,1.2282276024493566,,experiment,cRDM,2.0,,,,1638.068614400021,171,23,female,True
563,0.428416951556327,25,up,up,0.7112500000221189,1.9491491722688747,,experiment,cRDM,2.0,,,,1641.0351985000016,171,23,female,True
564,0.428416951556327,25,up,up,0.7029719999991357,0.7057568990271477,,experiment,cRDM,2.0,,,,1642.7184725000116,171,23,female,True
565,0.428416951556327,25,down,down,0.4736877999966964,1.3231674609685475,,experiment,cRDM,2.0,,,,1645.0017558000109,171,23,female,True
566,0.428416951556327,25,down,down,0.6781071999866981,0.482937763729127,,experiment,cRDM,2.0,,,,1646.218343900022,171,23,female,True
567,0.428416951556327,25,up,up,0.660843300021952,1.4011043851842824,,experiment,cRDM,2.0,,,,1648.551598800026,171,23,female,True
568,0.428416951556327,25,down,down,0.6615330000058748,0.3672331503892504,,experiment,cRDM,2.0,,,,1649.834868200007,171,23,female,True
569,0.428416951556327,25,down,up,1.4789201999956276,0.5364934369741794,,experiment,cRDM,2.0,,,,1651.3015250000171,171,23,female,True
570,0.428416951556327,25,down,down,1.1604567999893334,1.8716752847840767,,experiment,cRDM,2.0,,,,1654.918013300019,171,23,female,True
571,0.428416951556327,25,up,up,0.512870299979113,0.6018752718466234,,experiment,cRDM,2.0,,,,1656.9345972000156,171,23,female,True
572,0.428416951556327,25,down,down,0.4170530999836046,1.3381894323634893,,experiment,cRDM,2.0,,,,1659.0345278000168,171,23,female,True
573,0.428416951556327,25,down,up,0.7452611000044271,0.8942689742103631,,experiment,cRDM,2.0,,,,1660.6011818000115,171,23,female,True
574,0.428416951556327,25,down,down,0.6767266000097152,1.515994577101936,,experiment,cRDM,2.0,,,,1663.1177228000015,171,23,female,True
575,0.428416951556327,25,up,up,0.5570781999849714,0.8711824544543214,,experiment,cRDM,2.0,,,,1664.934337700019,171,23,female,True
576,0.428416951556327,25,up,down,0.367160399997374,1.0717709725958964,,experiment,cRDM,2.0,,,,1666.8175929000136,171,23,female,True
577,0.428416951556327,25,down,up,0.9479599999904168,1.2664053431785238,,experiment,cRDM,2.0,,,,1668.7674886000168,171,23,female,True
578,0.428416951556327,25,up,down,0.383843399991747,1.51167189987063,,experiment,cRDM,2.0,,,,1671.4840446000162,171,23,female,True
579,0.428416951556327,25,down,down,0.9104587000038008,1.1138178247250978,,experiment,cRDM,2.0,,,,1673.283985200018,171,23,female,True
580,0.428416951556327,25,up,down,0.6548963999957778,1.2138735371594231,,experiment,cRDM,2.0,,,,1675.650598600012,171,23,female,True
581,0.428416951556327,25,up,up,0.4879820999922231,1.678475827560301,,experiment,cRDM,2.0,,,,1678.2504979000078,171,23,female,True
582,120.0,25,M,up,1.9202845000254456,0.8139839885355051,,experiment,emotion,2.0,,,,1688.8001591000066,171,23,female,True
583,109.0,25,M,down,0.8390707999933511,1.5316271454422092,,experiment,emotion,2.0,,,,1692.5333732000145,171,23,female,True
584,116.0,25,F,down,2.1358081999933347,1.196196511310708,,experiment,emotion,2.0,,,,1694.8666517000238,171,23,female,True
585,120.0,25,F,up,0.8409720000054222,1.4550444486621952,,experiment,emotion,2.0,,,,1698.7164818000165,171,23,female,True
586,116.0,25,M,down,0.8574288999952842,1.8601205335627569,,experiment,emotion,2.0,,,,1701.683014900016,171,23,female,True
587,112.0,25,F,up,1.769824700022582,1.1749597356673285,,experiment,emotion,2.0,,,,1703.9996192000108,171,23,female,True
588,109.0,25,M,down,0.7256200999836437,0.844504909125074,,experiment,emotion,2.0,,,,1706.882822500018,171,23,female,True
589,112.0,25,M,up,1.6253305999853185,1.1795418343692972,,experiment,emotion,2.0,,,,1709.0661075000244,171,23,female,True
590,120.0,25,F,up,0.8431211999850348,1.1304135732077674,,experiment,emotion,2.0,,,,1712.0993264999995,171,23,female,True
591,112.0,25,F,down,0.8361389000201598,0.9279393323360428,,experiment,emotion,2.0,,,,1714.1492487000069,171,23,female,True
592,116.0,25,F,up,0.8266807000036351,1.903789455640461,,experiment,emotion,2.0,,,,1717.1657742000243,171,23,female,True
593,120.0,25,F,up,0.7950451000069734,0.6824697065926257,,experiment,emotion,2.0,,,,1718.9323902000033,171,23,female,True
594,116.0,25,F,down,0.6478035000036471,1.7110322770490038,,experiment,emotion,2.0,,,,1721.7156143000177,171,23,female,True
595,109.0,25,F,down,0.8629113000060897,1.6571228198066217,,experiment,emotion,2.0,,,,1724.315551800013,171,23,female,True
596,112.0,25,M,down,1.5903285999957006,0.3297212596205192,,experiment,emotion,2.0,,,,1725.782104700018,171,23,female,True
597,109.0,25,M,down,0.7604252000164706,1.89900402008786,,experiment,emotion,2.0,,,,1729.5320070000016,171,23,female,True
598,120.0,25,M,up,1.192839900002582,0.8487130925565207,,experiment,emotion,2.0,,,,1731.3986014000257,171,23,female,True
599,109.0,25,M,down,0.6065945000154898,1.926276024472149,,experiment,emotion,2.0,,,,1734.7818094000104,171,23,female,True
600,116.0,25,F,down,0.8590694000013173,1.967457824484182,,experiment,emotion,2.0,,,,1737.648372399999,171,23,female,True
601,116.0,25,M,up,1.8177918999863325,0.8539893000718672,,experiment,emotion,2.0,,,,1739.631635000027,171,23,female,True
602,112.0,25,M,up,1.4846075999957975,1.822375411724972,,experiment,emotion,2.0,,,,1743.5648230000224,171,23,female,True
603,112.0,25,F,down,1.5473955000052229,1.7230167853467089,,experiment,emotion,2.0,,,,1747.0480388000142,171,23,female,True
604,109.0,25,M,up,1.8251597000053152,1.0946319582296105,,experiment,emotion,2.0,,,,1749.981246100011,171,23,female,True
605,120.0,25,F,up,1.0459419999970123,0.7162196117140818,,experiment,emotion,2.0,,,,1752.8144922000065,171,23,female,True
606,116.0,25,F,down,1.0080801000003703,0.5161151938182142,,experiment,emotion,2.0,,,,1754.664362200012,171,23,female,True
607,109.0,25,M,down,1.009100600000238,0.5669160395335568,,experiment,emotion,2.0,,,,1756.5143607000064,171,23,female,True
608,120.0,25,M,up,1.047144499985734,0.5695789517255019,,experiment,emotion,2.0,,,,1758.3642852000194,171,23,female,True
609,120.0,25,F,down,0.7536640999896917,0.8546610363503873,,experiment,emotion,2.0,,,,1760.5308736000152,171,23,female,True
610,112.0,25,M,down,0.6952470999967773,0.8500645690595703,,experiment,emotion,2.0,,,,1762.4141383000242,171,23,female,True
611,109.0,25,F,down,0.6497504000144545,1.343830868420174,,experiment,emotion,2.0,,,,1764.7307179000054,171,23,female,True
612,112.0,25,F,down,1.197420200012857,0.8591247391113566,,experiment,emotion,2.0,,,,1766.5139822000056,171,23,female,True
613,116.0,25,F,up,0.7715069000259973,0.831869526888176,,experiment,emotion,2.0,,,,1768.813925800001,171,23,female,True
614,109.0,25,M,down,0.8889546999998856,1.1181116127033506,,experiment,emotion,2.0,,,,1770.980467300018,171,23,female,True
615,120.0,25,M,down,0.8183718000072986,1.259874759597187,,experiment,emotion,2.0,,,,1773.3970665000088,171,23,female,True
616,116.0,25,M,down,0.7998262000037357,1.3744799574890496,,experiment,emotion,2.0,,,,1775.8636046000174,171,23,female,True
617,120.0,25,F,down,0.7655271000112407,0.9076613328673389,,experiment,emotion,2.0,,,,1777.8469014000148,171,23,female,True
618,109.0,25,F,down,0.6923116999969352,1.6507075422501944,,experiment,emotion,2.0,,,,1780.530116900016,171,23,female,True
619,116.0,25,M,down,0.8210586000059266,0.8808350331803969,,experiment,emotion,2.0,,,,1782.3633748000138,171,23,female,True
620,112.0,25,F,down,0.8031154000200331,0.8553265632898663,,experiment,emotion,2.0,,,,1784.3133270000108,171,23,female,True
621,112.0,25,M,down,0.8368241999996826,0.8089781424012921,,experiment,emotion,2.0,,,,1786.1965997000225,171,23,female,True
622,116.0,25,M,down,0.8956151000165846,1.078891803874111,,experiment,emotion,2.0,,,,1788.3798170000082,171,23,female,True
623,120.0,25,M,down,0.8623638999997638,1.7558898300820067,,experiment,emotion,2.0,,,,1791.3130725000228,171,23,female,True
624,112.0,25,F,down,0.8101418000005651,1.5530105702028305,,experiment,emotion,2.0,,,,1793.9962816000043,171,23,female,True
625,109.0,25,F,down,0.8051864999870304,0.5492055904888176,,experiment,emotion,2.0,,,,1795.6462385000195,171,23,female,True
626,109.0,25,M,down,0.9946325999917462,1.1966768478378524,,experiment,emotion,2.0,,,,1797.9128184000149,171,23,female,True
627,112.0,25,F,down,1.710730099992361,1.590211495409188,,experiment,emotion,2.0,,,,1800.7627036000194,171,23,female,True
628,120.0,25,F,down,1.210494099999778,1.183285722019375,,experiment,emotion,2.0,,,,1803.945932700008,171,23,female,True
629,116.0,25,M,up,1.3035746999958064,1.0420914632765967,,experiment,emotion,2.0,,,,1806.495819600008,171,23,female,True
630,109.0,25,M,down,0.6293796000245493,1.64280504389454,,experiment,emotion,2.0,,,,1809.729043200001,171,23,female,True
631,120.0,25,F,down,0.7660884000069927,0.7268572617510933,,experiment,emotion,2.0,,,,1811.362332700024,171,23,female,True
632,116.0,25,M,down,0.728569900005823,0.782716119889714,,experiment,emotion,2.0,,,,1813.17885690002,171,23,female,True
633,116.0,25,F,up,1.0272248999972362,1.1644755933022528,,experiment,emotion,2.0,,,,1815.3621847000031,171,23,female,True
634,109.0,25,F,down,0.7207179000251926,0.8604711411048778,,experiment,emotion,2.0,,,,1817.5287587000057,171,23,female,True
635,112.0,25,F,down,0.7470800999726634,0.7240708541288561,,experiment,emotion,2.0,,,,1819.2453834000044,171,23,female,True
636,120.0,25,M,down,1.2791714999766557,1.7743695708430622,,experiment,emotion,2.0,,,,1822.0452544,171,23,female,True
637,112.0,25,M,down,0.8045496999984607,0.3214036522415103,,experiment,emotion,2.0,,,,1823.9118642000249,171,23,female,True
638,112.0,25,F,down,0.9799885999818798,1.2438198358773636,,experiment,emotion,2.0,,,,1826.228434300021,171,23,female,True
639,112.0,25,F,down,0.94109920001938,1.7508238574874202,,experiment,emotion,2.0,,,,1829.228333700012,171,23,female,True
640,120.0,25,M,down,1.2772040000127165,1.8885804119391076,,experiment,emotion,2.0,,,,1832.3282148000144,171,23,female,True
641,116.0,25,M,down,1.156978999992134,0.934610427948908,,experiment,emotion,2.0,,,,1834.8114615000088,171,23,female,True
642,109.0,25,M,down,0.9067329000099562,1.3922773995318984,,experiment,emotion,2.0,,,,1837.644685800013,171,23,female,True
643,109.0,25,M,down,0.6765843000030145,1.96085809298006,,experiment,emotion,2.0,,,,1840.7778574000115,171,23,female,True
644,116.0,25,M,up,1.1682883000175934,1.5351335557354706,,experiment,emotion,2.0,,,,1843.261135800014,171,23,female,True
645,120.0,25,F,up,0.9601333999889904,1.4632816992767212,,experiment,emotion,2.0,,,,1846.1943488000247,171,23,female,True
646,120.0,25,F,up,0.9248029999725986,0.8625078585563382,,experiment,emotion,2.0,,,,1848.2776149000276,171,23,female,True
647,109.0,25,M,down,0.7629105999949388,1.2425363601337052,,experiment,emotion,2.0,,,,1850.7275439000225,171,23,female,True
648,120.0,25,F,up,1.050677800027188,1.3943676923653474,,experiment,emotion,2.0,,,,1853.1607523999992,171,23,female,True
649,112.0,25,F,up,1.185394300002372,0.896167563718953,,experiment,emotion,2.0,,,,1855.394040700019,171,23,female,True
650,116.0,25,F,down,0.9734916999877896,0.5139593912691871,,experiment,emotion,2.0,,,,1857.393945400021,171,23,female,True
651,112.0,25,M,down,1.02287910002633,1.4851261662723942,,experiment,emotion,2.0,,,,1860.1105333000012,171,23,female,True
652,109.0,25,F,,,0.3670825859936357,,experiment,emotion,2.0,,,,1861.7771228000056,171,23,female,True
653,116.0,25,F,up,0.7414193000004161,0.9629010996934684,,experiment,emotion,2.0,,,,1865.4269915000184,171,23,female,True
654,112.0,25,F,down,0.9482223999802954,1.7246503011710066,,experiment,emotion,2.0,,,,1868.1602094000264,171,23,female,True
655,116.0,25,M,down,0.9882843999948818,1.0846523633940486,,experiment,emotion,2.0,,,,1870.4601379000237,171,23,female,True
656,109.0,25,M,down,0.8726828999933787,0.4574778388835261,,experiment,emotion,2.0,,,,1872.1767325000253,171,23,female,True
657,120.0,25,F,up,1.132104499993147,1.1067124076203905,,experiment,emotion,2.0,,,,1874.443346200016,171,23,female,True
658,116.0,25,M,down,1.9058847000123933,1.9803746819346508,,experiment,emotion,2.0,,,,1877.8265324000092,171,23,female,True
659,120.0,25,F,up,0.7823318000009749,0.7329778146428791,,experiment,emotion,2.0,,,,1880.7431087000004,171,23,female,True
660,109.0,25,M,up,1.2250968999869656,1.748629392989948,,experiment,emotion,2.0,,,,1883.5263229000263,171,23,female,True
661,112.0,25,M,up,0.7528642000106629,1.2262776321599058,,experiment,emotion,2.0,,,,1886.2595524000064,171,23,female,True
662,0.428416951556327,25,up,up,0.6151221999898553,1.9381219113207624,,experiment,cRDM,3.0,,,,1892.7092890000204,171,23,female,True
663,0.428416951556327,25,up,up,0.626218899997184,0.5213953593509674,,experiment,cRDM,3.0,,,,1894.1091900000172,171,23,female,True
664,0.428416951556327,25,down,down,0.5509673999913502,0.9390584193052314,,experiment,cRDM,3.0,,,,1895.9424466000053,171,23,female,True
665,0.428416951556327,25,down,down,0.8910287000180688,0.5889535820793457,,experiment,cRDM,3.0,,,,1897.3424199,171,23,female,True
666,0.428416951556327,25,up,up,0.4447564999863971,0.4936684829486191,,experiment,cRDM,3.0,,,,1898.975655600021,171,23,female,True
667,0.428416951556327,25,down,down,0.4291172999946866,0.9555632747771377,,experiment,cRDM,3.0,,,,1900.642295800004,171,23,female,True
668,0.428416951556327,25,up,up,0.317189800000051,1.315648202250667,,experiment,cRDM,3.0,,,,1902.6588614000063,171,23,female,True
669,0.428416951556327,25,up,up,0.8049506999959704,0.4394508233230368,,experiment,cRDM,3.0,,,,1903.7754777000227,171,23,female,True
670,0.428416951556327,25,down,down,0.6142835000064224,0.4820077173330263,,experiment,cRDM,3.0,,,,1905.3421158000128,171,23,female,True
671,0.428416951556327,25,down,down,0.7424453000130598,1.662627383889176,,experiment,cRDM,3.0,,,,1907.8920196000252,171,23,female,True
672,0.428416951556327,25,down,down,0.8254944999935105,0.8766053219070342,,experiment,cRDM,3.0,,,,1909.7919497000112,171,23,female,True
673,0.428416951556327,25,down,down,0.7792310000222642,1.695886039378919,,experiment,cRDM,3.0,,,,1912.5751821000013,171,23,female,True
674,0.428416951556327,25,down,down,0.5639704999921378,1.3060598802400498,,experiment,cRDM,3.0,,,,1914.9084334000072,171,23,female,True
675,0.428416951556327,25,down,down,0.5980452999938279,0.8392106489241169,,experiment,cRDM,3.0,,,,1916.558362300013,171,23,female,True
676,0.428416951556327,25,up,up,0.644141699973261,1.1417482897383702,,experiment,cRDM,3.0,,,,1918.5582759000245,171,23,female,True
677,0.428416951556327,25,up,up,1.1931700000131968,0.9854335596244166,,experiment,cRDM,3.0,,,,1920.4582089000032,171,23,female,True
678,0.428416951556327,25,up,up,0.6336234000045806,1.5039125809949272,,experiment,cRDM,3.0,,,,1923.4247980000216,171,23,female,True
679,0.428416951556327,25,up,down,0.8107434999838006,1.4110416026766748,,experiment,cRDM,3.0,,,,1925.7246954000148,171,23,female,True
680,0.428416951556327,25,down,down,0.68656010000268,1.9702965441924325,,experiment,cRDM,3.0,,,,1928.757904900005,171,23,female,True
681,0.428416951556327,25,up,up,0.648930700001074,0.3572187974421636,,experiment,cRDM,3.0,,,,1930.0745285000007,171,23,female,True
682,0.428416951556327,25,up,up,0.7899276000098325,0.4423568460734897,,experiment,cRDM,3.0,,,,1931.424480000016,171,23,female,True
683,0.428416951556327,25,down,down,0.7190478999982588,1.75054912995516,,experiment,cRDM,3.0,,,,1934.224390700023,171,23,female,True
684,0.428416951556327,25,up,down,1.818088200001512,0.8693478568266444,,experiment,cRDM,3.0,,,,1936.0743196000112,171,23,female,True
685,0.428416951556327,25,down,down,0.6005436000123154,0.4884840272269839,,experiment,cRDM,3.0,,,,1938.640904300002,171,23,female,True
686,0.428416951556327,25,down,down,0.6332625000213739,1.1570739985767668,,experiment,cRDM,3.0,,,,1940.6741371000244,171,23,female,True
687,0.428416951556327,25,up,up,0.7016950999968685,0.378343092284215,,experiment,cRDM,3.0,,,,1941.9407650000064,171,23,female,True
688,0.428416951556327,25,up,up,0.5820284000074025,0.9143146911579204,,experiment,cRDM,3.0,,,,1943.807359000028,171,23,female,True
689,0.428416951556327,25,down,down,0.4254093999916222,1.0345655264164948,,experiment,cRDM,3.0,,,,1945.673978200008,171,23,female,True
690,0.428416951556327,25,up,up,0.3671590999874752,1.0101219672956805,,experiment,cRDM,3.0,,,,1947.373883000022,171,23,female,True
691,0.428416951556327,25,down,down,0.4173459000012371,1.5100301122425406,,experiment,cRDM,3.0,,,,1949.5738220000055,171,23,female,True
692,0.428416951556327,25,down,down,0.9410073999897576,0.3283832593678937,,experiment,cRDM,3.0,,,,1950.5904293000056,171,23,female,True
693,0.428416951556327,25,down,down,0.7593682000006083,1.07273241820641,,experiment,cRDM,3.0,,,,1952.8570301000143,171,23,female,True
694,0.428416951556327,25,up,up,0.3671539000060875,0.8080766941807473,,experiment,cRDM,3.0,,,,1954.690293800028,171,23,female,True
695,0.428416951556327,25,up,up,0.7734755999990739,0.5753183597402858,,experiment,cRDM,3.0,,,,1955.9569302000164,171,23,female,True
696,0.428416951556327,25,up,up,0.8182760000054259,1.4967265418358913,,experiment,cRDM,3.0,,,,1958.4901621000024,171,23,female,True
697,0.428416951556327,25,down,down,0.874964100017678,0.9597282979524868,,experiment,cRDM,3.0,,,,1960.523426300002,171,23,female,True
698,0.428416951556327,25,down,down,0.7050482000049669,0.5691454343153179,,experiment,cRDM,3.0,,,,1962.223352800007,171,23,female,True
699,0.428416951556327,25,up,up,0.5224668999726418,0.402056493772395,,experiment,cRDM,3.0,,,,1963.5899690000224,171,23,female,True
700,0.428416951556327,25,down,down,0.7857585000165273,0.6402017948803249,,experiment,cRDM,3.0,,,,1965.0066272000256,171,23,female,True
701,0.428416951556327,25,up,up,0.3838402999972459,0.5193073170069478,,experiment,cRDM,3.0,,,,1966.5731871000023,171,23,female,True
702,0.428416951556327,25,up,up,0.6343373999989126,1.8609159865326488,,experiment,cRDM,3.0,,,,1969.1231081000003,171,23,female,True
703,0.428416951556327,25,up,up,0.5744629999971949,1.6675677764791048,,experiment,cRDM,3.0,,,,1971.672993300017,171,23,female,True
704,0.428416951556327,25,down,down,1.0470702000020538,0.3076471751674126,,experiment,cRDM,3.0,,,,1972.8063200000036,171,23,female,True
705,0.428416951556327,25,down,down,1.0611283000034746,0.9815422282234214,,experiment,cRDM,3.0,,,,1975.1062645000056,171,23,female,True
706,0.428416951556327,25,up,up,0.5126256000075955,1.9578620645407017,,experiment,cRDM,3.0,,,,1978.3727485000272,171,23,female,True
707,0.428416951556327,25,down,down,0.7093987999833189,1.3912695993449742,,experiment,cRDM,3.0,,,,1980.5559971000184,171,23,female,True
708,0.428416951556327,25,down,down,1.0837984000099825,0.506405145500673,,experiment,cRDM,3.0,,,,1982.022606100014,171,23,female,True
709,0.428416951556327,25,up,up,0.4772898999799508,1.21334691034363,,experiment,cRDM,3.0,,,,1984.589158900024,171,23,female,True
710,0.428416951556327,25,up,down,0.3671250999905169,0.4446863908767081,,experiment,cRDM,3.0,,,,1985.7724886000212,171,23,female,True
711,0.428416951556327,25,down,down,0.6476638999884017,1.402761073028321,,experiment,cRDM,3.0,,,,1987.8557339000108,171,23,female,True
712,0.428416951556327,25,up,up,0.6550664000096731,1.0170793965456544,,experiment,cRDM,3.0,,,,1989.772331000015,171,23,female,True
713,0.428416951556327,25,down,down,0.6467868000036106,0.8128568010415254,,experiment,cRDM,3.0,,,,1991.5056111000013,171,23,female,True
714,0.428416951556327,25,down,down,1.1202401999908034,0.8442082772368795,,experiment,cRDM,3.0,,,,1993.2721886000072,171,23,female,True
715,0.428416951556327,25,down,down,0.8279341000015847,0.946195613697357,,experiment,cRDM,3.0,,,,1995.6054787000176,171,23,female,True
716,0.428416951556327,25,up,up,0.6503642000025138,1.532665002911611,,experiment,cRDM,3.0,,,,1998.222026500007,171,23,female,True
717,0.428416951556327,25,up,up,1.367414699983783,0.4363336302813886,,experiment,cRDM,3.0,,,,1999.5719811000165,171,23,female,True
718,0.428416951556327,25,down,down,0.718823400005931,0.5406466992598261,,experiment,cRDM,3.0,,,,2001.738572800008,171,23,female,True
719,0.428416951556327,25,down,down,1.189586299995426,0.7096890824679045,,experiment,cRDM,3.0,,,,2003.4218244000224,171,23,female,True
720,0.428416951556327,25,up,up,0.5459411999909207,0.7216460068575068,,experiment,cRDM,3.0,,,,2005.588462900021,171,23,female,True
721,0.428416951556327,25,up,up,0.7243470000103116,1.4444979992354754,,experiment,cRDM,3.0,,,,2007.8550530000064,171,23,female,True
722,0.428416951556327,25,up,up,0.7125725999940187,1.4075208554616223,,experiment,cRDM,3.0,,,,2010.2549017000129,171,23,female,True
723,0.428416951556327,25,up,up,0.6189421000017319,1.9463665627050184,,experiment,cRDM,3.0,,,,2013.17147250002,171,23,female,True
724,0.428416951556327,25,up,up,0.7119418999936897,0.3177240352209395,,experiment,cRDM,3.0,,,,2014.3714178000228,171,23,female,True
725,0.428416951556327,25,down,down,0.6623519999848213,1.4361489570768584,,experiment,cRDM,3.0,,,,2016.788052000018,171,23,female,True
726,0.428416951556327,25,down,down,0.6457445999840274,0.4448647163524917,,experiment,cRDM,3.0,,,,2018.1546198000144,171,23,female,True
