,stimLvl,stimTime,rand,response,rt,precedingITI,trialNumber,trialType,stimuli,block,estIntens,estThres,estSlope,trialStart,subject,age,gender,headRest
0,0.9,100,down,down,2.133433699957095,1.9637132609708448,,introTrial,cRDM,,,,,89.45045900007244,90,23,male,True
1,150.0,100,F,,,1.2099766975561366,,introTrial,emotion,,,,,93.08366320002824,90,23,male,True
2,0.9,25,up,up,0.3673397999955341,1.4406619657534243,,tutorial,cRDM,,,,,138.98191099998076,90,23,male,True
3,0.9,25,down,down,0.4326176999602467,1.277956708591434,,tutorial,cRDM,,,,,140.96522370004095,90,23,male,True
4,0.9,25,up,up,0.43307949998416,1.3840783522677336,,tutorial,cRDM,,,,,143.08182020008098,90,23,male,True
5,0.9,25,down,down,0.5644083999795839,0.916295311678396,,tutorial,cRDM,,,,,144.69850170006976,90,23,male,True
6,0.9,25,down,down,0.5338099000509828,0.6554863474402952,,tutorial,cRDM,,,,,146.21506760001648,90,23,male,True
7,0.9,25,up,up,0.4619262999622151,1.9018173972433,,tutorial,cRDM,,,,,148.91497899999376,90,23,male,True
8,0.9,25,down,down,0.3670885000610724,0.9950388250179736,,tutorial,cRDM,,,,,150.63154780003242,90,23,male,True
9,0.9,25,down,down,0.4200129000237211,0.4328776529892084,,tutorial,cRDM,,,,,151.7648411000846,90,23,male,True
10,0.9,25,up,up,0.4584642000263557,1.1772589306688102,,tutorial,cRDM,,,,,153.63143720000517,90,23,male,True
11,0.9,25,up,up,0.5627874999772757,1.0485973452156108,,tutorial,cRDM,,,,,155.39805449999403,90,23,male,True
12,200.0,25,M,up,0.7902480000630021,1.4662753856239772,,tutorial,emotion,,,,,166.74760590004735,90,23,male,True
13,200.0,25,M,up,0.552254700101912,0.4268382095445743,,tutorial,emotion,,,,,168.24760070000775,90,23,male,True
14,200.0,25,F,up,0.6707191999303177,1.0783792311634273,,tutorial,emotion,,,,,170.1641682999907,90,23,male,True
15,0.0,25,F,down,0.4217665999894961,0.7279662428736371,,tutorial,emotion,,,,,171.86410330003127,90,23,male,True
16,0.0,25,M,down,0.4677754000294953,0.3440384811689148,,tutorial,emotion,,,,,172.91406600002665,90,23,male,True
17,200.0,25,F,up,0.5858296999940649,1.3398555165271984,,tutorial,emotion,,,,,175.0140106000472,90,23,male,True
18,0.0,25,M,down,0.5076245000818744,1.1763610410752867,,tutorial,emotion,,,,,177.0472282000119,90,23,male,True
19,200.0,25,M,up,0.568832999910228,0.965055335976083,,tutorial,emotion,,,,,178.79705639998429,90,23,male,True
20,0.0,25,F,down,0.4464201000519097,0.581798053724315,,tutorial,emotion,,,,,180.23046500002965,90,23,male,True
21,0.0,25,F,down,0.4684675999451428,0.787311141755056,,tutorial,emotion,,,,,181.73041399999056,90,23,male,True
22,0.29,25,up,up,0.7336281000170857,1.6214837695356643,,psi_staircase_training,cRDM,,0.25,0.2569312402994632,0.105,194.61324390000664,90,23,male,True
23,0.25,25,up,up,0.8286013000179082,0.3272160145134655,,psi_staircase_training,cRDM,,0.2191026665318312,0.2260132002683492,0.1046863203387393,195.96321180008815,90,23,male,True
24,0.21,25,down,down,0.4171329999808222,0.7969833670031949,,psi_staircase_training,cRDM,,0.1900540959403307,0.1968497961554001,0.1029467298424999,197.8631334999809,90,23,male,True
25,0.18,25,down,down,0.5571750999661162,1.224874649000448,,psi_staircase_training,cRDM,,0.1635257589279754,0.1701521334256793,0.1003816477568649,199.7797203999944,90,23,male,True
26,0.15,25,up,up,0.383751800050959,1.2863953945994715,,psi_staircase_training,cRDM,,0.1401895574244936,0.1466013351187503,0.0971307628663642,201.91299600002824,90,23,male,True
27,0.13,25,down,down,0.4375996999442577,0.3901334464234399,,psi_staircase_training,cRDM,,0.1198760602145479,0.1260554767618333,0.0936107694196103,202.99627840006724,90,23,male,True
28,0.11,25,up,up,0.4002416000002995,1.8188281671442348,,psi_staircase_training,cRDM,,0.1025773523696548,0.1084910344569865,0.0895852101993795,205.52953559998423,90,23,male,True
29,0.09,25,down,down,0.4360939000034705,0.5828190854822518,,psi_staircase_training,cRDM,,0.087844325958594,0.0934818215320969,0.0854013148647635,206.81282330001704,90,23,male,True
30,0.08,25,down,down,0.3999075000174343,1.6575431175348594,,psi_staircase_training,cRDM,,0.0751852092118086,0.0805556301471181,0.0813554535472043,209.1963330000872,90,23,male,True
31,0.06,25,up,up,0.4168253999669105,0.7338076162498868,,psi_staircase_training,cRDM,,0.0644790391168514,0.0695422244606275,0.0767012018235253,210.62934810004663,90,23,male,True
32,0.06,25,down,down,0.4712037000572309,1.688582449099538,,psi_staircase_training,cRDM,,0.055125276742187,0.0599443659720746,0.0730034376643068,213.0126471000258,90,23,male,True
33,0.05,25,down,down,0.8566742000402883,1.81895733773598,,psi_staircase_training,cRDM,,0.0472535008492138,0.0517268983012455,0.0677666207157333,215.57915040000807,90,23,male,True
34,0.04,25,down,up,0.8677710999036208,0.8175612186211436,,psi_staircase_training,cRDM,,0.0405066760015593,0.0446510519272908,0.0627823381387459,217.5290926999878,90,23,male,True
35,0.08,25,up,up,0.5181376000400633,0.4282143695573713,,psi_staircase_training,cRDM,,0.0620922103127578,0.0672886496585748,0.0787198405677893,219.0957379000029,90,23,male,True
36,0.07,25,up,up,0.6145730999996886,1.9284237158581008,,psi_staircase_training,cRDM,,0.0560858768416213,0.0608436731478538,0.0720749231841092,221.81227110000327,90,23,male,True
37,0.07,25,down,down,0.4449815999250859,0.774521458288539,,psi_staircase_training,cRDM,,0.0512795776927288,0.0556273705718734,0.0658638616735785,223.4788684999803,90,23,male,True
38,0.07,25,down,down,0.4416681000730023,0.606629377746655,,psi_staircase_training,cRDM,,0.0476790998935359,0.0516070235217072,0.0595033447318106,224.81219930003863,90,23,male,True
39,0.06,25,up,down,0.4184352000011131,1.6239039753041469,,psi_staircase_training,cRDM,,0.0450429456774943,0.0485631361053899,0.0533266744420422,227.1454072999768,90,23,male,True
40,0.09,25,up,up,0.5751854999689385,1.076265897912546,,psi_staircase_training,cRDM,,0.0586379004803531,0.0638548261202298,0.0790301834188993,228.9286868000636,90,23,male,True
41,0.09,25,up,down,0.6112304000416771,0.4980205711689559,,psi_staircase_training,cRDM,,0.0555491276668096,0.0602996804146056,0.0719651919378993,230.2786128000589,90,23,male,True
42,0.1,25,up,up,0.4396189000690356,0.6268071041230106,,psi_staircase_training,cRDM,,0.0713375929984849,0.0794206937476339,0.1224493080591026,231.7952135000378,90,23,male,True
43,0.1,25,down,down,0.5840023999335244,0.4498931501659361,,psi_staircase_training,cRDM,,0.0655014472984638,0.0733330048567806,0.1186387295917205,232.96185459999836,90,23,male,True
44,0.1,25,down,down,0.8820878000697121,1.0468180582016808,,psi_staircase_training,cRDM,,0.060813087809437,0.0683475986178917,0.1141388266323716,234.86179190000985,90,23,male,True
45,0.09,25,down,down,0.4281406999798491,1.4347428711496697,,psi_staircase_training,cRDM,,0.0570945163617769,0.064298145691535,0.1091263680012897,237.46172020002268,90,23,male,True
46,0.09,25,up,up,0.5491887000389397,0.4177751738419437,,psi_staircase_training,cRDM,,0.0539414769149013,0.0608138805149327,0.1041086943788652,238.56166750006375,90,23,male,True
47,0.09,25,up,up,0.5670629000524059,0.6153370425600355,,psi_staircase_training,cRDM,,0.0514815255006095,0.0579958934633385,0.0986848827243105,239.9948794000084,90,23,male,True
48,0.09,25,down,down,0.5373718000482768,1.5359213485623682,,psi_staircase_training,cRDM,,0.049613618793253,0.0557518415219527,0.0929867323404398,242.36152050003875,90,23,male,True
49,0.09,25,down,down,0.4897433000151068,0.6381427067552483,,psi_staircase_training,cRDM,,0.0482487400793608,0.0540005992539874,0.0871337866301602,243.82813470007383,90,23,male,True
50,0.08,25,up,up,0.4328386000124737,1.5386077222231451,,psi_staircase_training,cRDM,,0.0473080376817939,0.0526704898685981,0.0812347365388619,246.1280377000803,90,23,male,True
51,0.08,25,up,down,0.4459106000140309,1.7339958847943822,,psi_staircase_training,cRDM,,0.0463187911265061,0.0513359709043401,0.0760042725272936,248.57792820001487,90,23,male,True
52,100.0,25,M,down,0.4171033999882638,0.4891874715961332,,psi_staircase_training,emotion,,100.0,100.0,25.00050000000001,256.0776496999897,90,23,male,True
53,145.0,25,M,up,0.4266273999819532,0.3449579364663011,,psi_staircase_training,emotion,,145.25719053245996,145.25719053245996,25.00050000000028,257.19419569999445,90,23,male,True
54,121.0,25,F,up,0.5603147000074387,1.1266782022004636,,psi_staircase_training,emotion,,120.36392901436103,120.36392901436103,25.71326925488699,259.0775427999906,90,23,male,True
55,97.0,25,F,down,0.850446299999021,0.9175691592028375,,psi_staircase_training,emotion,,102.3887610608496,102.3887610608496,26.14633372628729,260.89442889997736,90,23,male,True
56,113.0,25,M,up,0.9225661000236868,1.7797632100920404,,psi_staircase_training,emotion,,114.01123255420406,114.01123255420406,23.00305641778335,263.89431230002083,90,23,male,True
57,105.0,25,F,up,0.6805099999764934,0.972063338484456,,psi_staircase_training,emotion,,104.94359593877375,104.94359593877375,22.15060322358215,266.1273177000694,90,23,male,True
58,92.0,25,M,down,0.6646316000260413,1.0418375481818876,,psi_staircase_training,emotion,,97.32104229908208,97.32104229908208,23.93307361449055,268.1772069000872,90,23,male,True
59,95.0,25,F,down,0.6410044999793172,0.5596491778512427,,psi_staircase_training,emotion,,102.844886035729,102.844886035729,20.021669804154055,269.7438356999773,90,23,male,True
60,108.0,25,F,up,0.786767499987036,1.7118720662816942,,psi_staircase_training,emotion,,105.64949659566052,105.64949659566052,16.907117635955938,272.427094600047,90,23,male,True
61,103.0,25,M,up,0.7009098998969421,1.5193263757285072,,psi_staircase_training,emotion,,102.66278123067144,102.66278123067144,13.849209143468029,275.0769617999904,90,23,male,True
62,96.0,25,F,down,0.816931499983184,1.25138735269798,,psi_staircase_training,emotion,,100.0777445058133,100.0777445058133,13.420456935215755,277.3768495999975,90,23,male,True
63,104.0,25,F,up,0.9589933999814092,1.6363581252671806,,psi_staircase_training,emotion,,101.7719295080986,101.7719295080986,10.185730945978978,280.1767942000879,90,23,male,True
64,101.0,25,F,up,0.6028055000351742,1.735796481218372,,psi_staircase_training,emotion,,100.66270445443752,100.66270445443752,7.985083885485027,283.2100090000313,90,23,male,True
65,97.0,25,M,down,0.8227019000332803,1.5199007239353437,,psi_staircase_training,emotion,,99.07890358004008,99.07890358004008,9.015443994887638,285.69312770001125,90,23,male,True
66,99.0,25,M,up,0.7236422999994829,0.5358865822902014,,psi_staircase_training,emotion,,100.22523716367552,100.22523716367552,6.429635775138579,287.3932077999925,90,23,male,True
67,93.0,25,F,up,0.6741686000023037,0.9402141456949602,,psi_staircase_training,emotion,,98.5475499465522,98.5475499465522,10.416572117534686,289.40982860000804,90,23,male,True
68,83.0,25,F,up,0.6455011999933049,1.838619455935917,,psi_staircase_training,emotion,,94.51000419811572,94.51000419811572,21.65852037562955,292.276332700043,90,23,male,True
69,69.0,25,M,up,0.7185568999266252,1.640988106026758,,psi_staircase_training,emotion,,88.81350047002498,88.81350047002498,30.911562017645643,294.9262736000819,90,23,male,True
70,59.0,25,M,down,0.5917211999185383,1.1222501311771995,,psi_staircase_training,emotion,,82.66519256167287,82.66519256167287,36.63866051263363,297.1261467000004,90,23,male,True
71,60.0,25,M,down,0.549876399920322,1.0308919557092189,,psi_staircase_training,emotion,,84.73658299655463,84.73658299655463,35.49467768893353,299.09303109999746,90,23,male,True
72,61.0,25,M,down,0.5631787999300286,1.6273250586519232,,psi_staircase_training,emotion,,86.49807183534338,86.49807183534338,34.36212280935852,301.6426698000869,90,23,male,True
73,62.0,25,F,down,0.5359420001041144,0.3116934027929554,,psi_staircase_training,emotion,,88.00515461286788,88.00515461286788,33.2471742341446,302.8759493000107,90,23,male,True
74,62.0,25,F,up,0.8605993000091985,0.5623161472019598,,psi_staircase_training,emotion,,89.30001436975536,89.30001436975536,32.155688963145586,304.3092388000805,90,23,male,True
75,56.0,25,F,down,0.6736878999508917,1.0772153421466413,,psi_staircase_training,emotion,,84.98355043884683,84.98355043884683,36.33559905858744,306.6091616000049,90,23,male,True
76,56.0,25,M,down,0.7501040999777615,0.9003635457810895,,psi_staircase_training,emotion,,86.17324718961171,86.17324718961171,35.56153047640167,308.5257521000458,90,23,male,True
77,57.0,25,M,down,0.7821770999580622,0.8290646670532453,,psi_staircase_training,emotion,,87.20857947968051,87.20857947968051,34.8047175302841,310.4756581999827,90,23,male,True
78,57.0,25,F,down,0.6459098999621347,1.6032126503582276,,psi_staircase_training,emotion,,88.13918970689643,88.13918970689643,34.05974432394324,313.2089101000456,90,23,male,True
79,120.0,25,F,up,0.6816977999405935,1.2311577928514663,,psi_staircase_training,emotion,,88.95136137570667,88.95136137570667,33.335834393861184,315.44216209999286,90,23,male,True
80,58.0,25,M,down,0.7363908999832347,0.3904389640098955,,psi_staircase_training,emotion,,88.1753519344951,88.1753519344951,32.58056745919099,316.87542290007696,90,23,male,True
81,120.0,25,M,up,0.6341262999922037,1.3752030004669114,,psi_staircase_training,emotion,,88.90851315835465,88.90851315835465,31.831384730810758,319.3086875000736,90,23,male,True
82,0.29,25,up,up,0.6353338999906555,1.9993120195381104,,psi_staircase,cRDM,,0.25,0.2569312402994632,0.105,370.323485000059,90,23,male,True
83,0.25,25,up,up,0.4408732000738382,1.7539658305080523,,psi_staircase,cRDM,,0.2191026665318312,0.2260132002683492,0.1046863203387393,372.9900201000273,90,23,male,True
84,0.21,25,down,down,0.5025222999975085,0.7878266957006754,,psi_staircase,cRDM,,0.1900540959403307,0.1968497961554001,0.1029467298424999,374.4733203999931,90,23,male,True
85,0.18,25,down,down,0.5119353000773117,1.005499851114796,,psi_staircase,cRDM,,0.1635257589279754,0.1701521334256793,0.1003816477568649,376.2399250000017,90,23,male,True
86,0.15,25,up,up,0.5000045000342652,0.7716477523975056,,psi_staircase,cRDM,,0.1401895574244936,0.1466013351187503,0.0971307628663642,377.78984350000974,90,23,male,True
87,0.13,25,down,down,0.4746941999765113,1.3736316837846303,,psi_staircase,cRDM,,0.1198760602145479,0.1260554767618333,0.0936107694196103,379.92312679998577,90,23,male,True
88,0.11,25,up,up,0.4614747000159696,1.7898638617111282,,psi_staircase,cRDM,,0.1025773523696548,0.1084910344569865,0.0895852101993795,382.4563624000875,90,23,male,True
89,0.09,25,down,down,0.6072149000829086,1.7578251940712777,,psi_staircase,cRDM,,0.087844325958594,0.0934818215320969,0.0854013148647635,384.9396115000127,90,23,male,True
90,0.08,25,down,down,1.1862703999504447,0.6330459922590574,,psi_staircase,cRDM,,0.0751852092118086,0.0805556301471181,0.0813554535472043,386.43954539997503,90,23,male,True
91,0.06,25,up,down,0.9173883000621572,1.5115840536326857,,psi_staircase,cRDM,,0.0644790391168514,0.0695422244606275,0.0767012018235253,389.3894791000057,90,23,male,True
92,0.11,25,down,down,0.5672113000182435,1.9460154886249224,,psi_staircase,cRDM,,0.0948602595780939,0.100716274325989,0.0887116189834892,392.5226448000176,90,23,male,True
93,0.1,25,down,down,0.6338845000136644,0.5991728424386398,,psi_staircase,cRDM,,0.0850536372837916,0.0905330829294477,0.0830070475032367,393.9559132000432,90,23,male,True
94,0.1,25,down,down,0.770647699944675,0.8728182587299251,,psi_staircase,cRDM,,0.0773438712303519,0.0824482118285555,0.0773246547018264,395.7392050999915,90,23,male,True
95,0.09,25,up,up,0.9220473999157548,1.615617947763846,,psi_staircase,cRDM,,0.071623626374969,0.0763215808449468,0.071168390942365,398.4058038999792,90,23,male,True
96,0.09,25,up,up,0.5511189999524504,1.3081588177078782,,psi_staircase,cRDM,,0.0669427757353492,0.0713045448116411,0.0660755843432674,400.90568269998766,90,23,male,True
97,0.07,25,down,down,0.5552893999265507,1.7957334231691444,,psi_staircase,cRDM,,0.0634803589703011,0.0674921955145005,0.0607745250404255,403.50559279997833,90,23,male,True
98,0.07,25,down,up,0.5154199000680819,1.050828269655872,,psi_staircase,cRDM,,0.0590633149552531,0.063077069145533,0.0608035750848264,405.3724313999992,90,23,male,True
99,0.1,25,up,up,0.508102499996312,1.9500641911574037,,psi_staircase,cRDM,,0.0726555062278858,0.076932859103526,0.0647967798745919,408.0887685000198,90,23,male,True
100,0.1,25,up,up,0.4917551999678835,0.7669147439090297,,psi_staircase,cRDM,,0.0701981160627657,0.0740633142936633,0.0585531299896889,409.6220301000867,90,23,male,True
101,0.1,25,up,up,0.5121457000495866,0.4300777343829214,,psi_staircase,cRDM,,0.068608705377293,0.0720909090107849,0.0527512199432694,410.7887027000543,90,23,male,True
102,0.08,25,up,up,0.8236539999488741,1.0161031455501637,,psi_staircase,cRDM,,0.0676434485595983,0.070777082495956,0.0474708059599419,412.57218840008136,90,23,male,True
103,0.08,25,down,down,0.4329962000483647,1.857298245783943,,psi_staircase,cRDM,,0.065512774490318,0.0685564042044569,0.0461073496484209,415.5218234000495,90,23,male,True
104,0.08,25,down,down,0.4717831999296322,0.7886647479954858,,psi_staircase,cRDM,,0.0637735295933314,0.066700525085412,0.0443404806917842,417.0050908999983,90,23,male,True
105,0.07,25,down,down,0.7327884000260383,1.305020112327189,,psi_staircase,cRDM,,0.0623826397544406,0.0651746216890623,0.042295186787561,419.0550422000233,90,23,male,True
106,0.06,25,up,down,0.7132601999910548,1.6211485551775002,,psi_staircase,cRDM,,0.0599464531851111,0.0628232959339746,0.0435807266203228,421.6715876000235,90,23,male,True
107,0.08,25,up,down,0.8293159999884665,1.476720086743201,,psi_staircase,cRDM,,0.0669739168408159,0.0691827212895947,0.0334607454223928,424.1215042000404,90,23,male,True
108,0.1,25,down,down,0.5944201999809593,1.0129149658287826,,psi_staircase,cRDM,,0.0721944146470086,0.0750586449991521,0.0433896638958472,426.2214095999952,90,23,male,True
109,0.1,25,down,down,0.7545117000117898,1.5521703078401392,,psi_staircase,cRDM,,0.0717103867238187,0.0742667770238874,0.0387262553179695,428.6213314000052,90,23,male,True
110,0.08,25,up,up,0.7088761000195518,1.3046464163244138,,psi_staircase,cRDM,,0.0714912459893992,0.0737795385209515,0.0346648947997945,430.9379200000549,90,23,male,True
111,0.08,25,up,up,0.5493378000101075,0.7705403915619922,,psi_staircase,cRDM,,0.0701303055708435,0.0723794773868904,0.0340722627526291,432.67144330008887,90,23,male,True
112,0.08,25,down,down,0.7156977000413463,0.5749712834208154,,psi_staircase,cRDM,,0.0689662444059557,0.0711607128344003,0.033243571861811,434.07113200007007,90,23,male,True
113,0.08,25,up,down,0.5987841000314802,1.821383456744692,,psi_staircase,cRDM,,0.0679868011741767,0.0701143717870241,0.0322301499727651,436.87104860006366,90,23,male,True
114,0.1,25,down,down,0.6392137000802904,0.4067092509492132,,psi_staircase,cRDM,,0.0719259990014376,0.0744219662918333,0.0378109189940849,438.1376440000022,90,23,male,True
115,0.1,25,up,up,0.7705799000104889,1.9520711951655447,,psi_staircase,cRDM,,0.0719687164401548,0.0742082595329004,0.0339263991116414,441.0042107000481,90,23,male,True
116,0.08,25,down,down,0.6360999000025913,1.1318256372800404,,psi_staircase,cRDM,,0.0721159544221811,0.0741333900809618,0.0305617371523506,443.1707467000233,90,23,male,True
117,0.08,25,up,down,0.5307486000237986,0.642218205242991,,psi_staircase,cRDM,,0.0710238309660241,0.0730341159571149,0.0304534130898446,444.70408340008,90,23,male,True
118,0.11,25,down,down,0.5844539001118392,0.3410084737702593,,psi_staircase,cRDM,,0.0748494194904579,0.076935566334731,0.0316026294263149,445.837359600002,90,23,male,True
119,0.1,25,up,down,0.4698953999904915,0.6639737148278951,,psi_staircase,cRDM,,0.0750382547214967,0.0769167535551936,0.028457010436277,447.3539379000431,90,23,male,True
120,0.11,25,up,down,0.8058990000281483,1.5663927975534768,,psi_staircase,cRDM,,0.0729331753615943,0.077411863304393,0.0678467653228358,449.6538896000711,90,23,male,True
121,0.12,25,down,down,0.7264033999526873,0.8457104831479874,,psi_staircase,cRDM,,0.0755157696370389,0.0836928823273987,0.1238734765196724,451.5704327999847,90,23,male,True
122,0.12,25,down,down,0.5346769000170752,0.8190699719804857,,psi_staircase,cRDM,,0.0729094441526977,0.0807662775294723,0.1190216280086575,453.38717420003377,90,23,male,True
123,0.12,25,down,down,0.814769700053148,1.2119749853724198,,psi_staircase,cRDM,,0.0708070470979792,0.0783223510869044,0.1138478662899996,455.3870394000551,90,23,male,True
124,0.12,25,up,down,0.9168680000584573,1.4606927281715083,,psi_staircase,cRDM,,0.0691644357160217,0.07632065541948,0.108408168870052,457.9369224000257,90,23,male,True
125,0.13,25,up,up,0.5229757999768481,1.9294416116980415,,psi_staircase,cRDM,,0.0763966775579019,0.0857540561889362,0.1417530937911187,461.0368124999805,90,23,male,True
126,0.12,25,down,down,0.7464389000087976,1.0794138582731878,,psi_staircase,cRDM,,0.0734070578141427,0.0826043013584806,0.1393272387671019,462.9033979000524,90,23,male,True
127,0.12,25,down,down,0.5861594999441877,1.267139880866765,,psi_staircase,cRDM,,0.0706555011794401,0.0796857535387793,0.1367975220544647,465.1866856000852,90,23,male,True
128,0.12,25,down,down,0.7709604999981821,1.580392544785548,,psi_staircase,cRDM,,0.0682233746204068,0.0770712097638935,0.1340341194256465,467.619889200083,90,23,male,True
129,0.12,25,up,up,0.5679686999646947,0.4627105383789388,,psi_staircase,cRDM,,0.0660925147633687,0.0747422832860242,0.1310336470298339,469.11985200003255,90,23,male,True
130,0.12,25,up,down,0.8227249999763444,0.8412207537909207,,psi_staircase,cRDM,,0.0642491302923935,0.0726850496923437,0.1277940886082623,470.80310660006944,90,23,male,True
131,0.2,25,up,up,0.5834846999496222,1.5607834560118807,,psi_staircase,cRDM,,0.0721213327860878,0.0817108391523963,0.1452695513298483,473.4363495000871,90,23,male,True
132,100.0,25,M,up,0.6130812999326736,0.782699881896844,,psi_staircase,emotion,,100.0,100.0,25.00050000000001,480.8027568000834,90,23,male,True
133,55.0,25,M,down,0.5154781000455841,0.7574239227850826,,psi_staircase,emotion,,54.7428094675419,54.7428094675419,25.00050000000011,482.5193476000568,90,23,male,True
134,79.0,25,F,up,1.0379471000051126,0.3887569135057786,,psi_staircase,emotion,,79.636070985635,79.636070985635,25.713269254886413,483.7699103000341,90,23,male,True
135,63.0,25,F,down,0.5862969999434426,1.905708235973215,,psi_staircase,emotion,,62.16401670338348,62.16401670338348,25.292325986283885,487.0525150999893,90,23,male,True
136,73.0,25,M,down,0.611704699927941,0.4769316188824246,,psi_staircase,emotion,,73.53930944190891,73.53930944190891,23.64975108561003,488.46909690008033,90,23,male,True
137,87.0,25,F,down,0.6447196999797598,0.3860663095580083,,psi_staircase,emotion,,82.48355301883353,82.48355301883353,24.57617413513036,489.8190933000296,90,23,male,True
138,106.0,25,M,up,0.8178311000810936,1.696553947870464,,psi_staircase,emotion,,93.47321971198342,93.47321971198342,30.11570117720217,492.5189742000075,90,23,male,True
139,102.0,25,F,up,0.5692615999141708,0.8617204308365571,,psi_staircase,emotion,,87.30823528954795,87.30823528954795,27.7273534307992,494.5355770000024,90,23,male,True
140,68.0,25,F,down,0.5156631999416277,0.8027308036148755,,psi_staircase,emotion,,83.44475538654902,83.44475538654902,25.68608228109167,496.2521650000708,90,23,male,True
141,97.0,25,M,down,0.7987494999542832,1.348927274129783,,psi_staircase,emotion,,86.24064723047101,86.24064723047101,23.877520687671712,498.45206999999937,90,23,male,True
142,111.0,25,F,up,0.5844549000030383,0.482896776593344,,psi_staircase,emotion,,93.02999974275616,93.02999974275616,28.47559920864515,500.0853836999741,90,23,male,True
143,109.0,25,F,up,0.761520600062795,1.4545180944193308,,psi_staircase,emotion,,90.35872978789632,90.35872978789632,26.6040151508366,502.4853000000585,90,23,male,True
144,72.0,25,F,down,0.6102645000210032,1.3206082569032016,,psi_staircase,emotion,,88.40967319181584,88.40967319181584,24.93229087155934,504.91853210004047,90,23,male,True
145,108.0,25,M,up,0.675315500004217,0.4614175480443684,,psi_staircase,emotion,,90.28983323775748,90.28983323775748,23.29373768990883,506.3184724000748,90,23,male,True
146,76.0,25,M,up,0.8478401999454945,0.6446534908934263,,psi_staircase,emotion,,88.89655128314942,88.89655128314942,21.65850209639342,507.98498130007647,90,23,male,True
147,62.0,25,F,down,0.6439010000322014,1.801730019548992,,psi_staircase,emotion,,84.20983605014321,84.20983605014321,26.19912392136033,510.9848884000676,90,23,male,True
148,107.0,25,F,up,0.7275873000035062,0.6885264081303835,,psi_staircase,emotion,,85.4977055974969,85.4977055974969,24.81592919984672,512.668214000063,90,23,male,True
149,64.0,25,M,down,0.8986116999294609,0.3833795707343815,,psi_staircase,emotion,,84.43622080349098,84.43622080349098,23.554594846577608,514.1181925000856,90,23,male,True
150,105.0,25,M,up,0.5111310000065714,1.6359684496449265,,psi_staircase,emotion,,85.4872944911426,85.4872944911426,22.25004643882076,516.9847462000325,90,23,male,True
151,65.0,25,M,up,0.9735283000627531,1.6949739335168077,,psi_staircase,emotion,,84.60087290187512,84.60087290187512,21.07970480014613,519.5513092000037,90,23,male,True
152,56.0,25,M,up,0.6279274999396876,0.8429183268919991,,psi_staircase,emotion,,80.64539060020996,80.64539060020996,26.5828923312432,521.7178775999928,90,23,male,True
153,49.0,25,F,down,0.8970045999158174,1.5128167129980732,,psi_staircase,emotion,,76.26401454224467,76.26401454224467,31.92428416208637,524.2178170999978,90,23,male,True
154,49.0,25,F,down,0.8580381999490783,0.3607212318208738,,psi_staircase,emotion,,77.40653357654578,77.40653357654578,30.906098713276197,525.8177552000852,90,23,male,True
155,50.0,25,F,down,0.9405128000071272,1.3824959386984506,,psi_staircase,emotion,,78.3559003297508,78.3559003297508,29.949600938046068,528.4343291000696,90,23,male,True
156,106.0,25,M,up,0.6493663999717683,1.654272927571844,,psi_staircase,emotion,,79.17623508463713,79.17623508463713,29.04284905108477,531.367452400038,90,23,male,True
157,51.0,25,M,down,0.7986305000958964,0.722914553252465,,psi_staircase,emotion,,78.37843833753978,78.37843833753978,28.137381480997064,533.0841971000191,90,23,male,True
158,105.0,25,F,up,0.6260753000387922,1.6624150114618093,,psi_staircase,emotion,,79.09006851030856,79.09006851030856,27.252544410852728,535.900735400035,90,23,male,True
159,52.0,25,F,down,0.6304562999866903,0.3090389310230069,,psi_staircase,emotion,,78.3922146405498,78.3922146405498,26.37896192699212,537.2173406999791,90,23,male,True
160,104.0,25,M,up,0.6622688000788912,1.9488960555907613,,psi_staircase,emotion,,79.01221196353615,79.01221196353615,25.54032623629413,540.1505649000173,90,23,male,True
161,53.0,25,M,up,0.6006645999150351,0.6082251748925456,,psi_staircase,emotion,,78.39764284647167,78.39764284647167,24.720451683404374,541.7671685999958,90,23,male,True
162,46.0,25,F,down,0.5660187999019399,0.4526127580090416,,psi_staircase,emotion,,75.46492031068104,75.46492031068104,28.894163420655907,543.183798699989,90,23,male,True
163,104.0,25,M,up,0.5004318000283092,1.1197496022818316,,psi_staircase,emotion,,76.05833833953031,76.05833833953031,28.12041894274441,545.2003824000712,90,23,male,True
164,47.0,25,F,down,0.7338795999530703,1.551608307586569,,psi_staircase,emotion,,75.49628104257943,75.49628104257943,27.38227168789692,547.616952200071,90,23,male,True
165,103.0,25,M,up,0.5950728000607342,0.8514005109336018,,psi_staircase,emotion,,76.02539948339522,76.02539948339522,26.6478599686237,549.5667271000566,90,23,male,True
166,48.0,25,F,down,0.6051117000170052,1.2379287246446284,,psi_staircase,emotion,,75.51557208510687,75.51557208510687,25.94890045684409,551.7667135000229,90,23,male,True
167,102.0,25,M,up,0.5210965001024306,1.0359205493806911,,psi_staircase,emotion,,75.98995753206452,75.98995753206452,25.265694948122643,553.7666971000144,90,23,male,True
168,49.0,25,F,down,0.7713013000320643,1.8279146741963692,,psi_staircase,emotion,,75.52373103647213,75.52373103647213,24.615770229094306,556.4665267000673,90,23,male,True
169,100.0,25,M,up,0.6502722000004724,0.735855206882579,,psi_staircase,emotion,,75.95244682736035,75.95244682736035,23.990523893884312,558.3165631999727,90,23,male,True
170,51.0,25,M,down,0.6067310000071302,0.8800693829814035,,psi_staircase,emotion,,75.499823075937,75.499823075937,23.386449473855773,560.1830087000271,90,23,male,True
171,99.0,25,F,up,0.5790145000210032,1.8514514994068236,,psi_staircase,emotion,,75.9118814337697,75.9118814337697,22.81178657827655,562.9997343000723,90,23,male,True
172,52.0,25,F,down,0.679502599989064,0.4458876620920078,,psi_staircase,emotion,,75.48955619331058,75.48955619331058,22.26218845301899,564.3663250000682,90,23,male,True
173,97.0,25,F,up,1.1268966000061482,0.7985629149309164,,psi_staircase,emotion,,75.87031289929712,75.87031289929712,21.74590718213408,566.1829193000449,90,23,male,True
174,96.0,25,M,up,0.8202632999746129,0.6373570950762989,,psi_staircase,emotion,,75.44926362062782,75.44926362062782,21.242313468018093,568.2995343999937,90,23,male,True
175,54.0,25,M,down,0.7173000000184402,0.7631976306608981,,psi_staircase,emotion,,75.04963733188065,75.04963733188065,20.77415663242649,570.2494576000609,90,23,male,True
176,95.0,25,F,up,0.69007180002518,0.3135217409112746,,psi_staircase,emotion,,75.42583363291234,75.42583363291234,20.317328272631396,571.6327398000285,90,23,male,True
177,55.0,25,F,down,0.6757805000524968,0.8452355359169741,,psi_staircase,emotion,,75.0416805973148,75.0416805973148,19.892397117959327,573.5160106000258,90,23,male,True
178,94.0,25,F,up,1.0168264000676572,0.6682588024511764,,psi_staircase,emotion,,75.39802849113579,75.39802849113579,19.48302782659566,575.2159430000465,90,23,male,True
179,93.0,25,M,up,0.7032629000023007,0.4501617379915085,,psi_staircase,emotion,,75.02555167501562,75.02555167501562,19.09608514447373,577.0325516000157,90,23,male,True
180,57.0,25,M,down,0.5902277999557555,1.9716881318409896,,psi_staircase,emotion,,74.66292788127683,74.66292788127683,18.73314568145065,580.0655820000684,90,23,male,True
181,91.0,25,M,up,0.7562289999332279,0.8707836977175254,,psi_staircase,emotion,,75.025897486742,75.025897486742,18.369505119720756,581.8655330999754,90,23,male,True
182,0.0703776167262309,25,down,down,0.6293449000222608,1.360055403068139,,experiment,cRDM,0.0,,,,588.615446700016,90,23,male,True
183,0.0703776167262309,25,up,down,0.8184285999741405,0.3673417836350491,,experiment,cRDM,0.0,,,,589.8653924000682,90,23,male,True
184,0.0703776167262309,25,down,down,0.4965162000153214,1.9594047476665135,,experiment,cRDM,0.0,,,,592.9152902000351,90,23,male,True
185,0.0703776167262309,25,up,up,0.6526097001042217,1.5458821594293486,,experiment,cRDM,0.0,,,,595.2152187000029,90,23,male,True
186,0.0703776167262309,25,down,down,0.5416531999362633,0.8937183865139362,,experiment,cRDM,0.0,,,,597.0151344999904,90,23,male,True
187,0.0703776167262309,25,down,down,0.6243311000289395,1.5373962616730106,,experiment,cRDM,0.0,,,,599.3484071000712,90,23,male,True
188,0.0703776167262309,25,up,up,0.4931355000007897,0.8958176341637063,,experiment,cRDM,0.0,,,,601.1316530000186,90,23,male,True
189,0.0703776167262309,25,down,down,0.6739242000039667,1.9652394594801164,,experiment,cRDM,0.0,,,,603.8648756999755,90,23,male,True
190,0.0703776167262309,25,up,up,0.506962800049223,1.314123500998034,,experiment,cRDM,0.0,,,,606.1148055000231,90,23,male,True
191,0.0703776167262309,25,up,down,0.5901132000144571,0.9956526717306728,,experiment,cRDM,0.0,,,,607.8817167000379,90,23,male,True
192,0.0703776167262309,25,down,down,0.5394182000309229,0.8081806709577883,,experiment,cRDM,0.0,,,,609.5313498000614,90,23,male,True
193,0.0703776167262309,25,up,down,0.5076605000067502,0.860075685572905,,experiment,cRDM,0.0,,,,611.1811513000866,90,23,male,True
194,0.0703776167262309,25,up,up,0.8939794000471011,1.70531525278499,,experiment,cRDM,0.0,,,,613.6478509000735,90,23,male,True
195,0.0703776167262309,25,up,down,0.7906757000600919,0.9240118544123554,,experiment,cRDM,0.0,,,,615.7311219000258,90,23,male,True
196,0.0703776167262309,25,down,down,0.5134506999747828,0.6700253077219621,,experiment,cRDM,0.0,,,,617.4643519000383,90,23,male,True
197,0.0703776167262309,25,down,down,0.5200961999362335,0.9703860715890597,,experiment,cRDM,0.0,,,,619.1977086000843,90,23,male,True
198,0.0703776167262309,25,up,up,1.1292491999920458,1.4720907726157342,,experiment,cRDM,0.0,,,,621.447581000044,90,23,male,True
199,0.0703776167262309,25,up,down,0.5253076000371948,1.2664097598886972,,experiment,cRDM,0.0,,,,624.0975123000098,90,23,male,True
200,0.0703776167262309,25,down,down,0.8523571999976411,0.4053182190389117,,experiment,cRDM,0.0,,,,625.2974572000094,90,23,male,True
201,0.0703776167262309,25,down,down,0.682144199963659,1.5181070515865676,,experiment,cRDM,0.0,,,,627.9306739000604,90,23,male,True
202,0.0703776167262309,25,up,up,0.7672355000395328,1.899748107039818,,experiment,cRDM,0.0,,,,630.7805366000393,90,23,male,True
203,0.0703776167262309,25,down,down,0.68008550000377,1.1622961571437838,,experiment,cRDM,0.0,,,,632.9636953000445,90,23,male,True
204,0.0703776167262309,25,up,down,0.710719499969855,1.1049254154553896,,experiment,cRDM,0.0,,,,634.9970838000299,90,23,male,True
205,0.0703776167262309,25,down,up,0.5751367999473587,1.0376604305975414,,experiment,cRDM,0.0,,,,637.0136790000834,90,23,male,True
206,0.0703776167262309,25,down,down,0.5552134999306872,0.9087491070907212,,experiment,cRDM,0.0,,,,638.7635895999847,90,23,male,True
207,0.0703776167262309,25,up,up,0.811940599931404,1.2940361101308735,,experiment,cRDM,0.0,,,,640.8968891000841,90,23,male,True
208,0.0703776167262309,25,up,up,0.5034077999880537,1.991560495757688,,experiment,cRDM,0.0,,,,643.9634034000337,90,23,male,True
209,0.0703776167262309,25,down,down,0.5674644000828266,1.4864281811531366,,experiment,cRDM,0.0,,,,646.2133579000365,90,23,male,True
210,0.0703776167262309,25,up,up,0.5621761999791488,1.401364621372746,,experiment,cRDM,0.0,,,,648.44658540003,90,23,male,True
211,0.0703776167262309,25,down,down,0.6225582999177277,0.5475138133062863,,experiment,cRDM,0.0,,,,649.8132013999857,90,23,male,True
212,0.0703776167262309,25,up,down,0.5209452999988571,0.8805265514614611,,experiment,cRDM,0.0,,,,651.5798411000287,90,23,male,True
213,0.0703776167262309,25,down,,,0.4330960738825522,,experiment,cRDM,0.0,,,,652.7964371000417,90,23,male,True
214,0.0703776167262309,25,up,down,0.4005975000327453,0.3814315989207781,,experiment,cRDM,0.0,,,,655.8628963000374,90,23,male,True
215,0.0703776167262309,25,down,down,0.6076045000227168,1.620065643116427,,experiment,cRDM,0.0,,,,658.163150700042,90,23,male,True
216,0.0703776167262309,25,up,down,0.4596618000650778,1.1092620897352536,,experiment,cRDM,0.0,,,,660.1461815000512,90,23,male,True
217,0.0703776167262309,25,down,up,0.4167813999811187,1.7594255607658644,,experiment,cRDM,0.0,,,,662.6127309000585,90,23,male,True
218,0.0703776167262309,25,up,down,0.6978002999676391,0.5112747813699057,,experiment,cRDM,0.0,,,,663.7959978000727,90,23,male,True
219,0.0703776167262309,25,down,down,0.4455533999716863,1.6770879382923811,,experiment,cRDM,0.0,,,,666.429236200056,90,23,male,True
220,0.0703776167262309,25,up,down,0.5885836000088602,0.6917681693977429,,experiment,cRDM,0.0,,,,667.8292152000358,90,23,male,True
221,0.0703776167262309,25,down,down,0.4709951999830082,0.9722324955391416,,experiment,cRDM,0.0,,,,669.6457858000649,90,23,male,True
222,0.0703776167262309,25,down,down,0.4307448000181466,1.4502274136955036,,experiment,cRDM,0.0,,,,671.8290594000136,90,23,male,True
223,0.0703776167262309,25,up,down,0.5155189000070095,1.7907971636069335,,experiment,cRDM,0.0,,,,674.3122892000247,90,23,male,True
224,0.0703776167262309,25,down,down,0.6012662999564782,1.8028547925275589,,experiment,cRDM,0.0,,,,676.8955465999898,90,23,male,True
225,0.0703776167262309,25,up,up,0.6602980000898242,0.3389630503463273,,experiment,cRDM,0.0,,,,678.0955116000259,90,23,male,True
226,0.0703776167262309,25,up,down,0.9530104000587016,0.6181631500537336,,experiment,cRDM,0.0,,,,679.628763500019,90,23,male,True
227,0.0703776167262309,25,down,down,0.5164317999733612,0.8909589315184543,,experiment,cRDM,0.0,,,,681.7453747000545,90,23,male,True
228,0.0703776167262309,25,down,down,0.461514399969019,1.386420638149658,,experiment,cRDM,0.0,,,,683.8952849999769,90,23,male,True
229,0.0703776167262309,25,up,up,0.4592641999479383,1.3096671033354603,,experiment,cRDM,0.0,,,,685.9285396999912,90,23,male,True
230,0.0703776167262309,25,down,down,0.4836808999534696,1.9438536417560752,,experiment,cRDM,0.0,,,,688.5950889000669,90,23,male,True
231,0.0703776167262309,25,up,up,0.5734131999779493,0.9355202417788346,,experiment,cRDM,0.0,,,,690.2783998000668,90,23,male,True
232,0.0703776167262309,25,up,down,0.5934608000097796,1.2170654079406,,experiment,cRDM,0.0,,,,692.3282954000169,90,23,male,True
233,0.0703776167262309,25,up,up,0.4369074000278488,0.7109823995769033,,experiment,cRDM,0.0,,,,693.8949128000531,90,23,male,True
234,0.0703776167262309,25,up,down,0.5192548999330029,1.012581401809234,,experiment,cRDM,0.0,,,,695.6115099000745,90,23,male,True
235,0.0703776167262309,25,up,down,0.4746783999726176,1.2351853923406064,,experiment,cRDM,0.0,,,,697.6281003999757,90,23,male,True
236,0.0703776167262309,25,down,down,0.6520415999693796,0.3260445873607259,,experiment,cRDM,0.0,,,,698.6947224000469,90,23,male,True
237,0.0703776167262309,25,down,up,0.2838283999590203,1.6355270080912607,,experiment,cRDM,0.0,,,,701.2446274000686,90,23,male,True
238,0.0703776167262309,25,down,down,0.4471921999938786,0.956020519125163,,experiment,cRDM,0.0,,,,702.8945876000216,90,23,male,True
239,0.0703776167262309,25,up,down,0.4608803999144584,0.5715791997481869,,experiment,cRDM,0.0,,,,704.1778948000865,90,23,male,True
240,0.0703776167262309,25,down,down,0.4933995000319555,1.0555328292657282,,experiment,cRDM,0.0,,,,705.9444443000248,90,23,male,True
241,0.0703776167262309,25,down,down,0.4950545999454334,1.1278783656874565,,experiment,cRDM,0.0,,,,707.8277357000625,90,23,male,True
242,0.0703776167262309,25,down,down,0.5077584999380633,0.4277399231029376,,experiment,cRDM,0.0,,,,709.0110178000759,90,23,male,True
243,0.0703776167262309,25,up,up,0.7258998000761494,1.891490970454606,,experiment,cRDM,0.0,,,,711.6608394000214,90,23,male,True
244,0.0703776167262309,25,down,down,0.5062892999267206,1.2304269009695603,,experiment,cRDM,0.0,,,,713.8775500999764,90,23,male,True
245,0.0703776167262309,25,up,up,0.4946623001014814,0.6000962761894453,,experiment,cRDM,0.0,,,,715.2441309000133,90,23,male,True
246,0.0703776167262309,25,up,down,0.6037062000250444,0.5477634593955799,,experiment,cRDM,0.0,,,,716.5440528000472,90,23,male,True
247,0.0703776167262309,25,down,down,0.579803500091657,1.941338334962767,,experiment,cRDM,0.0,,,,719.3439659000142,90,23,male,True
248,0.0703776167262309,25,up,down,0.4972863000584766,1.7140580890443946,,experiment,cRDM,0.0,,,,721.9105472000083,90,23,male,True
249,0.0703776167262309,25,down,down,0.4913028000155464,0.4346603142351072,,experiment,cRDM,0.0,,,,723.1105095000239,90,23,male,True
250,0.0703776167262309,25,up,up,0.4227217000443488,1.4605181264866378,,experiment,cRDM,0.0,,,,725.3270863000071,90,23,male,True
251,0.0703776167262309,25,down,down,0.5051152999512851,0.540553747106202,,experiment,cRDM,0.0,,,,726.5436883000657,90,23,male,True
252,0.0703776167262309,25,up,up,0.6038267000112683,1.326595364614385,,experiment,cRDM,0.0,,,,728.6269624000415,90,23,male,True
253,0.0703776167262309,25,down,down,0.4712966999504715,1.357345076460942,,experiment,cRDM,0.0,,,,730.8604893999873,90,23,male,True
254,0.0703776167262309,25,down,down,0.5570173000451177,1.839008713643522,,experiment,cRDM,0.0,,,,733.4268002000172,90,23,male,True
255,0.0703776167262309,25,down,down,0.4167759000556543,0.8657047195866114,,experiment,cRDM,0.0,,,,735.1267340000486,90,23,male,True
256,0.0703776167262309,25,down,down,0.5321133000543341,1.3745386182998132,,experiment,cRDM,0.0,,,,737.1767102000304,90,23,male,True
257,0.0703776167262309,25,down,down,0.4334267000667751,0.8317910389017842,,experiment,cRDM,0.0,,,,738.7932832000079,90,23,male,True
258,0.0703776167262309,25,up,up,0.4792205999838188,1.0900032873561945,,experiment,cRDM,0.0,,,,740.5765181999886,90,23,male,True
259,0.0703776167262309,25,up,down,0.4896767000900581,1.2256002127408347,,experiment,cRDM,0.0,,,,742.5431152000092,90,23,male,True
260,0.0703776167262309,25,up,down,0.4168107000878081,1.878081793506879,,experiment,cRDM,0.0,,,,745.1763543999987,90,23,male,True
261,0.0703776167262309,25,up,up,0.4687561000464484,1.1876014880817551,,experiment,cRDM,0.0,,,,747.0429627000121,90,23,male,True
262,81.0,25,M,up,0.7451353999786079,1.6187791051249156,,experiment,emotion,0.0,,,,754.8926570999902,90,23,male,True
263,67.0,25,M,down,0.6881498999428004,1.8725788540717525,,experiment,emotion,0.0,,,,757.792560000089,90,23,male,True
264,76.0,25,F,up,1.0263204000657424,1.2863934477695722,,experiment,emotion,0.0,,,,760.059430400026,90,23,male,True
265,81.0,25,F,up,0.566420300048776,0.8061487711112236,,experiment,emotion,0.0,,,,762.1593598000472,90,23,male,True
266,76.0,25,M,down,0.5718364999629557,1.6669307636498223,,experiment,emotion,0.0,,,,764.658952100086,90,23,male,True
267,72.0,25,F,up,1.1772436000173911,1.963551846218893,,experiment,emotion,0.0,,,,767.4755493000848,90,23,male,True
268,67.0,25,M,up,0.6796695999801159,0.4609874359002164,,experiment,emotion,0.0,,,,769.3921351999743,90,23,male,True
269,72.0,25,M,up,0.788359500002116,1.4398265546083358,,experiment,emotion,0.0,,,,771.7753886000719,90,23,male,True
270,81.0,25,F,up,0.9634568999754264,0.9939672462369952,,experiment,emotion,0.0,,,,773.8253363000695,90,23,male,True
271,72.0,25,F,down,0.8549323999322951,0.9378111728279748,,experiment,emotion,0.0,,,,775.9918927000836,90,23,male,True
272,76.0,25,F,up,0.953619199921377,0.5417487571901083,,experiment,emotion,0.0,,,,777.675161399995,90,23,male,True
273,81.0,25,F,up,0.6703675000462681,1.5977214889149798,,experiment,emotion,0.0,,,,780.508398200036,90,23,male,True
274,76.0,25,F,down,0.7568303999723867,1.776393945330234,,experiment,emotion,0.0,,,,783.2249678000808,90,23,male,True
275,67.0,25,F,down,0.6142774999607354,1.46900487975476,,experiment,emotion,0.0,,,,785.7415262000868,90,23,male,True
276,72.0,25,M,down,0.6436749000567943,1.771250439439092,,experiment,emotion,0.0,,,,788.4081196000334,90,23,male,True
277,67.0,25,M,down,0.5098035000264645,1.0324334456965345,,experiment,emotion,0.0,,,,790.3580255000852,90,23,male,True
278,81.0,25,M,down,0.7798366999486461,1.9560904505228944,,experiment,emotion,0.0,,,,793.1079300000565,90,23,male,True
279,67.0,25,M,down,0.913567899959162,1.2888156453825503,,experiment,emotion,0.0,,,,795.4411917000543,90,23,male,True
280,76.0,25,F,up,0.9490502000553532,0.8284668227696297,,experiment,emotion,0.0,,,,797.4577605000231,90,23,male,True
281,76.0,25,M,up,0.6406923000467941,1.2123782735575312,,experiment,emotion,0.0,,,,799.8910102000227,90,23,male,True
282,72.0,25,M,up,0.5615114999236539,1.5303754837094097,,experiment,emotion,0.0,,,,802.3242529000854,90,23,male,True
283,72.0,25,F,up,0.6045614000177011,0.562063305895574,,experiment,emotion,0.0,,,,803.7242104000179,90,23,male,True
284,67.0,25,M,up,0.8989751000190154,1.3959691219669836,,experiment,emotion,0.0,,,,805.9908176000463,90,23,male,True
285,81.0,25,F,up,0.5380606999387965,1.5256509104220022,,experiment,emotion,0.0,,,,808.690695199999,90,23,male,True
286,76.0,25,F,up,0.670489399926737,0.9497449529602042,,experiment,emotion,0.0,,,,810.4572794000851,90,23,male,True
287,67.0,25,M,down,1.2855029000202194,0.3116657970939152,,experiment,emotion,0.0,,,,811.7072484000819,90,23,male,True
288,81.0,25,M,down,0.9002227999735624,1.0763150050129076,,experiment,emotion,0.0,,,,814.34049219999,90,23,male,True
289,81.0,25,F,down,1.168373900000006,1.6729903750649446,,experiment,emotion,0.0,,,,817.1903873999836,90,23,male,True
290,72.0,25,M,down,0.7564860999118537,0.5030363116790054,,experiment,emotion,0.0,,,,819.1402883999981,90,23,male,True
291,67.0,25,F,down,0.5702038999879733,0.4580066828019224,,experiment,emotion,0.0,,,,820.6235860000597,90,23,male,True
292,72.0,25,F,down,0.6342504000058398,1.9496030180266997,,experiment,emotion,0.0,,,,823.4234745000722,90,23,male,True
293,76.0,25,F,down,0.7917536000022665,0.510499416507877,,experiment,emotion,0.0,,,,824.8400789999869,90,23,male,True
294,67.0,25,M,down,0.6117396000772715,0.9424550582804744,,experiment,emotion,0.0,,,,826.8400103000458,90,23,male,True
295,81.0,25,M,down,0.9758464000187814,1.8158629650405853,,experiment,emotion,0.0,,,,829.5399062000215,90,23,male,True
296,76.0,25,M,down,0.994275699951686,1.7148074968619125,,experiment,emotion,0.0,,,,832.5064799999818,90,23,male,True
297,81.0,25,F,down,0.637385500012897,1.282571635909871,,experiment,emotion,0.0,,,,835.0563623000635,90,23,male,True
298,67.0,25,F,down,0.8307564000133425,0.9121536655511272,,experiment,emotion,0.0,,,,836.8729935000883,90,23,male,True
299,76.0,25,M,down,0.8492186999646947,1.3277065204097327,,experiment,emotion,0.0,,,,839.2895652999869,90,23,male,True
300,72.0,25,F,down,1.2273646999383343,1.4167497068470742,,experiment,emotion,0.0,,,,841.8394476000685,90,23,male,True
301,72.0,25,M,down,1.1146983000217006,1.1167727656825104,,experiment,emotion,0.0,,,,844.4560213000514,90,23,male,True
302,76.0,25,M,down,1.0324903998989612,0.7468896241819212,,experiment,emotion,0.0,,,,846.589301400003,90,23,male,True
303,81.0,25,M,up,0.4432555999374017,0.5196688452582445,,experiment,emotion,0.0,,,,848.4225483000046,90,23,male,True
304,72.0,25,F,down,0.8445395999588072,0.400003616000251,,experiment,emotion,0.0,,,,849.5391696000006,90,23,male,True
305,67.0,25,F,down,0.631229699938558,1.999230520758557,,experiment,emotion,0.0,,,,852.6555273000849,90,23,male,True
306,67.0,25,M,down,1.0427857000613583,0.4462006842149981,,experiment,emotion,0.0,,,,853.9890229000011,90,23,male,True
307,72.0,25,F,up,0.5798451999435201,1.889712628492093,,experiment,emotion,0.0,,,,857.1889039999805,90,23,male,True
308,81.0,25,F,up,0.9332909999648108,1.635294412799972,,experiment,emotion,0.0,,,,859.6554603000404,90,23,male,True
309,76.0,25,M,down,1.1256630999268964,0.6419198239501087,,experiment,emotion,0.0,,,,861.5220871000784,90,23,male,True
310,67.0,25,M,up,0.5864272000035271,1.0422320414215187,,experiment,emotion,0.0,,,,863.9553042000625,90,23,male,True
311,81.0,25,F,up,0.5449420000659302,1.5553746358025826,,experiment,emotion,0.0,,,,866.3718365000095,90,23,male,True
312,76.0,25,M,up,0.674217400024645,0.9086164662347682,,experiment,emotion,0.0,,,,868.0885267000413,90,23,male,True
313,76.0,25,F,up,0.4827444000402465,0.8098987989548536,,experiment,emotion,0.0,,,,869.855009800056,90,23,male,True
314,67.0,25,F,down,0.6027215999783948,0.7557934891708602,,experiment,emotion,0.0,,,,871.3550492000068,90,23,male,True
315,72.0,25,F,down,0.8554421999724582,1.4830038724339825,,experiment,emotion,0.0,,,,873.7383094000397,90,23,male,True
316,81.0,25,M,down,0.8848608999978751,1.5309248227177972,,experiment,emotion,0.0,,,,876.4048820000608,90,23,male,True
317,72.0,25,M,down,0.7349686999805272,0.9452516667904168,,experiment,emotion,0.0,,,,878.5047935000621,90,23,male,True
318,72.0,25,F,down,0.753110000048764,1.8907452723637803,,experiment,emotion,0.0,,,,881.4046636000276,90,23,male,True
319,72.0,25,F,down,0.6384915000526235,1.688386994316893,,experiment,emotion,0.0,,,,884.1212564000161,90,23,male,True
320,81.0,25,M,up,0.5299618999706581,1.4977720127906289,,experiment,emotion,0.0,,,,886.537809100002,90,23,male,True
321,76.0,25,M,down,0.6776887000305578,0.8838770076212723,,experiment,emotion,0.0,,,,888.2210803000489,90,23,male,True
322,67.0,25,M,up,0.8637136000907049,1.089932477443293,,experiment,emotion,0.0,,,,890.27102320001,90,23,male,True
323,67.0,25,M,down,0.66113690007478,0.8484065079223098,,experiment,emotion,0.0,,,,892.2376053000335,90,23,male,True
324,76.0,25,M,up,0.5231796000152826,0.433478031743735,,experiment,emotion,0.0,,,,893.5875695000868,90,23,male,True
325,81.0,25,F,up,0.5632188000017777,1.3043807627495427,,experiment,emotion,0.0,,,,895.6874899000395,90,23,male,True
326,81.0,25,F,up,0.5030007999157533,0.845663513087439,,experiment,emotion,0.0,,,,897.3707652000012,90,23,male,True
327,67.0,25,M,up,0.8794512000167742,1.7051872499157603,,experiment,emotion,0.0,,,,899.8373456000118,90,23,male,True
328,81.0,25,F,up,0.8845503999618813,1.903130800303069,,experiment,emotion,0.0,,,,902.887225600076,90,23,male,True
329,72.0,25,F,up,0.5966252000071108,1.5854529468998422,,experiment,emotion,0.0,,,,905.6371192000806,90,23,male,True
330,76.0,25,F,down,0.9276549000060186,0.7586453008176481,,experiment,emotion,0.0,,,,907.28709290002,90,23,male,True
331,72.0,25,M,down,0.6031156999524683,0.3127874631473874,,experiment,emotion,0.0,,,,908.8036873000674,90,23,male,True
332,67.0,25,F,down,0.6165305000031367,1.965896835618568,,experiment,emotion,0.0,,,,911.670238199993,90,23,male,True
333,76.0,25,F,down,0.6999412999721244,0.7389430958477065,,experiment,emotion,0.0,,,,913.2868369000498,90,23,male,True
334,72.0,25,F,down,0.554308700026013,1.5058489069925165,,experiment,emotion,0.0,,,,915.7534322000574,90,23,male,True
335,76.0,25,M,down,0.6774138000328094,1.0336323871348234,,experiment,emotion,0.0,,,,917.603351800004,90,23,male,True
336,67.0,25,M,down,0.7034860999556258,0.4639429658029994,,experiment,emotion,0.0,,,,919.0033104000612,90,23,male,True
337,81.0,25,F,down,0.7386657999595627,1.571224848211053,,experiment,emotion,0.0,,,,921.5530662999954,90,23,male,True
338,76.0,25,M,down,0.5819387000519782,0.4921047048733629,,experiment,emotion,0.0,,,,923.0698170000688,90,23,male,True
339,81.0,25,F,up,0.6503099000547081,1.9112333747060708,,experiment,emotion,0.0,,,,925.8363870000468,90,23,male,True
340,67.0,25,M,down,0.6360716999042779,0.8073535677722805,,experiment,emotion,0.0,,,,927.569685399998,90,23,male,True
341,72.0,25,M,down,0.5968382999999449,0.5567298842510326,,experiment,emotion,0.0,,,,929.0529191000388,90,23,male,True
342,0.0703776167262309,25,up,up,1.6584078000159934,1.08487935910583,,experiment,cRDM,1.0,,,,950.0853533999762,90,23,male,True
343,0.0703776167262309,25,up,up,0.6438703999156132,1.841280253844816,,experiment,cRDM,1.0,,,,953.8518680999988,90,23,male,True
344,0.0703776167262309,25,down,down,0.5348106999881566,0.5554470409789606,,experiment,cRDM,1.0,,,,955.3019577000524,90,23,male,True
345,0.0703776167262309,25,down,down,0.5342154999962077,1.9680025325502648,,experiment,cRDM,1.0,,,,958.068517100066,90,23,male,True
346,0.0703776167262309,25,up,up,0.5413114000111818,0.8173658776694672,,experiment,cRDM,1.0,,,,959.6684323999798,90,23,male,True
347,0.0703776167262309,25,down,down,0.4813135999720543,0.7613858008910177,,experiment,cRDM,1.0,,,,961.2184206000528,90,23,male,True
348,0.0703776167262309,25,up,up,0.7950160000473261,1.400956611974894,,experiment,cRDM,1.0,,,,963.3516717000166,90,23,male,True
349,0.0703776167262309,25,up,up,0.582823000033386,0.7717169022875068,,experiment,cRDM,1.0,,,,965.184936100035,90,23,male,True
350,0.0703776167262309,25,down,down,0.5162686000112444,1.823209322856818,,experiment,cRDM,1.0,,,,967.8514944000636,90,23,male,True
351,0.0703776167262309,25,down,down,0.5233239999506623,1.6222884158591568,,experiment,cRDM,1.0,,,,970.25144370005,90,23,male,True
352,0.0703776167262309,25,down,down,0.4814219999825582,1.5647592296467732,,experiment,cRDM,1.0,,,,972.6013308999828,90,23,male,True
353,0.0703776167262309,25,down,down,0.5727735999971628,0.4200836580258447,,experiment,cRDM,1.0,,,,973.7679801000048,90,23,male,True
354,0.0703776167262309,25,down,up,0.3338331999257207,0.8368844417342687,,experiment,cRDM,1.0,,,,975.4345631999896,90,23,male,True
355,0.0703776167262309,25,down,down,0.6268842000281438,1.1622502296696733,,experiment,cRDM,1.0,,,,977.2678468000375,90,23,male,True
356,0.0703776167262309,25,up,up,0.4473650000290945,0.636992932926231,,experiment,cRDM,1.0,,,,978.7844336000272,90,23,male,True
357,0.0703776167262309,25,up,up,0.4580918999854475,0.7766421614352479,,experiment,cRDM,1.0,,,,980.2676387000828,90,23,male,True
358,0.0703776167262309,25,up,down,0.6744146998971701,1.2910789809426355,,experiment,cRDM,1.0,,,,982.2843067999928,90,23,male,True
359,0.0703776167262309,25,up,down,0.5428397000068799,1.6271120924051878,,experiment,cRDM,1.0,,,,984.8509155000792,90,23,male,True
360,0.0703776167262309,25,down,up,0.6976473999675363,1.97416758830562,,experiment,cRDM,1.0,,,,987.6340903000672,90,23,male,True
361,0.0703776167262309,25,up,up,0.6801437999820337,1.0520650602264523,,experiment,cRDM,1.0,,,,989.650605199975,90,23,male,True
362,0.0703776167262309,25,up,up,0.6500996000831947,1.4547756641188216,,experiment,cRDM,1.0,,,,992.0506394000258,90,23,male,True
363,0.0703776167262309,25,down,down,0.6632162000751123,0.8399836928429998,,experiment,cRDM,1.0,,,,993.8005632000276,90,23,male,True
364,0.0703776167262309,25,up,up,0.4389874000335112,0.393469402706706,,experiment,cRDM,1.0,,,,995.1337934000184,90,23,male,True
365,0.0703776167262309,25,down,down,0.5986087000928819,0.876666812844451,,experiment,cRDM,1.0,,,,996.7171324000228,90,23,male,True
366,0.0703776167262309,25,down,down,0.6290250000311062,0.7519655762123754,,experiment,cRDM,1.0,,,,998.333716000081,90,23,male,True
367,0.0703776167262309,25,up,up,0.4391329999780282,0.6155366194310077,,experiment,cRDM,1.0,,,,999.8335944000864,90,23,male,True
368,0.0703776167262309,25,up,up,0.7587767000077292,1.2369720459503646,,experiment,cRDM,1.0,,,,1001.766946900054,90,23,male,True
369,0.0703776167262309,25,down,down,0.5272572999820113,1.6964678454065183,,experiment,cRDM,1.0,,,,1004.4834928000346,90,23,male,True
370,0.0703776167262309,25,up,up,0.4186856999294832,0.9714083054572096,,experiment,cRDM,1.0,,,,1006.250029399991,90,23,male,True
371,0.0703776167262309,25,down,down,0.5008685000939295,1.1196645084788133,,experiment,cRDM,1.0,,,,1008.0498564000007,90,23,male,True
372,0.0703776167262309,25,down,down,0.4894732000539079,0.7250259610109011,,experiment,cRDM,1.0,,,,1009.5332890000428,90,23,male,True
373,0.0703776167262309,25,down,down,0.6014613999286667,1.6971957382139222,,experiment,cRDM,1.0,,,,1011.9832426999928,90,23,male,True
374,0.0703776167262309,25,up,up,0.5659208000870422,0.8466134821876612,,experiment,cRDM,1.0,,,,1013.6998263000278,90,23,male,True
375,0.0703776167262309,25,up,up,0.8079577999887988,0.9728218500833584,,experiment,cRDM,1.0,,,,1015.4997639000647,90,23,male,True
376,0.0703776167262309,25,up,down,0.4283887998899445,1.1025531640610409,,experiment,cRDM,1.0,,,,1017.6663552999962,90,23,male,True
377,0.0703776167262309,25,down,down,0.4654342000139877,1.157644549687137,,experiment,cRDM,1.0,,,,1019.5162945999764,90,23,male,True
378,0.0703776167262309,25,down,down,0.4846066000172868,1.5145254820581315,,experiment,cRDM,1.0,,,,1021.7661815000464,90,23,male,True
379,0.0703776167262309,25,up,up,0.51929199998267,0.8923210427911874,,experiment,cRDM,1.0,,,,1023.3994653000263,90,23,male,True
380,0.0703776167262309,25,down,down,0.4831230000127107,1.953797404880256,,experiment,cRDM,1.0,,,,1026.1326796000358,90,23,male,True
381,0.0703776167262309,25,up,up,0.4168014000169933,1.2093693600166573,,experiment,cRDM,1.0,,,,1028.099300700007,90,23,male,True
382,0.0703776167262309,25,up,up,0.9258438999531792,0.9400006922630562,,experiment,cRDM,1.0,,,,1029.7159026000882,90,23,male,True
383,0.0703776167262309,25,up,up,0.4499007000122219,1.0693268066703694,,experiment,cRDM,1.0,,,,1031.965853700065,90,23,male,True
384,0.0703776167262309,25,down,down,0.5093304000329226,0.7952856987569266,,experiment,cRDM,1.0,,,,1033.4824181000004,90,23,male,True
385,0.0703776167262309,25,down,down,0.6123544001020491,1.08076489952564,,experiment,cRDM,1.0,,,,1035.3323455000063,90,23,male,True
386,0.0703776167262309,25,up,down,0.6670869999798015,0.94555194671453,,experiment,cRDM,1.0,,,,1037.1656572000356,90,23,male,True
387,0.0703776167262309,25,down,down,0.5514757999917492,0.4875529003178273,,experiment,cRDM,1.0,,,,1038.5822451000568,90,23,male,True
388,0.0703776167262309,25,down,down,0.5439596999203786,0.5576805181341689,,experiment,cRDM,1.0,,,,1039.9487804999808,90,23,male,True
389,0.0703776167262309,25,up,up,0.3839975000591948,0.685970780618693,,experiment,cRDM,1.0,,,,1041.4486016000155,90,23,male,True
390,0.0703776167262309,25,up,up,0.6247027000645176,1.757603483263041,,experiment,cRDM,1.0,,,,1043.882037900039,90,23,male,True
391,0.0703776167262309,25,down,down,0.5784712999593467,1.5486096267961058,,experiment,cRDM,1.0,,,,1046.315274200053,90,23,male,True
392,0.0703776167262309,25,up,up,0.5101834000088274,0.6437064269342185,,experiment,cRDM,1.0,,,,1047.7985642000567,90,23,male,True
393,0.0703776167262309,25,down,down,0.4168674000538885,0.9523140634930708,,experiment,cRDM,1.0,,,,1049.5317849999992,90,23,male,True
394,0.0703776167262309,25,down,down,0.5129557000473142,1.815375261997983,,experiment,cRDM,1.0,,,,1052.0317407000111,90,23,male,True
395,0.0703776167262309,25,down,down,0.4860600000247359,1.270714579303231,,experiment,cRDM,1.0,,,,1054.0816798000596,90,23,male,True
396,0.0703776167262309,25,up,up,0.4568019999423995,0.4441723702304162,,experiment,cRDM,1.0,,,,1055.2649478000822,90,23,male,True
397,0.0703776167262309,25,up,down,0.5838362999493256,0.93699345274123,,experiment,cRDM,1.0,,,,1056.914894900052,90,23,male,True
398,0.0703776167262309,25,down,down,0.5423891999525949,0.8789225090732931,,experiment,cRDM,1.0,,,,1058.6313256000867,90,23,male,True
399,0.0703776167262309,25,down,down,0.5375610999763012,0.4088567636409867,,experiment,cRDM,1.0,,,,1059.8481748000486,90,23,male,True
400,0.0703776167262309,25,up,down,0.4714492000639438,1.7280204459460269,,experiment,cRDM,1.0,,,,1062.3813481000252,90,23,male,True
401,0.0703776167262309,25,up,down,0.4884451000252738,1.0655051950232906,,experiment,cRDM,1.0,,,,1064.1812990000471,90,23,male,True
402,0.0703776167262309,25,up,up,0.6708273999392986,1.429095616163312,,experiment,cRDM,1.0,,,,1066.347901900066,90,23,male,True
403,0.0703776167262309,25,up,down,0.7932432000525296,0.9234877821219658,,experiment,cRDM,1.0,,,,1068.2144906000467,90,23,male,True
404,0.0703776167262309,25,up,up,0.4249565999489277,0.4885240461769372,,experiment,cRDM,1.0,,,,1069.7477668999927,90,23,male,True
405,0.0703776167262309,25,down,down,0.5460766999749467,0.9151999525287192,,experiment,cRDM,1.0,,,,1071.347642900073,90,23,male,True
406,0.0703776167262309,25,down,down,0.5204237999860197,1.6509174986022337,,experiment,cRDM,1.0,,,,1073.8142944000429,90,23,male,True
407,0.0703776167262309,25,up,down,0.4168025000253692,0.9034547300290708,,experiment,cRDM,1.0,,,,1075.5142240000423,90,23,male,True
408,0.0703776167262309,25,down,up,0.3004250000230968,1.3631404529132034,,experiment,cRDM,1.0,,,,1077.5474589000223,90,23,male,True
409,0.0703776167262309,25,down,down,0.495298899943009,1.2739713808504618,,experiment,cRDM,1.0,,,,1079.497410400072,90,23,male,True
410,0.0703776167262309,25,down,down,0.4726914999773726,1.153048396717219,,experiment,cRDM,1.0,,,,1081.4140197000231,90,23,male,True
411,0.0703776167262309,25,up,up,0.4867672000546008,0.7633771277101701,,experiment,cRDM,1.0,,,,1082.913947400055,90,23,male,True
412,0.0703776167262309,25,down,down,0.4795423001050949,1.4303369341550944,,experiment,cRDM,1.0,,,,1085.097190600005,90,23,male,True
413,0.0703776167262309,25,down,down,0.4912738000275567,1.3810890142957564,,experiment,cRDM,1.0,,,,1087.2304502000334,90,23,male,True
414,0.0703776167262309,25,down,down,0.5146664999192581,1.6150013982180995,,experiment,cRDM,1.0,,,,1089.5970506999874,90,23,male,True
415,0.0703776167262309,25,up,up,0.4699322000378743,1.4788040051073057,,experiment,cRDM,1.0,,,,1091.8467777000042,90,23,male,True
416,0.0703776167262309,25,up,down,0.4691711999475956,1.732768968747166,,experiment,cRDM,1.0,,,,1094.313547000056,90,23,male,True
417,0.0703776167262309,25,down,down,0.6039014999987558,0.460732118723836,,experiment,cRDM,1.0,,,,1095.4968127000611,90,23,male,True
418,0.0703776167262309,25,up,down,0.4306740000611171,1.8630658149795465,,experiment,cRDM,1.0,,,,1098.2300376000348,90,23,male,True
419,0.0703776167262309,25,down,down,0.5437257000012323,0.4614962420084628,,experiment,cRDM,1.0,,,,1099.380006600055,90,23,male,True
420,0.0703776167262309,25,up,down,0.4908478000434115,1.3333163567762711,,experiment,cRDM,1.0,,,,1101.529906700016,90,23,male,True
421,0.0703776167262309,25,up,down,0.4763475999934599,0.5707605046003914,,experiment,cRDM,1.0,,,,1102.846383500029,90,23,male,True
422,81.0,25,M,down,0.8119558999314904,0.8907927968369977,,experiment,emotion,1.0,,,,1106.8297290999908,90,23,male,True
423,67.0,25,M,down,0.6353896999498829,1.6104316673438483,,experiment,emotion,1.0,,,,1109.5463090999983,90,23,male,True
424,76.0,25,F,down,0.5227792999939993,0.9844872343297442,,experiment,emotion,1.0,,,,1111.4629174000584,90,23,male,True
425,81.0,25,F,down,0.4862765000434592,1.7408187215202222,,experiment,emotion,1.0,,,,1113.9794620000755,90,23,male,True
426,76.0,25,M,down,0.4870514000067487,1.1693618275137283,,experiment,emotion,1.0,,,,1115.9127194000175,90,23,male,True
427,72.0,25,F,down,0.5270554999588057,1.3837427254767234,,experiment,emotion,1.0,,,,1118.062660100055,90,23,male,True
428,67.0,25,M,down,0.5195308000547811,1.5199655016954352,,experiment,emotion,1.0,,,,1120.3792275000596,90,23,male,True
429,72.0,25,M,down,0.4562348999315873,1.4765845058287443,,experiment,emotion,1.0,,,,1122.662482600077,90,23,male,True
430,81.0,25,F,down,0.5099705000175163,1.6136020319056097,,experiment,emotion,1.0,,,,1124.9957141000775,90,23,male,True
431,72.0,25,F,down,0.4002777000423521,1.3681348041364172,,experiment,emotion,1.0,,,,1127.1455513000255,90,23,male,True
432,76.0,25,F,down,0.5204930999316275,1.718716682725617,,experiment,emotion,1.0,,,,1129.5622229999865,90,23,male,True
433,81.0,25,F,down,0.6405904999701306,1.8636551129744428,,experiment,emotion,1.0,,,,1132.2121215000516,90,23,male,True
434,76.0,25,F,down,0.5643390999175608,1.9700796077399136,,experiment,emotion,1.0,,,,1135.0953533999857,90,23,male,True
435,67.0,25,F,down,0.5274178000399843,0.8335653716161857,,experiment,emotion,1.0,,,,1136.795291300048,90,23,male,True
436,72.0,25,M,down,0.4832342000445351,1.85257213417306,,experiment,emotion,1.0,,,,1139.44546800002,90,23,male,True
437,67.0,25,M,down,0.5559130000183359,1.359801190062344,,experiment,emotion,1.0,,,,1141.5617938999785,90,23,male,True
438,81.0,25,M,down,0.5506900999462232,1.058007204581064,,experiment,emotion,1.0,,,,1143.4450068000006,90,23,male,True
439,67.0,25,M,down,0.6428959000622854,1.9754263532682608,,experiment,emotion,1.0,,,,1146.2448384000454,90,23,male,True
440,76.0,25,F,up,0.8554794000228867,0.356751973013438,,experiment,emotion,1.0,,,,1147.528228900046,90,23,male,True
441,76.0,25,M,down,0.6724165000487119,1.4149390926199332,,experiment,emotion,1.0,,,,1150.0613114000298,90,23,male,True
442,72.0,25,M,down,0.6260373999830335,1.9318898063144028,,experiment,emotion,1.0,,,,1152.9446638000663,90,23,male,True
443,72.0,25,F,up,0.8870623999973759,0.9564632649577348,,experiment,emotion,1.0,,,,1154.7946448000148,90,23,male,True
444,67.0,25,M,down,1.0144749999744818,0.9552724486440898,,experiment,emotion,1.0,,,,1156.911227600067,90,23,male,True
445,81.0,25,F,up,0.8029589999932796,1.123119212745423,,experiment,emotion,1.0,,,,1159.327784000081,90,23,male,True
446,76.0,25,F,up,1.276447799988091,1.7279838401068643,,experiment,emotion,1.0,,,,1162.1442536000395,90,23,male,True
447,67.0,25,M,up,0.9161064000800252,0.3817554575370219,,experiment,emotion,1.0,,,,1164.0776243000291,90,23,male,True
448,81.0,25,M,up,0.8182097000535578,1.2127749852631184,,experiment,emotion,1.0,,,,1166.477532000048,90,23,male,True
449,81.0,25,F,up,0.7195827000541613,1.2207172666384865,,experiment,emotion,1.0,,,,1168.7941124000354,90,23,male,True
450,72.0,25,M,down,0.9434089999413118,1.895194826098811,,experiment,emotion,1.0,,,,1171.677349300007,90,23,male,True
451,67.0,25,F,down,0.9391012999694794,1.632694070158502,,experiment,emotion,1.0,,,,1174.510558100068,90,23,male,True
452,72.0,25,F,up,0.6945269000716507,0.7106008496193739,,experiment,emotion,1.0,,,,1176.4271819000132,90,23,male,True
453,76.0,25,F,up,0.9002662999555469,1.1547535939917704,,experiment,emotion,1.0,,,,1178.560418899986,90,23,male,True
454,67.0,25,M,up,0.6837516999803483,1.5387413658510378,,experiment,emotion,1.0,,,,1181.2769808999728,90,23,male,True
455,81.0,25,M,up,0.686073400080204,1.003883347903579,,experiment,emotion,1.0,,,,1183.2436256000074,90,23,male,True
456,76.0,25,M,up,0.8718375000171363,0.7651098319863348,,experiment,emotion,1.0,,,,1184.9768443000503,90,23,male,True
457,81.0,25,F,up,0.4866305000614375,0.486159547852065,,experiment,emotion,1.0,,,,1186.6101119000232,90,23,male,True
458,67.0,25,F,up,0.5319901000475511,1.2991882167975044,,experiment,emotion,1.0,,,,1188.6767111000372,90,23,male,True
459,76.0,25,M,up,0.5782284999731928,0.639947627855876,,experiment,emotion,1.0,,,,1190.126494300086,90,23,male,True
460,72.0,25,F,up,0.8014421999687329,0.6193470298795858,,experiment,emotion,1.0,,,,1191.5932856000727,90,23,male,True
461,72.0,25,M,up,0.8538707999978215,1.4935506467567845,,experiment,emotion,1.0,,,,1194.1598398999777,90,23,male,True
462,76.0,25,M,down,0.6542785000056028,1.2403594656400003,,experiment,emotion,1.0,,,,1196.526416699984,90,23,male,True
463,81.0,25,M,up,0.8743553999811411,0.8185836724284639,,experiment,emotion,1.0,,,,1198.2763627000386,90,23,male,True
464,72.0,25,F,up,0.5487443000311032,0.4759416913393084,,experiment,emotion,1.0,,,,1199.8929703000467,90,23,male,True
465,67.0,25,F,up,0.5624459999380633,0.5197730630417947,,experiment,emotion,1.0,,,,1201.226241700002,90,23,male,True
466,67.0,25,M,up,0.5051642999751493,0.5703232910892011,,experiment,emotion,1.0,,,,1202.6095349000534,90,23,male,True
467,72.0,25,F,down,0.6130605000071228,0.6615998324756056,,experiment,emotion,1.0,,,,1204.042672600015,90,23,male,True
468,81.0,25,F,up,0.6442583000753075,0.3900399115209813,,experiment,emotion,1.0,,,,1205.3094442000147,90,23,male,True
469,76.0,25,M,up,0.590655800071545,1.344375452414739,,experiment,emotion,1.0,,,,1207.5760164000094,90,23,male,True
470,67.0,25,M,up,0.4967373999534175,0.3991455534961405,,experiment,emotion,1.0,,,,1208.8259800000817,90,23,male,True
471,81.0,25,F,up,0.9108069000067188,1.9320737916264872,,experiment,emotion,1.0,,,,1211.5258624000708,90,23,male,True
472,76.0,25,M,up,0.5742047000676394,1.2963711030555387,,experiment,emotion,1.0,,,,1213.9924655000214,90,23,male,True
473,76.0,25,F,up,0.9175746999680996,0.5214214004887793,,experiment,emotion,1.0,,,,1215.3591084000657,90,23,male,True
474,67.0,25,F,up,0.7447720000054687,0.5232682133571638,,experiment,emotion,1.0,,,,1217.0589659999823,90,23,male,True
475,72.0,25,F,up,0.7828044999623671,1.7152786879280195,,experiment,emotion,1.0,,,,1219.8088893999811,90,23,male,True
476,81.0,25,M,up,0.8378820000216365,1.1928320515992434,,experiment,emotion,1.0,,,,1222.0588213000449,90,23,male,True
477,72.0,25,M,down,0.8849640000844374,0.9949295249186768,,experiment,emotion,1.0,,,,1224.1587603000223,90,23,male,True
478,72.0,25,F,down,0.6344666000222787,1.7181253290035083,,experiment,emotion,1.0,,,,1227.025283300085,90,23,male,True
479,72.0,25,F,down,0.6154714000876993,0.8541234230689887,,experiment,emotion,1.0,,,,1228.77526080003,90,23,male,True
480,81.0,25,M,down,0.5505307000130415,1.6147524491654333,,experiment,emotion,1.0,,,,1231.2751607000828,90,23,male,True
481,76.0,25,M,up,0.8916020999895409,0.6534854220308398,,experiment,emotion,1.0,,,,1232.7750932000345,90,23,male,True
482,67.0,25,M,up,0.9633503999793902,1.1502740311422142,,experiment,emotion,1.0,,,,1235.108338800026,90,23,male,True
483,67.0,25,M,up,0.6960691000567749,0.6484886413503774,,experiment,emotion,1.0,,,,1236.991607600008,90,23,male,True
484,76.0,25,M,up,0.6862399999517947,1.1814845484969776,,experiment,emotion,1.0,,,,1239.1414763000794,90,23,male,True
485,81.0,25,F,down,0.7412559000076726,0.3942225767990358,,experiment,emotion,1.0,,,,1240.4914812999775,90,23,male,True
486,81.0,25,F,up,0.6303963999962434,0.93521382099462,,experiment,emotion,1.0,,,,1242.4413142000558,90,23,male,True
487,67.0,25,M,down,0.6053380999946967,0.6540591562017168,,experiment,emotion,1.0,,,,1243.9913529000478,90,23,male,True
488,81.0,25,F,down,0.7386192999547347,1.7764513384295806,,experiment,emotion,1.0,,,,1246.64112210006,90,23,male,True
489,72.0,25,F,down,0.662606899975799,1.374487859455042,,experiment,emotion,1.0,,,,1249.041170499986,90,23,male,True
490,76.0,25,F,down,0.661329900030978,1.4513914467698243,,experiment,emotion,1.0,,,,1251.4243697000202,90,23,male,True
491,72.0,25,M,down,0.578693899908103,1.023350244142771,,experiment,emotion,1.0,,,,1253.3910063999938,90,23,male,True
492,67.0,25,F,down,0.6265403999714181,1.5869577855669583,,experiment,emotion,1.0,,,,1255.8241487999912,90,23,male,True
493,76.0,25,F,down,0.7267998000606894,0.7204221834731935,,experiment,emotion,1.0,,,,1257.4408717000624,90,23,male,True
494,72.0,25,F,down,0.5712363000493497,0.6657220701072347,,experiment,emotion,1.0,,,,1259.1074509000173,90,23,male,True
495,76.0,25,M,down,0.6419562000082806,1.2975124504298052,,experiment,emotion,1.0,,,,1261.2407216000138,90,23,male,True
496,67.0,25,M,down,0.8517496000276878,1.416542416654781,,experiment,emotion,1.0,,,,1263.573943400057,90,23,male,True
497,81.0,25,F,down,1.0152029999298977,1.7890803960446933,,experiment,emotion,1.0,,,,1266.4905338999815,90,23,male,True
498,76.0,25,M,down,0.7662867999169976,1.3058225548615534,,experiment,emotion,1.0,,,,1269.090429199976,90,23,male,True
499,81.0,25,F,down,0.6236855000024661,1.6244450983953147,,experiment,emotion,1.0,,,,1271.7569959000684,90,23,male,True
500,67.0,25,M,down,0.7007798999547958,0.562383619804405,,experiment,emotion,1.0,,,,1273.2069261000725,90,23,male,True
501,72.0,25,M,down,0.5297788999741897,0.3447630177906311,,experiment,emotion,1.0,,,,1274.5569102000445,90,23,male,True
502,0.0703776167262309,25,up,up,0.5229013999924064,1.43952712988474,,experiment,cRDM,2.0,,,,1393.4358015999896,90,23,male,True
503,0.0703776167262309,25,up,up,0.4575529000721872,0.8888111771188012,,experiment,cRDM,2.0,,,,1395.1191162000175,90,23,male,True
504,0.0703776167262309,25,down,down,0.4953626999631524,0.811810594740024,,experiment,cRDM,2.0,,,,1396.6524119999958,90,23,male,True
505,0.0703776167262309,25,down,down,0.4168104999698698,0.4482727642385249,,experiment,cRDM,2.0,,,,1397.8523566999938,90,23,male,True
506,0.0703776167262309,25,up,up,0.5267301000421867,1.7403014539524284,,experiment,cRDM,2.0,,,,1400.2689361000666,90,23,male,True
507,0.0703776167262309,25,down,down,0.4747815000591799,1.4600107393198762,,experiment,cRDM,2.0,,,,1402.5188842000207,90,23,male,True
508,0.0703776167262309,25,up,up,0.5275914999656379,1.845956595212338,,experiment,cRDM,2.0,,,,1405.1020804999862,90,23,male,True
509,0.0703776167262309,25,up,down,0.4846448999596759,0.3973057768564471,,experiment,cRDM,2.0,,,,1406.302032000036,90,23,male,True
510,0.0703776167262309,25,down,down,0.4866834999993443,0.7018356228783318,,experiment,cRDM,2.0,,,,1407.7519851999823,90,23,male,True
511,0.0703776167262309,25,down,down,0.7727602000813931,0.4553920481647836,,experiment,cRDM,2.0,,,,1408.9519518000309,90,23,male,True
512,0.0703776167262309,25,down,down,0.456158300046809,1.6812693227636213,,experiment,cRDM,2.0,,,,1411.66850410006,90,23,male,True
513,0.0703776167262309,25,down,down,0.4732882999815047,1.926808319235444,,experiment,cRDM,2.0,,,,1414.3183836999815,90,23,male,True
514,0.0703776167262309,25,down,down,0.4623487000353634,0.4600028861038384,,experiment,cRDM,2.0,,,,1415.5183163000038,90,23,male,True
515,0.0703776167262309,25,down,down,0.4167839000001549,0.7100664978678597,,experiment,cRDM,2.0,,,,1416.9516627000412,90,23,male,True
516,0.0703776167262309,25,up,down,0.4471282999729737,1.778688224193584,,experiment,cRDM,2.0,,,,1419.4015451000305,90,23,male,True
517,0.0703776167262309,25,up,down,0.546810100087896,0.3683316220926469,,experiment,cRDM,2.0,,,,1420.4848809000105,90,23,male,True
518,0.0703776167262309,25,up,down,0.5202170999255031,0.5447657889802676,,experiment,cRDM,2.0,,,,1421.8514703999972,90,23,male,True
519,0.0703776167262309,25,up,down,0.4392923000268638,1.765399792849757,,experiment,cRDM,2.0,,,,1424.4013941000449,90,23,male,True
520,0.0703776167262309,25,down,down,0.5564132999861613,1.8536723029546105,,experiment,cRDM,2.0,,,,1426.9512753000015,90,23,male,True
521,0.0703776167262309,25,up,down,0.4663651000009849,0.6801410889587323,,experiment,cRDM,2.0,,,,1428.451299800072,90,23,male,True
522,0.0703776167262309,25,up,down,0.5872140000574291,1.9091862878999488,,experiment,cRDM,2.0,,,,1431.0844754000427,90,23,male,True
523,0.0703776167262309,25,down,down,0.615504699992016,0.6041837543743646,,experiment,cRDM,2.0,,,,1432.5342448999872,90,23,male,True
524,0.0703776167262309,25,up,down,0.5075891999294981,0.535246579144151,,experiment,cRDM,2.0,,,,1433.951087100082,90,23,male,True
525,0.0703776167262309,25,down,down,0.530732800019905,1.784119513666128,,experiment,cRDM,2.0,,,,1436.500934300013,90,23,male,True
526,0.0703776167262309,25,down,down,0.538384799961932,0.3472698770516118,,experiment,cRDM,2.0,,,,1437.6342607000845,90,23,male,True
527,0.0703776167262309,25,up,up,0.4384634000016376,0.443654253309213,,experiment,cRDM,2.0,,,,1438.8841887000017,90,23,male,True
528,0.0703776167262309,25,up,down,0.4382005999796092,0.9836767836470504,,experiment,cRDM,2.0,,,,1440.5674488000805,90,23,male,True
529,0.0703776167262309,25,down,down,0.6399021999677643,1.329733708764696,,experiment,cRDM,2.0,,,,1442.6007155000698,90,23,male,True
530,0.0703776167262309,25,up,up,0.3335314999567345,0.3289646602450948,,experiment,cRDM,2.0,,,,1443.8342675999738,90,23,male,True
531,0.0703776167262309,25,down,down,0.4450161000713706,0.7410117892515151,,experiment,cRDM,2.0,,,,1445.250643000007,90,23,male,True
532,0.0703776167262309,25,down,down,0.4994796999963,1.462122986379671,,experiment,cRDM,2.0,,,,1447.4171905000694,90,23,male,True
533,0.0703776167262309,25,down,down,0.4916053999913856,0.891485683144772,,experiment,cRDM,2.0,,,,1449.0671425000764,90,23,male,True
534,0.0703776167262309,25,up,down,0.4726109000621363,0.5049696673829156,,experiment,cRDM,2.0,,,,1450.3170915000371,90,23,male,True
535,0.0703776167262309,25,up,down,0.611682900111191,1.93251122619662,,experiment,cRDM,2.0,,,,1452.9669768000022,90,23,male,True
536,0.0703776167262309,25,up,down,0.4720962999854237,0.4435624638256217,,experiment,cRDM,2.0,,,,1454.283610500046,90,23,male,True
537,0.0703776167262309,25,down,down,0.4167548000114038,1.0879852935203302,,experiment,cRDM,2.0,,,,1456.1002216000345,90,23,male,True
538,0.0703776167262309,25,down,down,0.4218488000333309,0.7447563764705398,,experiment,cRDM,2.0,,,,1457.5168074000394,90,23,male,True
539,0.0703776167262309,25,up,up,0.6848844999913126,1.3747751764461158,,experiment,cRDM,2.0,,,,1459.5667839000234,90,23,male,True
540,0.0703776167262309,25,down,down,0.4168992000631988,1.718891735588571,,experiment,cRDM,2.0,,,,1462.2165800000075,90,23,male,True
541,0.0703776167262309,25,up,down,0.4002802999457344,0.6988158100864152,,experiment,cRDM,2.0,,,,1463.599923599977,90,23,male,True
542,0.0703776167262309,25,up,down,0.4167475000722334,1.3461196362714816,,experiment,cRDM,2.0,,,,1465.6332300000358,90,23,male,True
543,0.0703776167262309,25,up,down,0.5088658999884501,1.395570257535906,,experiment,cRDM,2.0,,,,1467.6997731000884,90,23,male,True
544,0.0703776167262309,25,down,down,0.4826358000282198,1.0171447250619807,,experiment,cRDM,2.0,,,,1469.4830622000154,90,23,male,True
545,0.0703776167262309,25,down,down,0.4770687000127509,1.5690050062779464,,experiment,cRDM,2.0,,,,1471.7996218000771,90,23,male,True
546,0.0703776167262309,25,up,up,0.5618287000106648,1.9424515935174385,,experiment,cRDM,2.0,,,,1474.4828635000158,90,23,male,True
547,0.0703776167262309,25,down,down,0.4398690999951213,0.7684866063284252,,experiment,cRDM,2.0,,,,1476.082787499996,90,23,male,True
548,0.0703776167262309,25,down,down,0.4589693000307306,1.998783855431949,,experiment,cRDM,2.0,,,,1478.782709900057,90,23,male,True
549,0.0703776167262309,25,up,down,0.5068067000247538,1.8169223761350173,,experiment,cRDM,2.0,,,,1481.315854500048,90,23,male,True
550,0.0703776167262309,25,up,down,0.5221201999811456,1.0526329933997804,,experiment,cRDM,2.0,,,,1483.1325586000455,90,23,male,True
551,0.0703776167262309,25,down,down,0.44948840001598,1.1297444360559854,,experiment,cRDM,2.0,,,,1485.0491757000564,90,23,male,True
552,0.0703776167262309,25,up,down,0.4732891999883577,1.6310233248295145,,experiment,cRDM,2.0,,,,1487.3823972999817,90,23,male,True
553,0.0703776167262309,25,down,down,0.4489687000168487,1.056664798410273,,experiment,cRDM,2.0,,,,1489.1656710000243,90,23,male,True
554,0.0703776167262309,25,down,down,0.4002738000126555,0.5963778126514134,,experiment,cRDM,2.0,,,,1490.4822761000833,90,23,male,True
555,0.0703776167262309,25,down,down,0.4560959000373259,1.7074369696808274,,experiment,cRDM,2.0,,,,1492.8655257000355,90,23,male,True
556,0.0703776167262309,25,up,down,0.4325995000544935,1.854432772428636,,experiment,cRDM,2.0,,,,1495.4321225000313,90,23,male,True
557,0.0703776167262309,25,up,down,0.4734746000031009,1.0997765876254366,,experiment,cRDM,2.0,,,,1497.21525020001,90,23,male,True
558,0.0703776167262309,25,down,up,0.745997800026089,0.7554871844882406,,experiment,cRDM,2.0,,,,1498.698652400053,90,23,male,True
559,0.0703776167262309,25,down,down,0.4354148999555036,1.1195151556784588,,experiment,cRDM,2.0,,,,1500.8152347999858,90,23,male,True
560,0.0703776167262309,25,up,down,0.4445015999954194,1.6954869627744726,,experiment,cRDM,2.0,,,,1503.21514580003,90,23,male,True
561,0.0703776167262309,25,up,down,0.5209592001046985,0.5053143090736784,,experiment,cRDM,2.0,,,,1504.4316912000068,90,23,male,True
562,0.0703776167262309,25,up,down,0.8540137000381947,1.9274184601767663,,experiment,cRDM,2.0,,,,1507.1316897000652,90,23,male,True
563,0.0703776167262309,25,up,down,0.5764353000558913,1.9582787162343367,,experiment,cRDM,2.0,,,,1510.198218000005,90,23,male,True
564,0.0703776167262309,25,up,down,0.5524735000217333,1.6131254493849312,,experiment,cRDM,2.0,,,,1512.648178500007,90,23,male,True
565,0.0703776167262309,25,down,down,0.450358200003393,0.9699482778790736,,experiment,cRDM,2.0,,,,1514.4313121000305,90,23,male,True
566,0.0703776167262309,25,down,down,0.4919736000010744,1.072501798108708,,experiment,cRDM,2.0,,,,1516.2146609000629,90,23,male,True
567,0.0703776167262309,25,up,up,0.5076993000693619,0.3758327542604521,,experiment,cRDM,2.0,,,,1517.347986000008,90,23,male,True
568,0.0703776167262309,25,down,down,0.43013319990132,1.8413721763236643,,experiment,cRDM,2.0,,,,1519.9645453999983,90,23,male,True
569,0.0703776167262309,25,down,down,0.4652374000288546,1.2538224474329174,,experiment,cRDM,2.0,,,,1521.9144477000227,90,23,male,True
570,0.0703776167262309,25,down,down,0.4769054000498727,0.5682819891238593,,experiment,cRDM,2.0,,,,1523.197743800003,90,23,male,True
571,0.0703776167262309,25,up,down,0.5676937999669462,1.3008449590099698,,experiment,cRDM,2.0,,,,1525.2309587000636,90,23,male,True
572,0.0703776167262309,25,down,down,0.4924345000181347,1.6407983210477983,,experiment,cRDM,2.0,,,,1527.7142255000072,90,23,male,True
573,0.0703776167262309,25,down,down,0.486796100041829,0.8052137114466174,,experiment,cRDM,2.0,,,,1529.2808528000023,90,23,male,True
574,0.0703776167262309,25,down,down,0.5125728000421077,1.0786327512261984,,experiment,cRDM,2.0,,,,1531.1140695000067,90,23,male,True
575,0.0703776167262309,25,up,down,0.5746361999772489,1.3785103756961186,,experiment,cRDM,2.0,,,,1533.264059600071,90,23,male,True
576,0.0703776167262309,25,up,down,0.5354216999839991,1.8049622128906813,,experiment,cRDM,2.0,,,,1535.8972801000343,90,23,male,True
577,0.0703776167262309,25,down,down,0.5691292999545112,1.0950968804453516,,experiment,cRDM,2.0,,,,1537.7805434999757,90,23,male,True
578,0.0703776167262309,25,up,up,0.6018547000130638,0.7064948132986664,,experiment,cRDM,2.0,,,,1539.3137974999845,90,23,male,True
579,0.0703776167262309,25,down,down,0.4167611999437213,0.4906815494243496,,experiment,cRDM,2.0,,,,1540.6637854999865,90,23,male,True
580,0.0703776167262309,25,up,down,0.4286663000239059,1.3507559592398133,,experiment,cRDM,2.0,,,,1542.6970141000347,90,23,male,True
581,0.0703776167262309,25,up,down,0.5186900999397039,1.3050875145694785,,experiment,cRDM,2.0,,,,1544.696975899977,90,23,male,True
582,81.0,25,M,down,0.5387970999581739,0.3258325768047925,,experiment,emotion,2.0,,,,1557.3298305000644,90,23,male,True
583,67.0,25,M,up,1.0352372999768704,1.7420512120057778,,experiment,emotion,2.0,,,,1559.8963890000014,90,23,male,True
584,76.0,25,F,up,0.98940079996828,1.4967313973866156,,experiment,emotion,2.0,,,,1562.6962745999915,90,23,male,True
585,81.0,25,F,down,0.4821065000724047,1.2191461838109046,,experiment,emotion,2.0,,,,1565.1795366000151,90,23,male,True
586,76.0,25,M,down,0.5979082999983802,1.5762964669967745,,experiment,emotion,2.0,,,,1567.512715100078,90,23,male,True
587,72.0,25,F,down,0.501579700037837,0.8489753725596008,,experiment,emotion,2.0,,,,1569.2460601000348,90,23,male,True
588,67.0,25,M,down,0.4001739000668749,0.809608284084933,,experiment,emotion,2.0,,,,1570.8460018000333,90,23,male,True
589,72.0,25,M,down,0.4440408999798819,0.7240305582143323,,experiment,emotion,2.0,,,,1572.2626093000872,90,23,male,True
590,81.0,25,F,down,0.4867852999595925,1.5733376383510207,,experiment,emotion,2.0,,,,1574.5458633999806,90,23,male,True
591,72.0,25,F,down,0.50156160001643,1.7840640414491804,,experiment,emotion,2.0,,,,1577.079088700004,90,23,male,True
592,76.0,25,F,down,0.4822955999989062,1.7534989520231865,,experiment,emotion,2.0,,,,1579.612377100042,90,23,male,True
593,81.0,25,F,down,0.8030631999718025,0.4470389530855189,,experiment,emotion,2.0,,,,1580.795621199999,90,23,male,True
594,76.0,25,F,down,0.4887058000313118,0.4201694108980658,,experiment,emotion,2.0,,,,1582.2789162000408,90,23,male,True
595,67.0,25,F,down,0.4907578999409452,0.3261731693789716,,experiment,emotion,2.0,,,,1583.3788970999883,90,23,male,True
596,72.0,25,M,down,0.6648146000225097,0.3466773475153303,,experiment,emotion,2.0,,,,1584.478831400047,90,23,male,True
597,67.0,25,M,down,0.554205400054343,1.1644317644902809,,experiment,emotion,2.0,,,,1586.5954379000468,90,23,male,True
598,81.0,25,M,down,0.4863015000009909,1.3868866826629258,,experiment,emotion,2.0,,,,1588.7953475000104,90,23,male,True
599,67.0,25,M,down,0.5414257999509573,1.243346355801333,,experiment,emotion,2.0,,,,1590.795264400076,90,23,male,True
600,76.0,25,F,down,0.5530897999415174,0.6198425821366107,,experiment,emotion,2.0,,,,1592.2285339999944,90,23,male,True
601,76.0,25,M,down,0.6468704999424517,1.8034078682801884,,experiment,emotion,2.0,,,,1594.8617711000843,90,23,male,True
602,72.0,25,M,down,0.5132672999752685,0.3381938897904154,,experiment,emotion,2.0,,,,1596.1283739000792,90,23,male,True
603,72.0,25,F,down,0.4739501000149175,1.057040663376396,,experiment,emotion,2.0,,,,1597.9616590000223,90,23,male,True
604,67.0,25,M,down,0.5303841999266297,1.7275474623677232,,experiment,emotion,2.0,,,,1600.428260600078,90,23,male,True
605,81.0,25,F,down,0.6171136000193655,0.8606415339425848,,experiment,emotion,2.0,,,,1602.1114929000614,90,23,male,True
606,76.0,25,F,down,0.4875332000665366,1.3908307954461596,,experiment,emotion,2.0,,,,1604.378106100019,90,23,male,True
607,67.0,25,M,down,0.8092647000448778,0.9258066732107302,,experiment,emotion,2.0,,,,1606.0613692000045,90,23,male,True
608,81.0,25,M,down,0.5957279000431299,1.942142523976824,,experiment,emotion,2.0,,,,1609.0779278000118,90,23,male,True
609,81.0,25,F,down,0.7994273999938741,0.5246541257416922,,experiment,emotion,2.0,,,,1610.461205900065,90,23,male,True
610,72.0,25,M,down,0.5934357999358326,1.2046965619969086,,experiment,emotion,2.0,,,,1612.761123900069,90,23,male,True
611,67.0,25,F,down,0.968626799993217,1.8297476262297687,,experiment,emotion,2.0,,,,1615.4610140000004,90,23,male,True
612,72.0,25,F,down,0.8510619000298902,1.929718321806846,,experiment,emotion,2.0,,,,1618.6275768000633,90,23,male,True
613,76.0,25,F,down,1.191474199993536,1.287618782420364,,experiment,emotion,2.0,,,,1621.0441444000462,90,23,male,True
614,67.0,25,M,down,0.8719637000467628,1.7667658736680996,,experiment,emotion,2.0,,,,1624.2606784000527,90,23,male,True
615,81.0,25,M,up,0.4783974000019952,0.9573172439752256,,experiment,emotion,2.0,,,,1626.3772857000586,90,23,male,True
616,76.0,25,M,up,0.4571270999731496,1.039877425370462,,experiment,emotion,2.0,,,,1628.160554900067,90,23,male,True
617,81.0,25,F,up,0.5905114999040961,0.841937791063248,,experiment,emotion,2.0,,,,1629.7271722999867,90,23,male,True
618,67.0,25,F,down,0.7163836000254378,1.8104383652431089,,experiment,emotion,2.0,,,,1632.4102499000728,90,23,male,True
619,76.0,25,M,up,0.9324237999971956,0.7220481858650327,,experiment,emotion,2.0,,,,1634.1102043000285,90,23,male,True
620,72.0,25,F,down,0.5934693000745028,1.9721725708913524,,experiment,emotion,2.0,,,,1637.310165300034,90,23,male,True
621,72.0,25,M,down,0.6178083999548107,0.8068058580057331,,experiment,emotion,2.0,,,,1638.976821999997,90,23,male,True
622,76.0,25,M,down,0.5428985001053661,0.72099410767933,,experiment,emotion,2.0,,,,1640.5767360000173,90,23,male,True
623,81.0,25,M,down,0.55973749991972,1.496240863585888,,experiment,emotion,2.0,,,,1642.909889400005,90,23,male,True
624,72.0,25,F,down,0.5510531000327319,0.6974387977053466,,experiment,emotion,2.0,,,,1644.4266152000057,90,23,male,True
625,67.0,25,F,down,0.5604275000514463,0.5310890878024269,,experiment,emotion,2.0,,,,1645.7932228000136,90,23,male,True
626,67.0,25,M,down,0.5137618998996913,0.4459272937059338,,experiment,emotion,2.0,,,,1647.059869299992,90,23,male,True
627,72.0,25,F,down,0.9619183000177144,0.8667187341602558,,experiment,emotion,2.0,,,,1648.709718600032,90,23,male,True
628,81.0,25,F,up,0.5862384999636561,0.6369247088371957,,experiment,emotion,2.0,,,,1650.5763908000663,90,23,male,True
629,76.0,25,M,up,0.6346571000758559,1.817135819468137,,experiment,emotion,2.0,,,,1653.2429689000128,90,23,male,True
630,67.0,25,M,up,0.551408699946478,1.263745275940735,,experiment,emotion,2.0,,,,1655.4262269000756,90,23,male,True
631,81.0,25,F,up,0.5357964999275282,0.7067500814715697,,experiment,emotion,2.0,,,,1656.942833499983,90,23,male,True
632,76.0,25,M,up,0.4429310000268742,0.5847122763116905,,experiment,emotion,2.0,,,,1658.3427639000583,90,23,male,True
633,76.0,25,F,up,0.5493262000381947,1.0632137351159838,,experiment,emotion,2.0,,,,1660.109305400052,90,23,male,True
634,67.0,25,F,up,0.5386432999512181,0.9097635879134508,,experiment,emotion,2.0,,,,1661.825983099989,90,23,male,True
635,72.0,25,F,up,0.4510435999836772,0.6414937967230208,,experiment,emotion,2.0,,,,1663.2925879000686,90,23,male,True
636,81.0,25,M,up,0.4861746000824496,1.3631710306399405,,experiment,emotion,2.0,,,,1665.3925110000418,90,23,male,True
637,72.0,25,M,up,0.5992024999577552,1.790331684324571,,experiment,emotion,2.0,,,,1667.942422299995,90,23,male,True
638,72.0,25,F,up,0.48497580003459,1.164954752345716,,experiment,emotion,2.0,,,,1669.9756806000369,90,23,male,True
639,72.0,25,F,up,0.7873757999623194,0.9032356073005938,,experiment,emotion,2.0,,,,1671.642273899983,90,23,male,True
640,81.0,25,M,up,0.7403900000499561,1.1994886891434433,,experiment,emotion,2.0,,,,1673.8922070000554,90,23,male,True
641,76.0,25,M,down,0.5535746000241488,1.929961363997012,,experiment,emotion,2.0,,,,1676.8420807999792,90,23,male,True
642,67.0,25,M,down,0.7692658000160009,0.6523282185701316,,experiment,emotion,2.0,,,,1678.3253866999876,90,23,male,True
643,67.0,25,M,up,0.7956629999680445,0.886254037622977,,experiment,emotion,2.0,,,,1680.2419786000391,90,23,male,True
644,76.0,25,M,down,0.5307770998915657,1.385171773811397,,experiment,emotion,2.0,,,,1682.6918580000056,90,23,male,True
645,81.0,25,F,up,0.6018155000638217,1.7496365864007255,,experiment,emotion,2.0,,,,1685.2417820000555,90,23,male,True
646,81.0,25,F,up,0.5603969000512734,1.904309219763996,,experiment,emotion,2.0,,,,1688.008264100063,90,23,male,True
647,67.0,25,M,down,0.8250298000639305,1.8135001968883315,,experiment,emotion,2.0,,,,1690.641592300031,90,23,male,True
648,81.0,25,F,up,0.5824344999855384,0.4060790846663457,,experiment,emotion,2.0,,,,1692.1581942000194,90,23,male,True
649,72.0,25,F,up,0.6025233999826014,1.1354454600073358,,experiment,emotion,2.0,,,,1694.1581114000874,90,23,male,True
650,76.0,25,F,up,0.4726747999666258,1.959695191186684,,experiment,emotion,2.0,,,,1697.007956800051,90,23,male,True
651,72.0,25,M,up,0.5090285999467596,1.1821230454943628,,experiment,emotion,2.0,,,,1698.9246225000825,90,23,male,True
652,67.0,25,F,down,0.923140799975954,0.7782474296827058,,experiment,emotion,2.0,,,,1700.4745521000586,90,23,male,True
653,76.0,25,F,up,0.5852238000370562,1.997175552711449,,experiment,emotion,2.0,,,,1703.6744321000297,90,23,male,True
654,72.0,25,F,up,0.5959569999249652,1.1791616392973736,,experiment,emotion,2.0,,,,1705.7076662000036,90,23,male,True
655,76.0,25,M,up,0.6579893999733031,1.095759908654192,,experiment,emotion,2.0,,,,1707.657632800052,90,23,male,True
656,67.0,25,M,down,0.6674220999702811,0.7423812568549737,,experiment,emotion,2.0,,,,1709.3242529000854,90,23,male,True
657,81.0,25,F,down,0.7395264999940991,0.4057176837873608,,experiment,emotion,2.0,,,,1710.6741769000655,90,23,male,True
658,76.0,25,M,up,0.5238879000535235,1.9030959470556992,,experiment,emotion,2.0,,,,1713.5907269000309,90,23,male,True
659,81.0,25,F,down,0.700283300015144,0.9854864632612677,,experiment,emotion,2.0,,,,1715.3573433000129,90,23,male,True
660,67.0,25,M,up,0.696726799942553,1.7553933186895398,,experiment,emotion,2.0,,,,1718.0739011000842,90,23,male,True
661,72.0,25,M,down,0.5708410999504849,1.6181288481958849,,experiment,emotion,2.0,,,,1720.6738126000855,90,23,male,True
662,0.0703776167262309,25,up,up,0.4610335000324994,1.562334517493766,,experiment,cRDM,3.0,,,,1727.0235905000009,90,23,male,True
663,0.0703776167262309,25,up,down,0.4002761000301689,0.4446833334085512,,experiment,cRDM,3.0,,,,1728.1901846000692,90,23,male,True
664,0.0703776167262309,25,down,down,0.5011543999426067,1.3584371721171684,,experiment,cRDM,3.0,,,,1730.2234859999735,90,23,male,True
665,0.0703776167262309,25,down,down,0.4635277000488713,0.4619131108600355,,experiment,cRDM,3.0,,,,1731.4400993000015,90,23,male,True
666,0.0703776167262309,25,up,up,0.523244799929671,0.4080195952387216,,experiment,cRDM,3.0,,,,1732.5733677999815,90,23,male,True
667,0.0703776167262309,25,down,down,0.4002451999112963,0.4787098248695975,,experiment,cRDM,3.0,,,,1733.840017199982,90,23,male,True
668,0.0703776167262309,25,up,down,0.4600256000412628,1.227389210418654,,experiment,cRDM,3.0,,,,1735.7565930000274,90,23,male,True
669,0.0703776167262309,25,up,down,0.4873970999615267,1.090162131244788,,experiment,cRDM,3.0,,,,1737.5732080000453,90,23,male,True
670,0.0703776167262309,25,down,down,0.4167459000600502,0.6263971762948766,,experiment,cRDM,3.0,,,,1738.9398550000042,90,23,male,True
671,0.0703776167262309,25,down,down,0.4002911000279709,0.574400996095736,,experiment,cRDM,3.0,,,,1740.2064214000711,90,23,male,True
672,0.0703776167262309,25,down,down,0.4575870999833569,1.4422745303253572,,experiment,cRDM,3.0,,,,1742.323040200048,90,23,male,True
673,0.0703776167262309,25,down,down,0.5003226000117138,1.3179119314247736,,experiment,cRDM,3.0,,,,1744.3562960000709,90,23,male,True
674,0.0703776167262309,25,down,down,1.342427699943073,1.6728000057114014,,experiment,cRDM,3.0,,,,1746.8061936000595,90,23,male,True
675,0.0703776167262309,25,down,down,0.450849000015296,0.7490804030997201,,experiment,cRDM,3.0,,,,1749.1727688000535,90,23,male,True
676,0.0703776167262309,25,up,down,0.4167433000402525,0.6475783585431052,,experiment,cRDM,3.0,,,,1750.539450900047,90,23,male,True
677,0.0703776167262309,25,up,down,0.5222780000185594,0.7206575311927117,,experiment,cRDM,3.0,,,,1751.9393506000051,90,23,male,True
678,0.0703776167262309,25,up,down,0.3838214999996125,0.6182711356374468,,experiment,cRDM,3.0,,,,1753.339295300073,90,23,male,True
679,0.0703776167262309,25,up,down,0.4694113000296056,1.4146175505752776,,experiment,cRDM,3.0,,,,1755.4392042000543,90,23,male,True
680,0.0703776167262309,25,down,down,0.4647672000573948,1.0886011655093724,,experiment,cRDM,3.0,,,,1757.255800300045,90,23,male,True
681,0.0703776167262309,25,up,up,0.487899100058712,1.9658189977099627,,experiment,cRDM,3.0,,,,1759.955716000055,90,23,male,True
682,0.0703776167262309,25,up,down,0.4422760000452399,0.5190900225050088,,experiment,cRDM,3.0,,,,1761.2223433000036,90,23,male,True
683,0.0703776167262309,25,down,down,0.4401221999432891,1.3790714204028696,,experiment,cRDM,3.0,,,,1763.3054770000745,90,23,male,True
684,0.0703776167262309,25,up,up,0.5120618999935687,1.489980211804119,,experiment,cRDM,3.0,,,,1765.505533699994,90,23,male,True
685,0.0703776167262309,25,down,down,0.31720139994286,1.5734721169683554,,experiment,cRDM,3.0,,,,1767.8553937000688,90,23,male,True
686,0.0703776167262309,25,down,down,0.4896174999885261,0.32822017889667,,experiment,cRDM,3.0,,,,1768.8720016999869,90,23,male,True
687,0.0703776167262309,25,up,down,0.4783910000696778,0.8812830751321887,,experiment,cRDM,3.0,,,,1770.5052033000393,90,23,male,True
688,0.0703776167262309,25,up,down,0.4996560000581667,0.4700785964936705,,experiment,cRDM,3.0,,,,1771.721948600025,90,23,male,True
689,0.0703776167262309,25,down,down,0.5215416999999434,1.2224163950470102,,experiment,cRDM,3.0,,,,1773.7050703000275,90,23,male,True
690,0.0703776167262309,25,up,down,0.4384597999742254,1.1058739298155686,,experiment,cRDM,3.0,,,,1775.6051821000874,90,23,male,True
691,0.0703776167262309,25,down,down,0.4228895000414923,0.8179872157310408,,experiment,cRDM,3.0,,,,1777.121767600067,90,23,male,True
692,0.0703776167262309,25,down,down,0.4476539000170305,1.8341068346366087,,experiment,cRDM,3.0,,,,1779.654977899976,90,23,male,True
693,0.0703776167262309,25,down,down,0.503702100017108,0.437517377793995,,experiment,cRDM,3.0,,,,1780.804879500065,90,23,male,True
694,0.0703776167262309,25,up,down,0.751422300003469,1.3250715834271332,,experiment,cRDM,3.0,,,,1782.8882216999773,90,23,male,True
695,0.0703776167262309,25,up,down,0.4811953000025823,1.2626446408114531,,experiment,cRDM,3.0,,,,1785.1714458999922,90,23,male,True
696,0.0703776167262309,25,up,down,0.4755779999541119,0.5613750612294943,,experiment,cRDM,3.0,,,,1786.488039900083,90,23,male,True
697,0.0703776167262309,25,down,down,0.4398685999913141,0.3333663550460848,,experiment,cRDM,3.0,,,,1787.55469800008,90,23,male,True
698,0.0703776167262309,25,down,down,0.4734774000244215,1.7662511334216096,,experiment,cRDM,3.0,,,,1790.021167100058,90,23,male,True
699,0.0703776167262309,25,up,down,0.4928487000288442,1.97952301113112,,experiment,cRDM,3.0,,,,1792.737837500055,90,23,male,True
700,0.0703776167262309,25,down,down,0.5265430000144988,1.1596194190192102,,experiment,cRDM,3.0,,,,1794.671086700051,90,23,male,True
701,0.0703776167262309,25,up,up,0.5111599999945611,0.6176144374678919,,experiment,cRDM,3.0,,,,1796.0876946999924,90,23,male,True
702,0.0703776167262309,25,up,down,0.5012944999616593,0.9420795899869768,,experiment,cRDM,3.0,,,,1797.804312900058,90,23,male,True
703,0.0703776167262309,25,up,down,0.7427266000304371,1.474203120723789,,experiment,cRDM,3.0,,,,1800.02087820007,90,23,male,True
704,0.0703776167262309,25,down,down,0.7331401000265032,0.4779920269937593,,experiment,cRDM,3.0,,,,1801.487485300051,90,23,male,True
705,0.0703776167262309,25,down,up,0.6255268000531942,1.6648617588558543,,experiment,cRDM,3.0,,,,1804.1540799000068,90,23,male,True
706,0.0703776167262309,25,up,up,0.6215909000020474,0.92310829303631,,experiment,cRDM,3.0,,,,1805.9540125000055,90,23,male,True
707,0.0703776167262309,25,down,down,0.5132974000880495,0.4110421635320924,,experiment,cRDM,3.0,,,,1807.2373276000144,90,23,male,True
708,0.0703776167262309,25,down,down,0.6077604999300092,1.7563095670951765,,experiment,cRDM,3.0,,,,1809.753867099993,90,23,male,True
709,0.0703776167262309,25,up,down,0.540538499946706,1.9155219717570888,,experiment,cRDM,3.0,,,,1812.5370993000688,90,23,male,True
710,0.0703776167262309,25,up,up,0.5362577999476343,1.5291798708118327,,experiment,cRDM,3.0,,,,1814.8703493999783,90,23,male,True
711,0.0703776167262309,25,down,down,0.4636806000489741,1.6649495696233898,,experiment,cRDM,3.0,,,,1817.3369334000165,90,23,male,True
712,0.0703776167262309,25,up,down,0.4471010999986902,1.7856519311930483,,experiment,cRDM,3.0,,,,1819.8534871999875,90,23,male,True
713,0.0703776167262309,25,down,up,0.5855253000045195,1.9587249911629137,,experiment,cRDM,3.0,,,,1822.5200701000867,90,23,male,True
714,0.0703776167262309,25,down,down,0.5156388999894261,0.3039801514307949,,experiment,cRDM,3.0,,,,1823.6700181000635,90,23,male,True
715,0.0703776167262309,25,down,down,0.4830456000054255,1.2284304937447688,,experiment,cRDM,3.0,,,,1825.6866124999945,90,23,male,True
716,0.0703776167262309,25,up,up,0.4002411999972537,0.4318870691406187,,experiment,cRDM,3.0,,,,1826.8532494000392,90,23,male,True
717,0.0703776167262309,25,up,down,0.6204419999849051,0.7290099364997644,,experiment,cRDM,3.0,,,,1828.253182400018,90,23,male,True
718,0.0703776167262309,25,down,down,0.5951441000215709,0.5456170900450477,,experiment,cRDM,3.0,,,,1829.6864815000445,90,23,male,True
719,0.0703776167262309,25,down,down,0.4992389000253752,1.7918555312721345,,experiment,cRDM,3.0,,,,1832.3363701000344,90,23,male,True
720,0.0703776167262309,25,up,down,0.6426953999325633,0.5045651250424508,,experiment,cRDM,3.0,,,,1833.6029045999749,90,23,male,True
721,0.0703776167262309,25,up,down,0.5572710999986157,1.18615129969027,,experiment,cRDM,3.0,,,,1835.6863078000024,90,23,male,True
722,0.0703776167262309,25,up,up,0.4167521999916062,1.7083153165922726,,experiment,cRDM,3.0,,,,1838.219520200044,90,23,male,True
723,0.0703776167262309,25,up,down,0.5201756999595091,1.7249685277989506,,experiment,cRDM,3.0,,,,1840.619428300066,90,23,male,True
724,0.0703776167262309,25,up,down,0.4889487000182271,1.3507025970093829,,experiment,cRDM,3.0,,,,1842.7526752999984,90,23,male,True
725,0.0703776167262309,25,down,down,0.5236786999739707,0.7670148723372796,,experiment,cRDM,3.0,,,,1844.2859122999944,90,23,male,True
726,0.0703776167262309,25,down,down,0.7311378000304103,1.447866529628925,,experiment,cRDM,3.0,,,,1846.502459899988,90,23,male,True
727,0.0703776167262309,25,up,down,0.4994944999925792,0.8184743422591652,,experiment,cRDM,3.0,,,,1848.319142500055,90,23,male,True
728,0.0703776167262309,25,down,down,0.5268611999927089,0.5625484680698449,,experiment,cRDM,3.0,,,,1849.635738400044,90,23,male,True
729,0.0703776167262309,25,down,down,0.4665865999413654,0.795475120770875,,experiment,cRDM,3.0,,,,1851.2190389999887,90,23,male,True
730,0.0703776167262309,25,down,down,0.4835520000196993,1.1622718234444092,,experiment,cRDM,3.0,,,,1853.1020747000584,90,23,male,True
731,0.0703776167262309,25,up,down,0.427408599993214,0.8961645974801014,,experiment,cRDM,3.0,,,,1854.7522203000265,90,23,male,True
732,0.0703776167262309,25,down,down,0.8634635999333113,0.6175579696051994,,experiment,cRDM,3.0,,,,1856.0521599000783,90,23,male,True
733,0.0703776167262309,25,down,down,0.4819365999428555,1.894355004373371,,experiment,cRDM,3.0,,,,1859.0687165000709,90,23,male,True
734,0.0703776167262309,25,down,down,0.4682875999715179,1.9162752130567344,,experiment,cRDM,3.0,,,,1861.7352918999968,90,23,male,True
735,0.0703776167262309,25,up,down,0.4980698999715969,1.4065116750950948,,experiment,cRDM,3.0,,,,1863.868532199995,90,23,male,True
736,0.0703776167262309,25,up,down,0.5134814999764785,1.9886442654164973,,experiment,cRDM,3.0,,,,1866.6351027999767,90,23,male,True
737,0.0703776167262309,25,down,up,0.3004536998923868,1.710660480939765,,experiment,cRDM,3.0,,,,1869.118394399993,90,23,male,True
738,0.0703776167262309,25,up,down,0.4168307998916134,1.3407730484610494,,experiment,cRDM,3.0,,,,1871.1349367999935,90,23,male,True
739,0.0703776167262309,25,down,down,0.6567194999661297,0.3110497092007682,,experiment,cRDM,3.0,,,,1872.1349159000677,90,23,male,True
740,0.0703776167262309,25,up,up,0.7197791000362486,1.1455173981866626,,experiment,cRDM,3.0,,,,1874.1848158000505,90,23,male,True
741,0.0703776167262309,25,up,down,0.9092484000138938,0.4295144582606858,,experiment,cRDM,3.0,,,,1875.6013309999837,90,23,male,True
742,81.0,25,M,up,0.5990353999659419,1.4615975738749336,,experiment,emotion,3.0,,,,1880.4845814000585,90,23,male,True
