,stimLvl,stimTime,rand,response,rt,precedingITI,trialNumber,trialType,stimuli,block,estIntens,estThres,estSlope,trialStart,subject,age,gender,headRest
0,0.9,100,down,,,0.4554036519619278,,introTrial,cRDM,,,,,180.42527939996216,220,23,male,True
1,150.0,100,F,up,1.4667821999173611,1.6074179323578806,,introTrial,emotion,,,,,185.99174909992144,220,23,male,True
2,200.0,25,F,up,0.9837358999066056,1.4176310169747888,,tutorial,emotion,,,,,277.78838089993224,220,23,male,True
3,200.0,25,M,up,0.7701415000483394,1.5163972038020217,,tutorial,emotion,,,,,280.5718809999525,220,23,male,True
4,200.0,25,M,up,0.4308719000546261,1.6961424590679106,,tutorial,emotion,,,,,283.3381829999853,220,23,male,True
5,0.0,25,F,down,0.5066569000482559,1.840015521563236,,tutorial,emotion,,,,,285.9214094999479,220,23,male,True
6,0.0,25,M,down,0.4660498000448569,0.7898086759116133,,tutorial,emotion,,,,,287.48800889996346,220,23,male,True
7,200.0,25,M,up,0.5228550999891013,1.5354202439461428,,tutorial,emotion,,,,,289.77117690001614,220,23,male,True
8,0.0,25,F,down,0.4702011999906972,1.515379241571908,,tutorial,emotion,,,,,292.08786119997967,220,23,male,True
9,200.0,25,F,up,0.5352133000269532,1.594698769824496,,tutorial,emotion,,,,,294.4377571999794,220,23,male,True
10,0.0,25,M,down,0.5259404999669641,0.8624324307226663,,tutorial,emotion,,,,,296.1210457999259,220,23,male,True
11,0.0,25,F,down,0.504718300071545,0.5330035579997124,,tutorial,emotion,,,,,297.45431449997704,220,23,male,True
12,0.9,25,up,up,0.4546233000000939,1.1748685706608055,,tutorial,cRDM,,,,,305.88737759995274,220,23,male,True
13,0.9,25,up,up,0.3838309000711888,0.8077216449218325,,tutorial,cRDM,,,,,307.4206294999458,220,23,male,True
14,0.9,25,down,down,0.3843537999782711,1.5719503338665086,,tutorial,cRDM,,,,,309.6872210999718,220,23,male,True
15,0.9,25,down,up,0.3672633999958634,1.096745258269009,,tutorial,cRDM,,,,,311.4703511999687,220,23,male,True
16,0.9,25,up,up,0.6092036999762058,0.4359974644763111,,tutorial,cRDM,,,,,312.6037655000109,220,23,male,True
17,0.9,25,down,down,0.3172093000030145,1.8809849611435576,,tutorial,cRDM,,,,,315.3703123999294,220,23,male,True
18,0.9,25,up,up,0.4002473000437021,0.7594974683342182,,tutorial,cRDM,,,,,316.8202808999922,220,23,male,True
19,0.9,25,up,down,0.3338025999255478,1.4899712998736667,,tutorial,cRDM,,,,,319.003571899957,220,23,male,True
20,0.9,25,down,down,0.5508365000132471,0.5238760174462668,,tutorial,cRDM,,,,,320.2201480999356,220,23,male,True
21,0.9,25,down,down,0.4509334999602288,1.157158694419708,,tutorial,cRDM,,,,,322.2200850999216,220,23,male,True
22,100.0,25,M,down,0.5474967999616638,0.7174275464722031,,psi_staircase_training,emotion,,100.0,100.0,25.00050000000001,328.73650419991463,220,23,male,True
23,145.0,25,M,up,0.9672245999099688,1.9697702510963773,,psi_staircase_training,emotion,,145.25719053245996,145.25719053245996,25.00050000000028,331.6197292999132,220,23,male,True
24,121.0,25,F,up,0.6593393000075594,0.9029286173452632,,psi_staircase_training,emotion,,120.36392901436103,120.36392901436103,25.71326925488699,333.8196695999941,220,23,male,True
25,97.0,25,F,down,0.6620766000123695,0.385189301542878,,psi_staircase_training,emotion,,102.3887610608496,102.3887610608496,26.14633372628729,335.20295589999296,220,23,male,True
26,113.0,25,M,up,0.804882499971427,1.122305528090014,,psi_staircase_training,emotion,,114.01123255420406,114.01123255420406,23.00305641778335,337.3361873999238,220,23,male,True
27,105.0,25,F,up,0.6361679000547156,0.9645116870913496,,psi_staircase_training,emotion,,104.94359593877375,104.94359593877375,22.15060322358215,339.4527981999563,220,23,male,True
28,92.0,25,M,down,0.5863434999482706,1.2704912518146876,,psi_staircase_training,emotion,,97.32104229908208,97.32104229908208,23.93307361449055,341.70271609991323,220,23,male,True
29,95.0,25,F,up,1.1840852999594065,1.2153893754092255,,psi_staircase_training,emotion,,102.844886035729,102.844886035729,20.021669804154055,343.8359517999925,220,23,male,True
30,81.0,25,F,down,0.7395159000298008,0.9455518442999752,,psi_staircase_training,emotion,,95.57883151207288,95.57883151207288,28.09070662309693,346.3025143999839,220,23,male,True
31,83.0,25,M,down,1.0225315999705344,1.6145732018303134,,psi_staircase_training,emotion,,99.20184352462236,99.20184352462236,25.66324515599674,349.00245129992254,220,23,male,True
32,115.0,25,F,up,1.1773134999675676,0.9606381674290032,,psi_staircase_training,emotion,,101.58352414446234,101.58352414446234,23.53429578573776,351.33568429993466,220,23,male,True
33,85.0,25,F,down,0.7207342999754474,1.350540841023849,,psi_staircase_training,emotion,,99.41701907922727,99.41701907922727,21.36153675047028,354.2022568999091,220,23,male,True
34,113.0,25,F,up,0.8485104999272153,0.503579155380955,,psi_staircase_training,emotion,,101.02810206498393,101.02810206498393,19.25884008677174,355.7854283999186,220,23,male,True
35,87.0,25,M,down,0.9818873000331224,1.5658336423587302,,psi_staircase_training,emotion,,99.52333604598276,99.52333604598276,17.196183577719978,358.55209849996027,220,23,male,True
36,111.0,25,M,up,1.2513389000669122,0.3937001331655927,,psi_staircase_training,emotion,,100.6218406599488,100.6218406599488,15.338777012330077,360.26867649995256,220,23,male,True
37,109.0,25,F,up,0.9110924999695272,1.6863200325598895,,psi_staircase_training,emotion,,99.55757885021282,99.55757885021282,13.58830581852098,363.551908699912,220,23,male,True
38,90.0,25,F,down,1.239555999985896,1.9078942359946036,,psi_staircase_training,emotion,,98.76896377859664,98.76896377859664,12.15696349910752,366.71843389992137,220,23,male,True
39,102.0,25,M,up,0.8753502999898046,1.535423670882262,,psi_staircase_training,emotion,,99.60646589475138,99.60646589475138,10.721685950792684,369.8516749999253,220,23,male,True
40,91.0,25,M,up,0.8543977999361232,0.4247733738133807,,psi_staircase_training,emotion,,98.39118830814668,98.39118830814668,10.216071949842323,371.5016100999201,220,23,male,True
41,83.0,25,M,down,0.6635139000136405,1.9548656785376173,,psi_staircase_training,emotion,,95.91805305868834,95.91805305868834,14.68373588137721,374.6514770999784,220,23,male,True
42,84.0,25,M,down,0.6791960999835283,1.8162441513125291,,psi_staircase_training,emotion,,96.61029822552686,96.61029822552686,13.22647135497276,377.4847441000165,220,23,male,True
43,108.0,25,F,up,0.6983515999745578,0.6301845065280731,,psi_staircase_training,emotion,,97.0928497789444,97.0928497789444,12.07279989330401,379.1346750999801,220,23,male,True
44,106.0,25,F,up,1.1148475999943912,1.4619587004550711,,psi_staircase_training,emotion,,96.62943332374,96.62943332374,11.090650057936722,381.6512129999464,220,23,male,True
45,87.0,25,F,down,0.9571461000014096,1.1482765787145228,,psi_staircase_training,emotion,,96.21790025846694,96.21790025846694,10.274734272653,384.2678252999904,220,23,male,True
46,105.0,25,M,down,1.011683899909258,1.7035457034899382,,psi_staircase_training,emotion,,96.63620916784424,96.63620916784424,9.490061756612423,387.28435969993006,220,23,male,True
47,111.0,25,M,up,0.7873530000215396,0.9519171166909496,,psi_staircase_training,emotion,,98.26670017108675,98.26670017108675,12.317597151633104,389.6176178000169,220,23,male,True
48,86.0,25,F,down,0.9487920999526978,0.3343296991252716,,psi_staircase_training,emotion,,97.95976071417724,97.95976071417724,11.536337290864084,391.0842237999896,220,23,male,True
49,109.0,25,F,up,1.2786926000844687,0.7798132008844653,,psi_staircase_training,emotion,,98.28644012697568,98.28644012697568,10.82006881282373,393.1673282999545,220,23,male,True
50,88.0,25,M,down,1.0662628000136465,0.6385918764092726,,psi_staircase_training,emotion,,97.99683801505468,97.99683801505468,10.227394380096923,395.45070809999015,220,23,male,True
51,108.0,25,M,up,1.2450404999544844,1.5633325080450722,,psi_staircase_training,emotion,,98.30149925428894,98.30149925428894,9.684793195398402,398.4339662999846,220,23,male,True
52,0.29,25,up,up,0.6392772999824956,1.0430961781453232,,psi_staircase_training,cRDM,,0.25,0.2569312402994632,0.105,404.4837452999782,220,23,male,True
53,0.25,25,up,up,0.5313193000620231,0.8354454161233269,,psi_staircase_training,cRDM,,0.2191026665318312,0.2260132002683492,0.1046863203387393,406.2336674999679,220,23,male,True
54,0.21,25,down,down,0.5707569000078365,1.14771811655177,,psi_staircase_training,cRDM,,0.1900540959403307,0.1968497961554001,0.1029467298424999,408.2002519000089,220,23,male,True
55,0.18,25,down,up,0.4003444999689236,1.6204364200894683,,psi_staircase_training,cRDM,,0.1635257589279754,0.1701521334256793,0.1003816477568649,410.6668005000101,220,23,male,True
56,0.28,25,up,up,0.7515324000269175,1.1646306354827158,,psi_staircase_training,cRDM,,0.2462894156509761,0.253676874431043,0.111911164292932,412.5334322999697,220,23,male,True
57,0.26,25,down,down,0.6383099999511614,0.5554427503985875,,psi_staircase_training,cRDM,,0.224020924517144,0.2312720210897802,0.1098454399547734,414.1167156000156,220,23,male,True
58,0.23,25,up,up,0.8670462000882253,0.3128492968538451,,psi_staircase_training,cRDM,,0.2047781477371871,0.211824604656558,0.106745393979666,415.34998149995226,220,23,male,True
59,0.23,25,down,down,0.6600836999714375,0.7096853568662054,,psi_staircase_training,cRDM,,0.1874201716315257,0.1943184465858974,0.1045006144520947,417.19991969992407,220,23,male,True
60,0.21,25,down,up,1.035180400009267,1.6746118442895677,,psi_staircase_training,cRDM,,0.1734597158637905,0.1801271287888497,0.1010033308447589,419.7998248999938,220,23,male,True
61,0.26,25,up,up,0.7105333000654355,0.3114798164801271,,psi_staircase_training,cRDM,,0.2258097884912943,0.2328763215733389,0.1070495238308419,421.4164293999784,220,23,male,True
62,0.25,25,down,down,0.5579593000002205,0.729730547908279,,psi_staircase_training,cRDM,,0.212450835613729,0.2191858551365866,0.102027489936369,423.13304079999216,220,23,male,True
63,0.25,25,down,down,0.8098255000077188,1.398453656956254,,psi_staircase_training,cRDM,,0.2017939937751558,0.2081851447054985,0.0968182920649778,425.3661774999928,220,23,male,True
64,0.23,25,down,down,0.9200729000149296,0.6474229361481333,,psi_staircase_training,cRDM,,0.1938748209560492,0.1999007112534839,0.0912850303688999,427.08292399998754,220,23,male,True
65,0.2,25,up,up,0.6555609999923036,0.5182120433037134,,psi_staircase_training,cRDM,,0.1859863450174034,0.1918446053558967,0.0887456369950739,428.7995054000057,220,23,male,True
66,0.19,25,up,up,0.6862125999759883,0.4462081598908626,,psi_staircase_training,cRDM,,0.1735581359363531,0.1800187838692573,0.0978710885276143,430.1828056999948,220,23,male,True
67,0.19,25,down,down,0.6746584000065923,1.414925635291433,,psi_staircase_training,cRDM,,0.1601739738030281,0.1672905846524184,0.1078081421075319,432.5493684000103,220,23,male,True
68,0.18,25,down,down,1.2277409000089392,1.0523980585531705,,psi_staircase_training,cRDM,,0.1473683420222076,0.1549896280021313,0.1154533666873385,434.5492754000006,220,23,male,True
69,0.17,25,up,up,0.5722228999948129,0.523591495455955,,psi_staircase_training,cRDM,,0.1349669468861355,0.1430212750370733,0.1220134376114408,436.5658155999845,220,23,male,True
70,0.17,25,up,up,0.6021400999743491,1.462864412348336,,psi_staircase_training,cRDM,,0.1234307798863452,0.1318099046122844,0.1269337172297641,438.865782000008,220,23,male,True
71,0.16,25,up,up,0.6739765999373049,0.8100873810417357,,psi_staircase_training,cRDM,,0.1133978764595028,0.121952962690644,0.1295993235639774,440.5659917999292,220,23,male,True
72,0.15,25,up,up,0.6690378999337554,1.2492161947949678,,psi_staircase_training,cRDM,,0.1044236278137324,0.1130612856725379,0.1308501849582116,442.7489618000109,220,23,male,True
73,0.13,25,down,down,0.6297736000269651,1.1393596342742822,,psi_staircase_training,cRDM,,0.0964323000233595,0.1050700192977266,0.1308511153305085,444.832236199989,220,23,male,True
74,0.11,25,down,up,0.7284956000512466,1.872936644481134,,psi_staircase_training,cRDM,,0.0889438946154752,0.0975381707878475,0.1301930042980867,447.6154964999296,220,23,male,True
75,0.16,25,down,down,0.6816348000429571,1.1568116341957082,,psi_staircase_training,cRDM,,0.1128029231529965,0.1216272069340642,0.1336773444550549,449.7653419999406,220,23,male,True
76,0.16,25,up,up,0.6933484999462962,1.680771598853781,,psi_staircase_training,cRDM,,0.1061527904012721,0.1149767188970532,0.1336719623079226,452.39863579999655,220,23,male,True
77,0.16,25,up,up,0.6654368999879807,0.5853298991420135,,psi_staircase_training,cRDM,,0.1005118404722518,0.1092692310678638,0.1326639927071156,453.9485772999469,220,23,male,True
78,0.16,25,down,down,0.6567976000951603,0.3096785706166819,,psi_staircase_training,cRDM,,0.0957450251051417,0.1043857529515822,0.1308966915988342,455.2151788999327,220,23,male,True
79,0.1,25,down,up,0.6015804999042302,1.6965084484509836,,psi_staircase_training,cRDM,,0.0917298669282974,0.1002157873411546,0.1285515441470132,457.84841699991375,220,23,male,True
80,0.16,25,up,up,0.6279681000160053,0.8920370110045488,,psi_staircase_training,cRDM,,0.1089304377146583,0.1167174731929814,0.117964273333193,459.61502749996725,220,23,male,True
81,0.16,25,up,up,0.8770329999970272,0.3404562746691125,,psi_staircase_training,cRDM,,0.1054508977493352,0.1129977996559929,0.1143265369490101,460.8649800999556,220,23,male,True
82,100.0,25,M,up,0.703039399930276,1.946084648704995,,psi_staircase,emotion,,100.0,100.0,25.00050000000001,470.2479701999109,220,23,male,True
83,55.0,25,M,down,0.5807284000329673,0.6770297617772592,,psi_staircase,emotion,,54.7428094675419,54.7428094675419,25.00050000000011,471.9812353999587,220,23,male,True
84,79.0,25,F,down,0.6271428000181913,0.7287762151507288,,psi_staircase,emotion,,79.636070985635,79.636070985635,25.713269254886413,473.6478591999039,220,23,male,True
85,103.0,25,F,up,1.1043318000156432,1.334371839657608,,psi_staircase,emotion,,97.61123893914808,97.61123893914808,26.1463337262867,475.9646978999954,220,23,male,True
86,87.0,25,M,down,0.9623626999091356,1.853870543946472,,psi_staircase,emotion,,85.98876744579668,85.98876744579668,23.003056417783498,479.24763459991664,220,23,male,True
87,95.0,25,F,up,0.7540519000031054,0.6264507831589121,,psi_staircase,emotion,,95.05640406123077,95.05640406123077,22.150603223582728,481.18093159992713,220,23,male,True
88,84.0,25,M,down,1.3965075999731198,1.6241870592577492,,psi_staircase,emotion,,88.41622646561945,88.41622646561945,20.597853251064077,483.89747669990174,220,23,male,True
89,92.0,25,F,down,1.781647800002247,0.906368939967926,,psi_staircase,emotion,,92.48012886422012,92.48012886422012,17.547034846052444,486.5473906999687,220,23,male,True
90,103.0,25,F,up,1.2034703000681477,1.419631651433371,,psi_staircase,emotion,,96.8905074648852,96.8905074648852,18.870841324428707,490.080538499984,220,23,male,True
91,99.0,25,M,down,1.1927665000548586,0.8715918278149983,,psi_staircase,emotion,,93.80492701211604,93.80492701211604,15.11241007381393,492.4971700999886,220,23,male,True
92,111.0,25,F,up,0.8913031000411138,1.628276315611386,,psi_staircase,emotion,,98.53990789904084,98.53990789904084,22.93176653364061,495.66369339998346,220,23,male,True
93,110.0,25,F,up,0.8233608999289572,0.8102893115627967,,psi_staircase,emotion,,96.18367495322998,96.18367495322998,20.111891313789705,497.7136472999118,220,23,male,True
94,84.0,25,F,down,0.7924617000389844,1.5221904393533847,,psi_staircase,emotion,,94.7542385723665,94.7542385723665,17.745317524562388,500.4135421999963,220,23,male,True
95,107.0,25,M,up,0.8311916999518871,0.4960065094630779,,psi_staircase,emotion,,96.10367142102828,96.10367142102828,15.45688419797304,502.046799600008,220,23,male,True
96,86.0,25,M,down,0.7546615999890491,1.73894226839709,,psi_staircase,emotion,,95.15776041059868,95.15776041059868,13.436067852039065,504.9633293999359,220,23,male,True
97,88.0,25,F,up,1.0130752000259236,1.4541551606184284,,psi_staircase,emotion,,96.06197962229376,96.06197962229376,11.605461041343355,507.529941799934,220,23,male,True
98,79.0,25,F,down,0.9484445999842136,0.4098782592028039,,psi_staircase,emotion,,93.46477689322302,93.46477689322302,17.438797906717575,509.29656699998304,220,23,male,True
99,108.0,25,M,up,1.0380814999807626,0.5891902490197564,,psi_staircase,emotion,,94.2285195424888,94.2285195424888,15.706446408988946,511.1629110999638,220,23,male,True
100,81.0,25,M,down,0.7709835999412462,1.5500440294365936,,psi_staircase,emotion,,93.55859521428792,93.55859521428792,14.134192250698089,514.1129724999191,220,23,male,True
101,106.0,25,M,up,0.8046531999716535,0.8600885136186507,,psi_staircase,emotion,,94.11635640534588,94.11635640534588,12.775692810185848,516.0963029999984,220,23,male,True
102,83.0,25,M,down,0.7840960000175983,0.3265992447497539,,psi_staircase,emotion,,93.61781341603005,93.61781341603005,11.591764044024195,517.5629047999391,220,23,male,True
103,103.0,25,F,up,0.7451429999200627,0.9738386973876808,,psi_staircase,emotion,,94.05669599275302,94.05669599275302,10.59070021807084,519.6628606999293,220,23,male,True
104,85.0,25,F,down,0.8892228999175131,1.0551957214629428,,psi_staircase,emotion,,93.60529523499918,93.60529523499918,9.722158280544509,521.8127644999186,220,23,male,True
105,101.0,25,F,up,1.5679977000690997,1.8560530787685048,,psi_staircase,emotion,,93.99192502062613,93.99192502062613,8.996269745854807,524.8960026999703,220,23,male,True
106,89.0,25,M,down,0.6608140000607818,1.6142469881118715,,psi_staircase,emotion,,93.5669331581666,93.5669331581666,8.36936752589276,528.429181399988,220,23,male,True
107,98.0,25,M,down,0.7201957999495789,0.6611792237529621,,psi_staircase,emotion,,94.09050990146244,94.09050990146244,7.893781062694842,530.0958049999317,220,23,male,True
108,104.0,25,F,down,1.4848998000379652,0.8590586281005945,,psi_staircase,emotion,,95.34066281669372,95.34066281669372,8.882891188804926,532.0290647000074,220,23,male,True
109,110.0,25,F,up,0.5947223999537528,0.6854702955602281,,psi_staircase,emotion,,96.80478654817588,96.80478654817588,11.974982065656716,534.5622756999219,220,23,male,True
110,109.0,25,M,down,0.7362342999549583,1.4937726393421171,,psi_staircase,emotion,,96.49653916521784,96.49653916521784,11.142479045237987,536.978765900014,220,23,male,True
111,115.0,25,M,up,0.6691855000099167,1.4224789147215111,,psi_staircase,emotion,,98.14325476340068,98.14325476340068,15.749166322710554,539.4787444999674,220,23,male,True
112,114.0,25,F,up,0.6363060000585392,1.1298474963338532,,psi_staircase,emotion,,97.77462329985651,97.77462329985651,14.702757664097351,541.6286833999911,220,23,male,True
113,82.0,25,M,down,0.7367452000034973,1.6320490287772018,,psi_staircase,emotion,,97.48912617140856,97.48912617140856,13.828410013506986,544.2452527999412,220,23,male,True
114,113.0,25,F,up,1.3121370999142528,1.1693286500630602,,psi_staircase,emotion,,97.73373565385629,97.73373565385629,13.088787409364274,546.5118546999292,220,23,male,True
115,84.0,25,M,down,0.6395623000571504,0.6525526432699187,,psi_staircase,emotion,,97.50605736129678,97.50605736129678,12.43062843996358,548.8284124999773,220,23,male,True
116,111.0,25,F,up,0.8282471999991685,0.8892743860415777,,psi_staircase,emotion,,97.73839934101588,97.73839934101588,11.849708423505454,550.7117157999892,220,23,male,True
117,86.0,25,M,down,0.7405331999761984,1.971347379999283,,psi_staircase,emotion,,97.52775620697224,97.52775620697224,11.33612834307374,553.861453999998,220,23,male,True
118,87.0,25,F,down,1.105803299928084,0.3568122692212579,,psi_staircase,emotion,,97.76190433348796,97.76190433348796,10.87180721160536,555.3281765999272,220,23,male,True
119,109.0,25,M,up,0.9166948000201957,1.678246690309538,,psi_staircase,emotion,,97.98197853832346,97.98197853832346,10.4661856539652,558.4612925999099,220,23,male,True
120,88.0,25,M,down,0.6601087000453845,1.351396506617174,,psi_staircase,emotion,,97.77314094387938,97.77314094387938,10.087726096708206,561.0778870999347,220,23,male,True
121,108.0,25,F,up,0.8217264000559226,1.1364018616293563,,psi_staircase,emotion,,97.98797020202883,97.98797020202883,9.755779459574276,563.2112376999576,220,23,male,True
122,89.0,25,F,down,0.7892182000214234,1.9915128820258103,,psi_staircase,emotion,,97.79072869450698,97.79072869450698,9.44733380134294,566.3777451999485,220,23,male,True
123,107.0,25,F,up,1.786947299959138,1.9153974439544028,,psi_staircase,emotion,,98.00539419895428,98.00539419895428,9.167098712865318,569.4110391999129,220,23,male,True
124,90.0,25,M,down,0.8738051999825984,1.2530664502831543,,psi_staircase,emotion,,97.81222410227213,97.81222410227213,8.90737677285184,572.7942065999378,220,23,male,True
125,90.0,25,M,down,1.996146999998018,0.7969471656237765,,psi_staircase,emotion,,98.03077565008056,98.03077565008056,8.663668326042835,574.8108147999737,220,23,male,True
126,106.0,25,F,up,0.9579745000228286,1.0518441532632874,,psi_staircase,emotion,,98.22566909476828,98.22566909476828,8.441323597943725,578.1940118999919,220,23,male,True
127,91.0,25,F,up,1.603362699970603,0.7698176921121682,,psi_staircase,emotion,,98.032022464217,98.032022464217,8.223927548870622,580.260632099933,220,23,male,True
128,106.0,25,F,up,0.7718162999954075,1.2824450731661103,,psi_staircase,emotion,,97.21164330891924,97.21164330891924,9.03019914894858,583.4771746000042,220,23,male,True
129,105.0,25,M,up,1.1503378000343218,1.368245616627897,,psi_staircase,emotion,,97.03799430738827,97.03799430738827,8.811788425793997,585.9606457999907,220,23,male,True
130,88.0,25,M,down,0.7524175000144169,1.2899740260486674,,psi_staircase,emotion,,96.85851820924918,96.85851820924918,8.610321012447002,588.760564199998,220,23,male,True
131,105.0,25,M,up,0.8253635000437498,0.5563857648884853,,psi_staircase,emotion,,97.00861599772853,97.00861599772853,8.423498675910714,590.3935712999664,220,23,male,True
132,0.29,25,up,up,0.6869272999465466,1.3655186165392366,,psi_staircase,cRDM,,0.25,0.2569312402994632,0.105,604.0430661999853,220,23,male,True
133,0.25,25,up,up,0.659641099977307,1.717967146008948,,psi_staircase,cRDM,,0.2191026665318312,0.2260132002683492,0.1046863203387393,606.72629339993,220,23,male,True
134,0.21,25,down,down,0.6607170000206679,0.931224902153629,,psi_staircase,cRDM,,0.1900540959403307,0.1968497961554001,0.1029467298424999,608.5762393999612,220,23,male,True
135,0.18,25,down,down,0.5982215000549331,1.5533198276934974,,psi_staircase,cRDM,,0.1635257589279754,0.1701521334256793,0.1003816477568649,611.0427999999374,220,23,male,True
136,0.15,25,up,up,0.5915235000429675,0.8986463688820194,,psi_staircase,cRDM,,0.1401895574244936,0.1466013351187503,0.0971307628663642,612.8094120000023,220,23,male,True
137,0.13,25,down,down,0.8079928000224754,1.6256000661745376,,psi_staircase,cRDM,,0.1198760602145479,0.1260554767618333,0.0936107694196103,615.2760238999035,220,23,male,True
138,0.11,25,up,up,0.980402300017886,1.7144042942137936,,psi_staircase,cRDM,,0.1025773523696548,0.1084910344569865,0.0895852101993795,618.0425605999772,220,23,male,True
139,0.09,25,down,down,0.9745001000119372,1.4566002645272251,,psi_staircase,cRDM,,0.087844325958594,0.0934818215320969,0.0854013148647635,620.7424572999589,220,23,male,True
140,0.08,25,down,down,0.7999353000195697,0.8217264693556268,,psi_staircase,cRDM,,0.0751852092118086,0.0805556301471181,0.0813554535472043,622.8090366999386,220,23,male,True
141,0.06,25,up,down,0.9247432000702248,1.8601142017562116,,psi_staircase,cRDM,,0.0644790391168514,0.0695422244606275,0.0767012018235253,625.7422280999599,220,23,male,True
142,0.11,25,down,down,1.1201334999641404,1.3793642539907554,,psi_staircase,cRDM,,0.0948602595780939,0.100716274325989,0.0887116189834892,628.3088444999885,220,23,male,True
143,0.1,25,down,down,0.900555899948813,0.8237485292750477,,psi_staircase,cRDM,,0.0850536372837916,0.0905330829294477,0.0830070475032367,630.5254308999283,220,23,male,True
144,0.1,25,down,down,1.2796213999390602,1.0771913001989974,,psi_staircase,cRDM,,0.0773438712303519,0.0824482118285555,0.0773246547018264,632.775338599924,220,23,male,True
145,0.09,25,up,up,0.6793453000718728,1.2951790035903556,,psi_staircase,cRDM,,0.071623626374969,0.0763215808449468,0.071168390942365,635.608586999937,220,23,male,True
146,0.09,25,up,down,0.7897628000937402,0.8238457355619775,,psi_staircase,cRDM,,0.0669427757353492,0.0713045448116411,0.0660755843432674,637.3752068999456,220,23,male,True
147,0.12,25,down,up,0.6758585999486968,0.3936941636557295,,psi_staircase,cRDM,,0.0869061409569171,0.0932855270374899,0.0966400686630382,638.8251323999139,220,23,male,True
148,0.17,25,down,down,0.7419372000731528,1.4201670870699952,,psi_staircase,cRDM,,0.1178442233303173,0.1264196513006911,0.1299074765823621,641.1750347999623,220,23,male,True
149,0.15,25,up,up,0.645952699938789,0.887255144462721,,psi_staircase,cRDM,,0.1075440736563457,0.1159282771152147,0.1270106539589193,643.0750082000159,220,23,male,True
150,0.12,25,up,up,0.8220333999488503,0.6304231184248821,,psi_staircase,cRDM,,0.0988496932883884,0.1070399035093814,0.1240718884426596,644.6248981999233,220,23,male,True
151,0.12,25,up,up,0.8194465000415221,1.1680975837723884,,psi_staircase,cRDM,,0.0907478614168357,0.098862865169328,0.1229326004002014,646.8914920999669,220,23,male,True
152,0.12,25,up,up,0.6925756999989972,0.6731824693077323,,psi_staircase,cRDM,,0.0840263695802412,0.0919936467450537,0.1206947192943372,648.6583591999952,220,23,male,True
153,0.12,25,down,down,0.6402999000856653,1.9926448764442235,,psi_staircase,cRDM,,0.0785453664812129,0.0863085644318269,0.1176031633007432,651.6246855999343,220,23,male,True
154,0.12,25,down,down,1.3640496999723837,1.8903545522229304,,psi_staircase,cRDM,,0.0741435547872593,0.0816600527938667,0.1138659542297061,654.4078899999149,220,23,male,True
155,0.12,25,down,down,0.7924529000883922,1.1876383672180386,,psi_staircase,cRDM,,0.0706642717760207,0.0779026260738331,0.109652409732376,657.2244737999281,220,23,male,True
156,0.11,25,up,up,1.1245685999747366,1.3503599393642092,,psi_staircase,cRDM,,0.0679671953027888,0.0749049497486496,0.1050986815262765,659.6243539999705,220,23,male,True
157,0.07,25,up,down,0.9657948999665678,1.167639070496736,,psi_staircase,cRDM,,0.0654160896088666,0.0720934557043126,0.1011541094710168,662.1742402999662,220,23,male,True
158,0.12,25,down,down,0.7080862000584602,0.7918873447839575,,psi_staircase,cRDM,,0.0779908449716012,0.0836886641494435,0.0863151453167424,664.1908607999794,220,23,male,True
159,0.11,25,down,down,0.7192637999542058,1.8808750975577309,,psi_staircase,cRDM,,0.0764305417588444,0.0817405817218775,0.0804407540395971,667.0577049999265,220,23,male,True
160,0.11,25,up,down,1.175272399908863,0.6315740233867403,,psi_staircase,cRDM,,0.0748667000957011,0.0798538439986492,0.075549264949032,668.6907164999284,220,23,male,True
161,0.14,25,up,down,0.9050516999559476,1.5935609546437317,,psi_staircase,cRDM,,0.0817090616212069,0.0888224424173452,0.1077592106642664,671.7239180000033,220,23,male,True
162,0.15,25,down,down,0.795875999960117,0.8665588324999929,,psi_staircase,cRDM,,0.093832928805833,0.103146162752649,0.1410843546271809,673.7571052999701,220,23,male,True
163,0.14,25,up,down,1.0381514000473544,0.4084351396297851,,psi_staircase,cRDM,,0.0891687607536841,0.0983260038750107,0.1387212802034503,675.2238033999456,220,23,male,True
164,0.21,25,down,down,0.746638200012967,1.4630850451530613,,psi_staircase,cRDM,,0.107452923520337,0.1173203746940446,0.1494800827089392,677.9903449999401,220,23,male,True
165,0.2,25,up,up,0.6670780000276864,0.5670402984270908,,psi_staircase,cRDM,,0.1028651116756224,0.1126010327610404,0.1474875591960147,679.5568888999987,220,23,male,True
166,0.19,25,down,down,0.6734149999683723,1.1894138528134883,,psi_staircase,cRDM,,0.0987855753046732,0.108389868973872,0.1454935612813714,681.6735415000003,220,23,male,True
167,0.18,25,up,up,0.6448209999362007,1.4827344722217584,,psi_staircase,cRDM,,0.0950906298898262,0.1045650599352341,0.1435262827123252,684.0901278000092,220,23,male,True
168,0.13,25,down,down,1.2109085000120103,1.2751296414517468,,psi_staircase,cRDM,,0.091685681567369,0.1010337704052358,0.1416123645362617,686.290041900007,220,23,male,True
169,0.13,25,up,up,0.9673293000087142,1.0544043158087768,,psi_staircase,cRDM,,0.0873973231537026,0.0967337650173534,0.1414359268079694,688.8066153000109,220,23,male,True
170,0.13,25,up,up,0.6591805000789464,1.1552039821670663,,psi_staircase,cRDM,,0.0835443207488349,0.0928428492976066,0.1408615854361056,691.1898195999674,220,23,male,True
171,0.14,25,down,down,0.7004888000665233,1.4851638811922514,,psi_staircase,cRDM,,0.0800736735832127,0.0893138248674798,0.1399772397045842,693.6064647999592,220,23,male,True
172,0.14,25,down,down,0.6763456000480801,1.294995586868597,,psi_staircase,cRDM,,0.0771347063268995,0.0862819563576216,0.1385698968336444,695.8566341999685,220,23,male,True
173,0.14,25,down,down,0.8307633999502286,0.3500911592242565,,psi_staircase,cRDM,,0.0744846082097936,0.0835285822963399,0.1370053898089341,697.156176899909,220,23,male,True
174,0.14,25,up,up,0.6127441999269649,1.4509098651664707,,psi_staircase,cRDM,,0.0720962544156457,0.0810276607995561,0.1353001237575355,699.7062179999193,220,23,male,True
175,0.14,25,up,up,0.7467805999331176,0.4132365069090546,,psi_staircase,cRDM,,0.0699483597891282,0.0787585856394811,0.1334643836195793,701.0061796999071,220,23,male,True
176,0.08,25,down,down,0.8765066999476403,1.2661389189561485,,psi_staircase,cRDM,,0.0680242049824345,0.0767050607966431,0.1315045823129933,703.2894176999107,220,23,male,True
177,0.14,25,down,down,0.7719230999937281,1.08316340070718,,psi_staircase,cRDM,,0.0645913358107131,0.0734145125369723,0.1336605738988666,705.506018999964,220,23,male,True
178,0.08,25,down,down,0.673085100017488,1.212803572820362,,psi_staircase,cRDM,,0.0628907969734141,0.0715924703127437,0.1318199429184942,707.7558929999359,220,23,male,True
179,0.14,25,up,up,1.1074090000474826,1.2729329068163064,,psi_staircase,cRDM,,0.0597827613442394,0.0685909076599646,0.1334328811573256,709.9725514999591,220,23,male,True
180,0.08,25,up,down,1.2745075999991968,0.8299286606943992,,psi_staircase,cRDM,,0.0582673755160777,0.0669603621906758,0.1316883503380316,712.1724547999911,220,23,male,True
181,0.08,25,up,down,0.7559755999827757,0.987135965304132,,psi_staircase,cRDM,,0.067219506638769,0.0756722348721513,0.1280487223295193,714.6890538999578,220,23,male,True
182,100.0,25,F,down,0.8824885999783874,0.3850588987309925,,experiment,emotion,0.0,,,,719.405498099979,220,23,male,True
183,93.0,25,M,down,0.6761535999830812,0.6223894975668929,,experiment,emotion,0.0,,,,721.1887754999334,220,23,male,True
184,97.0,25,F,up,0.80761309992522,1.5596903626086764,,experiment,emotion,0.0,,,,723.7053309999174,220,23,male,True
185,100.0,25,M,up,1.1560531000141054,1.1256073162073843,,experiment,emotion,0.0,,,,725.9219238999067,220,23,male,True
186,97.0,25,F,up,0.6861688999924809,1.9542840823304568,,experiment,emotion,0.0,,,,729.3217876999406,220,23,male,True
187,95.0,25,F,up,0.9958882000064476,0.6201121026377135,,experiment,emotion,0.0,,,,730.90508149995,220,23,male,True
188,93.0,25,M,up,0.9042775999987498,0.4452041762692825,,experiment,emotion,0.0,,,,732.6216777999653,220,23,male,True
189,95.0,25,F,down,1.0369951000902802,0.996192853545354,,experiment,emotion,0.0,,,,734.8049420999596,220,23,male,True
190,100.0,25,M,down,0.9460473000071944,1.3831772409142016,,experiment,emotion,0.0,,,,737.4881745999446,220,23,male,True
191,95.0,25,M,down,0.7845635999692604,1.7735161864559683,,experiment,emotion,0.0,,,,740.4714088999899,220,23,male,True
192,97.0,25,F,down,0.8325470000272617,0.4192559643482855,,experiment,emotion,0.0,,,,741.971356999944,220,23,male,True
193,100.0,25,M,down,0.7810425000498071,0.3128341282810432,,experiment,emotion,0.0,,,,743.387941999943,220,23,male,True
194,97.0,25,M,down,1.6218292999546975,1.4020112269184517,,experiment,emotion,0.0,,,,745.8381382999942,220,23,male,True
195,93.0,25,M,up,0.9945459999144076,0.8716474221605433,,experiment,emotion,0.0,,,,748.6044252999127,220,23,male,True
196,95.0,25,F,down,0.9133294000057504,1.950885192628795,,experiment,emotion,0.0,,,,751.8376029999927,220,23,male,True
197,93.0,25,F,down,0.9387187999673188,1.350503648786212,,experiment,emotion,0.0,,,,754.3542198999785,220,23,male,True
198,100.0,25,M,up,0.6840763000072911,0.5539658301470235,,experiment,emotion,0.0,,,,756.1208310999209,220,23,male,True
199,93.0,25,M,down,1.5665533000137657,0.9332112978242944,,experiment,emotion,0.0,,,,757.9874143999768,220,23,male,True
200,97.0,25,F,up,1.1876886000391096,1.954515405032448,,experiment,emotion,0.0,,,,761.7872818999458,220,23,male,True
201,97.0,25,F,up,2.246085899998434,0.7126422280181176,,experiment,emotion,0.0,,,,763.9538696999662,220,23,male,True
202,95.0,25,M,up,0.8515622999984771,0.7263879960312696,,experiment,emotion,0.0,,,,767.2204125999706,220,23,male,True
203,95.0,25,F,down,0.984979800065048,1.8597235028033436,,experiment,emotion,0.0,,,,770.1869761999696,220,23,male,True
204,93.0,25,M,down,0.9321660000132396,0.790538907288298,,experiment,emotion,0.0,,,,772.23676349991,220,23,male,True
205,100.0,25,F,up,1.0267195000778884,0.7223167036866593,,experiment,emotion,0.0,,,,774.170189699973,220,23,male,True
206,97.0,25,F,up,1.0163032000418752,1.0733793237485705,,experiment,emotion,0.0,,,,776.536673399969,220,23,male,True
207,93.0,25,M,up,0.8899869000306353,1.1531243591307496,,experiment,emotion,0.0,,,,778.9699844999705,220,23,male,True
208,100.0,25,M,down,0.9520702000008896,1.3432424583942126,,experiment,emotion,0.0,,,,781.4698993999045,220,23,male,True
209,100.0,25,F,up,0.9001813000068069,1.7044056250227253,,experiment,emotion,0.0,,,,784.419785499922,220,23,male,True
210,95.0,25,M,up,1.6239525000564754,1.4912400813995454,,experiment,emotion,0.0,,,,787.1030239999527,220,23,male,True
211,93.0,25,F,down,0.7923854999244213,1.7648031900057386,,experiment,emotion,0.0,,,,790.7695585999172,220,23,male,True
212,95.0,25,M,down,0.8548334999941289,1.2579307500770007,,experiment,emotion,0.0,,,,793.0861141999485,220,23,male,True
213,97.0,25,F,up,0.99420860002283,1.030628667929373,,experiment,emotion,0.0,,,,795.252759499941,220,23,male,True
214,93.0,25,M,up,1.2316310999449342,1.3663925177169898,,experiment,emotion,0.0,,,,797.8692863999167,220,23,male,True
215,100.0,25,F,up,0.7977624998893589,1.0267378493642696,,experiment,emotion,0.0,,,,800.4191914999392,220,23,male,True
216,97.0,25,M,up,0.7284596000099555,0.713718558915341,,experiment,emotion,0.0,,,,802.2024560999125,220,23,male,True
217,100.0,25,F,up,1.1265514000551775,0.8041942254178542,,experiment,emotion,0.0,,,,804.0023977999808,220,23,male,True
218,93.0,25,M,up,0.7075732999946922,1.6504976211187898,,experiment,emotion,0.0,,,,807.0523405999411,220,23,male,True
219,97.0,25,F,up,0.7364225999917835,1.4057192137968884,,experiment,emotion,0.0,,,,809.4355280000018,220,23,male,True
220,95.0,25,M,up,0.681444099987857,0.4332006706195611,,experiment,emotion,0.0,,,,810.8854838999687,220,23,male,True
221,95.0,25,F,down,0.7215070000384003,0.4814340220060719,,experiment,emotion,0.0,,,,812.3354193000123,220,23,male,True
222,97.0,25,F,down,0.852249100105837,1.6263330794552115,,experiment,emotion,0.0,,,,814.968680699938,220,23,male,True
223,100.0,25,M,up,0.7276393000502139,0.3669787764812341,,experiment,emotion,0.0,,,,816.4852859999519,220,23,male,True
224,95.0,25,F,down,1.2767783999443054,0.7587467789550391,,experiment,emotion,0.0,,,,818.2351893999148,220,23,male,True
225,93.0,25,M,up,0.970491399988532,1.4897300826255833,,experiment,emotion,0.0,,,,821.2684360999847,220,23,male,True
226,93.0,25,M,down,1.0242624999955297,0.755665594847173,,experiment,emotion,0.0,,,,823.2516628999729,220,23,male,True
227,95.0,25,F,up,0.7496247999370098,0.8860027541374238,,experiment,emotion,0.0,,,,825.4183038999327,220,23,male,True
228,100.0,25,F,up,1.4223976000212133,1.137967311480396,,experiment,emotion,0.0,,,,827.601534999907,220,23,male,True
229,97.0,25,M,down,0.880808100104332,1.5550392741247887,,experiment,emotion,0.0,,,,830.8680962999351,220,23,male,True
230,93.0,25,F,down,0.9409647000720724,0.6150622767772334,,experiment,emotion,0.0,,,,832.6180098999757,220,23,male,True
231,100.0,25,M,down,0.6509832999436185,1.241520965427836,,experiment,emotion,0.0,,,,835.0679283000063,220,23,male,True
232,97.0,25,M,down,0.6554140000371262,0.731189566480921,,experiment,emotion,0.0,,,,836.7345086999703,220,23,male,True
233,97.0,25,M,down,0.7149586000014096,0.7980644784099626,,experiment,emotion,0.0,,,,838.4510259999661,220,23,male,True
234,93.0,25,M,down,0.6332603000337258,1.4377651375607148,,experiment,emotion,0.0,,,,840.8677076000022,220,23,male,True
235,95.0,25,M,down,1.0442804000340402,0.7423948497480648,,experiment,emotion,0.0,,,,842.5176499999361,220,23,male,True
236,100.0,25,F,down,0.6457758999895304,0.7977540723453657,,experiment,emotion,0.0,,,,844.634217999992,220,23,male,True
237,95.0,25,F,down,0.6702104000141844,1.1046550142363856,,experiment,emotion,0.0,,,,846.650742799975,220,23,male,True
238,95.0,25,F,down,1.373197200009599,1.804546092713574,,experiment,emotion,0.0,,,,849.4007255999604,220,23,male,True
239,95.0,25,M,up,0.7576449000043795,0.5318148092094857,,experiment,emotion,0.0,,,,851.5673089999473,220,23,male,True
240,100.0,25,F,up,0.9246605000225828,0.8114199711973002,,experiment,emotion,0.0,,,,853.4172258999897,220,23,male,True
241,97.0,25,F,down,0.977411299943924,0.6681871920013642,,experiment,emotion,0.0,,,,855.3004881999223,220,23,male,True
242,93.0,25,F,down,0.9589018999831752,1.8722648343652968,,experiment,emotion,0.0,,,,858.4340119999833,220,23,male,True
243,93.0,25,M,down,0.8445883999811485,0.9746329976071816,,experiment,emotion,0.0,,,,860.6503281999612,220,23,male,True
244,97.0,25,F,up,1.1997284999815747,1.371064368082014,,experiment,emotion,0.0,,,,863.1501840999117,220,23,male,True
245,100.0,25,M,up,0.6395823999773711,0.5839061589162309,,experiment,emotion,0.0,,,,865.23339999991,220,23,male,True
246,100.0,25,M,up,1.3708554001059383,1.0472765089543172,,experiment,emotion,0.0,,,,867.2000594999408,220,23,male,True
247,93.0,25,F,down,0.770272699999623,1.1195146044718296,,experiment,emotion,0.0,,,,869.9666461999295,220,23,male,True
248,100.0,25,M,down,1.4143868000246584,1.4871618603336103,,experiment,emotion,0.0,,,,872.5165265999967,220,23,male,True
249,95.0,25,F,up,1.3951083000283688,0.3317646239108981,,experiment,emotion,0.0,,,,874.5498103999998,220,23,male,True
250,97.0,25,M,up,0.7672352000372484,1.7870651472674115,,experiment,emotion,0.0,,,,877.9996752999723,220,23,male,True
251,95.0,25,F,up,0.6714144999859855,1.515817653429357,,experiment,emotion,0.0,,,,880.549519799999,220,23,male,True
252,93.0,25,M,down,0.8890623999759555,0.6776804267033408,,experiment,emotion,0.0,,,,882.182849099976,220,23,male,True
253,97.0,25,F,down,0.8814167999662459,0.7516842809928426,,experiment,emotion,0.0,,,,884.0994659999851,220,23,male,True
254,95.0,25,F,down,0.7312201999593526,0.8886478301634855,,experiment,emotion,0.0,,,,886.1326937999111,220,23,male,True
255,97.0,25,F,up,0.9806268999818712,0.8123446217822101,,experiment,emotion,0.0,,,,887.9492842999753,220,23,male,True
256,93.0,25,F,up,0.7950693999882787,1.860029320229112,,experiment,emotion,0.0,,,,891.0658531999215,220,23,male,True
257,100.0,25,F,down,0.7918098999653012,1.6675345483365964,,experiment,emotion,0.0,,,,893.7991040999768,220,23,male,True
258,97.0,25,M,up,1.3369708999525756,0.3853194810140785,,experiment,emotion,0.0,,,,895.2489829999395,220,23,male,True
259,100.0,25,M,up,0.6392922999802977,1.207807897245143,,experiment,emotion,0.0,,,,898.0656210000161,220,23,male,True
260,93.0,25,M,down,0.8963831000728533,1.588551663754676,,experiment,emotion,0.0,,,,900.5655387999723,220,23,male,True
261,95.0,25,M,up,1.229138599941507,1.540238250990469,,experiment,emotion,0.0,,,,903.2987609999254,220,23,male,True
262,0.0767634808826842,25,up,up,0.6955426000058651,1.2606309432900598,,experiment,cRDM,0.0,,,,922.6813885999144,220,23,male,True
263,0.0767634808826842,25,up,up,0.7309431999456137,1.6636538731287382,,experiment,cRDM,0.0,,,,925.297961000004,220,23,male,True
264,0.0767634808826842,25,down,up,0.6859621000476182,0.610839886843068,,experiment,cRDM,0.0,,,,926.8979008999886,220,23,male,True
265,0.0767634808826842,25,down,up,1.2074088000226766,1.565243524395757,,experiment,cRDM,0.0,,,,929.4144580999856,220,23,male,True
266,0.0767634808826842,25,up,up,0.647185800014995,0.8640083312779319,,experiment,cRDM,0.0,,,,931.747732299962,220,23,male,True
267,0.0767634808826842,25,down,down,0.6452038999414071,0.3054509236774536,,experiment,cRDM,0.0,,,,932.9477340999292,220,23,male,True
268,0.0767634808826842,25,up,up,0.6193262999877334,1.9905892521671968,,experiment,cRDM,0.0,,,,935.8475749999052,220,23,male,True
269,0.0767634808826842,25,up,up,1.1542474000016227,1.3977981548408789,,experiment,cRDM,0.0,,,,938.1306614999194,220,23,male,True
270,0.0767634808826842,25,down,down,0.7325397999957204,1.8986401774429391,,experiment,cRDM,0.0,,,,941.4473705999552,220,23,male,True
271,0.0767634808826842,25,down,down,0.6444107999559492,1.9450663328396296,,experiment,cRDM,0.0,,,,944.3805510000092,220,23,male,True
272,0.0767634808826842,25,down,down,0.974091500043869,0.7722865276647564,,experiment,cRDM,0.0,,,,946.0638229999458,220,23,male,True
273,0.0767634808826842,25,down,down,1.356777900015004,0.3997194966748996,,experiment,cRDM,0.0,,,,947.6971270999638,220,23,male,True
274,0.0767634808826842,25,down,down,0.7642716999398544,1.793075981872055,,experiment,cRDM,0.0,,,,951.1136429999024,220,23,male,True
275,0.0767634808826842,25,down,down,0.7623718000249937,0.680802851205204,,experiment,cRDM,0.0,,,,952.8136026000138,220,23,male,True
276,0.0767634808826842,25,up,up,1.5800028999801723,0.4611762785717255,,experiment,cRDM,0.0,,,,954.2968727999832,220,23,male,True
277,0.0767634808826842,25,up,up,0.9181235000723972,0.9433639436480484,,experiment,cRDM,0.0,,,,957.0967885999708,220,23,male,True
278,0.0767634808826842,25,up,up,0.7145844999467954,1.3927999674367395,,experiment,cRDM,0.0,,,,959.6633634999162,220,23,male,True
279,0.0767634808826842,25,up,up,0.8185692999977618,0.969021697538734,,experiment,cRDM,0.0,,,,961.61329759995,220,23,male,True
280,0.0767634808826842,25,down,up,0.9020333000225946,0.9862530858574364,,experiment,cRDM,0.0,,,,963.6798671999712,220,23,male,True
281,0.0767634808826842,25,up,up,0.706811900017783,1.975319248503844,,experiment,cRDM,0.0,,,,966.8130925999722,220,23,male,True
282,0.0767634808826842,25,up,up,0.5958653000416234,1.1906565841125816,,experiment,cRDM,0.0,,,,968.9630265999584,220,23,male,True
283,0.0767634808826842,25,down,up,0.9599238999653608,0.6283639897569311,,experiment,cRDM,0.0,,,,970.4629756999202,220,23,male,True
284,0.0767634808826842,25,up,up,0.5944422000320628,0.952200966050332,,experiment,cRDM,0.0,,,,972.6295163999312,220,23,male,True
285,0.0767634808826842,25,down,up,0.367159100016579,1.8368768974975105,,experiment,cRDM,0.0,,,,975.312761500012,220,23,male,True
286,0.0767634808826842,25,down,up,0.6995639000087976,1.5913822533040036,,experiment,cRDM,0.0,,,,977.57933410001,220,23,male,True
287,0.0767634808826842,25,up,up,0.6567130999173969,1.7382177521831463,,experiment,cRDM,0.0,,,,980.2792490000138,220,23,male,True
288,0.0767634808826842,25,up,up,0.7307128000538796,0.5241785758055582,,experiment,cRDM,0.0,,,,981.7291851999472,220,23,male,True
289,0.0767634808826842,25,down,down,0.8072386999847367,1.3317549268473825,,experiment,cRDM,0.0,,,,984.0456511999946,220,23,male,True
290,0.0767634808826842,25,up,up,0.8228509000036865,1.5199168367842586,,experiment,cRDM,0.0,,,,986.629014599952,220,23,male,True
291,0.0767634808826842,25,down,up,1.1729590999893844,0.906621872766198,,experiment,cRDM,0.0,,,,988.6289589999942,220,23,male,True
292,0.0767634808826842,25,down,down,0.7047445001080632,1.841361912752971,,experiment,cRDM,0.0,,,,991.9121571999276,220,23,male,True
293,0.0767634808826842,25,down,down,1.154782500001602,1.5842219039373973,,experiment,cRDM,0.0,,,,994.4621139999944,220,23,male,True
294,0.0767634808826842,25,up,up,0.7878787000663579,1.377474862857181,,experiment,cRDM,0.0,,,,997.2619809999596,220,23,male,True
295,0.0767634808826842,25,up,up,1.087305299937725,0.499442351903183,,experiment,cRDM,0.0,,,,998.8285731999204,220,23,male,True
296,0.0767634808826842,25,up,up,0.6614064999157563,0.3448921926528151,,experiment,cRDM,0.0,,,,1000.528488599928,220,23,male,True
297,0.0767634808826842,25,down,down,1.05877669993788,1.2341199334977213,,experiment,cRDM,0.0,,,,1002.6950994000072,220,23,male,True
298,0.0767634808826842,25,down,down,1.034612100105733,1.3102693285615978,,experiment,cRDM,0.0,,,,1005.3282845999348,220,23,male,True
299,0.0767634808826842,25,up,up,1.0883297000546008,1.849447895427497,,experiment,cRDM,0.0,,,,1008.461547199986,220,23,male,True
300,0.0767634808826842,25,down,down,0.8432364000473171,1.7881955098855893,,experiment,cRDM,0.0,,,,1011.5947570999851,220,23,male,True
301,0.0767634808826842,25,up,up,0.5459447000175714,1.979050255145048,,experiment,cRDM,0.0,,,,1014.6779854999622,220,23,male,True
302,0.0767634808826842,25,up,down,0.7072854000143707,0.4091906410582297,,experiment,cRDM,0.0,,,,1015.8946087999502,220,23,male,True
303,0.0767634808826842,25,up,down,0.5737430999288335,1.7989204202167006,,experiment,cRDM,0.0,,,,1018.6611746000126,220,23,male,True
304,0.0767634808826842,25,down,down,0.6551738999551162,0.9771540834413894,,experiment,cRDM,0.0,,,,1020.4777698999968,220,23,male,True
305,0.0767634808826842,25,down,down,0.4502133999485522,0.6810001549120857,,experiment,cRDM,0.0,,,,1022.0777145999018,220,23,male,True
306,0.0767634808826842,25,up,up,0.654936800012365,0.4504532621674335,,experiment,cRDM,0.0,,,,1023.2610024999594,220,23,male,True
307,0.0767634808826842,25,down,down,0.7039227000204846,1.446261277658316,,experiment,cRDM,0.0,,,,1025.610934299999,220,23,male,True
308,0.0767634808826842,25,down,down,1.0936841999646276,0.856713530040851,,experiment,cRDM,0.0,,,,1027.4441947999876,220,23,male,True
309,0.0767634808826842,25,up,up,1.276765799964778,1.5413411281417109,,experiment,cRDM,0.0,,,,1030.344136599917,220,23,male,True
310,0.0767634808826842,25,up,down,0.6888956000329927,0.5145517216539196,,experiment,cRDM,0.0,,,,1032.3940017999848,220,23,male,True
311,0.0767634808826842,25,down,up,0.6716463000047952,0.3382887504622645,,experiment,cRDM,0.0,,,,1033.6772699999856,220,23,male,True
312,0.0767634808826842,25,up,up,1.0343584000365809,1.8490769579513116,,experiment,cRDM,0.0,,,,1036.460536299972,220,23,male,True
313,0.0767634808826842,25,down,down,0.7161198999965563,1.2451842709368468,,experiment,cRDM,0.0,,,,1038.9937730999663,220,23,male,True
314,0.0767634808826842,25,down,down,0.8150097000179812,1.0630883532332824,,experiment,cRDM,0.0,,,,1041.0268937000071,220,23,male,True
315,0.0767634808826842,25,down,down,0.7441923998994753,1.3376281503994565,,experiment,cRDM,0.0,,,,1043.4437140999362,220,23,male,True
316,0.0767634808826842,25,up,up,0.7043484000023454,1.1320045976284752,,experiment,cRDM,0.0,,,,1045.5935202999972,220,23,male,True
317,0.0767634808826842,25,up,down,0.644150200067088,1.214974904997589,,experiment,cRDM,0.0,,,,1047.7767616999336,220,23,male,True
318,0.0767634808826842,25,down,up,0.3505212999880314,1.515765609235208,,experiment,cRDM,0.0,,,,1050.193359299912,220,23,male,True
319,0.0767634808826842,25,down,down,1.005502099986188,1.951710697530136,,experiment,cRDM,0.0,,,,1052.8264419999905,220,23,male,True
320,0.0767634808826842,25,up,down,1.4004788000602275,0.3248208487047355,,experiment,cRDM,0.0,,,,1054.4265002999457,220,23,male,True
321,0.0767634808826842,25,up,up,2.1631787000223994,1.0670241828453308,,experiment,cRDM,0.0,,,,1057.1597926999675,220,23,male,True
322,0.0767634808826842,25,up,up,0.9266625000163912,1.0690627054547182,,experiment,cRDM,0.0,,,,1060.6432223999873,220,23,male,True
323,0.0767634808826842,25,up,down,1.1593416000250727,0.9751724750644656,,experiment,cRDM,0.0,,,,1062.8095563999375,220,23,male,True
324,0.0767634808826842,25,up,down,1.3284258000785485,1.2804368933625376,,experiment,cRDM,0.0,,,,1065.5094697999302,220,23,male,True
325,0.0767634808826842,25,down,down,0.9578260000562296,0.9755734581401324,,experiment,cRDM,0.0,,,,1068.076042999979,220,23,male,True
326,0.0767634808826842,25,down,up,0.8862842998933047,0.3932176698220582,,experiment,cRDM,0.0,,,,1069.69261119992,220,23,male,True
327,0.0767634808826842,25,up,down,1.202982599963434,0.5405087378494986,,experiment,cRDM,0.0,,,,1071.3759021000003,220,23,male,True
328,0.0767634808826842,25,down,up,0.9937778000021352,1.5610108338277604,,experiment,cRDM,0.0,,,,1074.4091369999803,220,23,male,True
329,0.0767634808826842,25,down,down,0.8054878000402823,0.4776594905586874,,experiment,cRDM,0.0,,,,1076.1424291000003,220,23,male,True
330,0.0767634808826842,25,down,up,1.6422934000147509,1.2184522716591406,,experiment,cRDM,0.0,,,,1078.425642499933,220,23,male,True
331,0.0767634808826842,25,up,down,0.9083446000004188,1.1591879944316246,,experiment,cRDM,0.0,,,,1081.475537099992,220,23,male,True
332,0.0767634808826842,25,down,up,0.7321128000039607,1.6524337629371697,,experiment,cRDM,0.0,,,,1084.30877090001,220,23,male,True
333,0.0767634808826842,25,down,up,1.7575697000138462,1.1384354377171069,,experiment,cRDM,0.0,,,,1086.4253459000029,220,23,male,True
334,0.0767634808826842,25,down,down,1.1192992998985574,0.315758458276546,,experiment,cRDM,0.0,,,,1088.758628499927,220,23,male,True
335,0.0767634808826842,25,up,up,0.8757192000048235,1.7394575873706215,,experiment,cRDM,0.0,,,,1091.8751587999286,220,23,male,True
336,0.0767634808826842,25,up,down,0.8038196000270545,1.156562157385393,,experiment,cRDM,0.0,,,,1094.1750632999465,220,23,male,True
337,0.0767634808826842,25,down,up,1.186249400023371,0.6481178092250577,,experiment,cRDM,0.0,,,,1095.8916663000127,220,23,male,True
338,0.0767634808826842,25,up,up,1.0206240999978036,0.7195225188581569,,experiment,cRDM,0.0,,,,1098.0582548999228,220,23,male,True
339,0.0767634808826842,25,down,down,1.3253799000522122,0.89116579688184,,experiment,cRDM,0.0,,,,1100.2415369999362,220,23,male,True
340,0.0767634808826842,25,up,down,1.343423700076528,0.5029468053785903,,experiment,cRDM,0.0,,,,1102.3414633999346,220,23,male,True
341,0.0767634808826842,25,up,up,1.0342380999354646,0.8256708783408444,,experiment,cRDM,0.0,,,,1104.7746815999271,220,23,male,True
342,100.0,25,M,up,1.3468789999606088,1.83397763318032,,experiment,emotion,1.0,,,,1113.9910138999112,220,23,male,True
343,93.0,25,M,up,0.8737069999333471,0.4086417746534289,,experiment,emotion,1.0,,,,1116.0242054999107,220,23,male,True
344,97.0,25,F,up,0.5140797999920323,0.6123569300140481,,experiment,emotion,1.0,,,,1117.790869099903,220,23,male,True
345,100.0,25,F,down,1.623121399898082,1.902389101166312,,experiment,emotion,1.0,,,,1120.4907724999357,220,23,male,True
346,97.0,25,M,up,0.7919236000161618,1.5867876876668492,,experiment,emotion,1.0,,,,1123.9739662999054,220,23,male,True
347,95.0,25,F,down,1.0856746000936257,0.8669042333191892,,experiment,emotion,1.0,,,,1125.9072522999486,220,23,male,True
348,93.0,25,M,up,0.8804321000352502,1.3754573625011552,,experiment,emotion,1.0,,,,1128.640480299946,220,23,male,True
349,95.0,25,M,up,0.7614617000799626,0.4889163061185634,,experiment,emotion,1.0,,,,1130.29041529994,220,23,male,True
350,100.0,25,F,up,0.6032459000125527,1.2633618071677135,,experiment,emotion,1.0,,,,1132.573654799955,220,23,male,True
351,95.0,25,F,up,0.7472175000002608,0.5214490822185612,,experiment,emotion,1.0,,,,1133.9736265999964,220,23,male,True
352,97.0,25,F,up,0.7396942999912426,0.7376988713769626,,experiment,emotion,1.0,,,,1135.7402153000005,220,23,male,True
353,100.0,25,F,up,0.6884280000813305,1.827647622151787,,experiment,emotion,1.0,,,,1138.5734405999538,220,23,male,True
354,97.0,25,F,up,0.7435046000173315,0.995042020484483,,experiment,emotion,1.0,,,,1140.523377800011,220,23,male,True
355,93.0,25,F,up,0.9429500999394804,1.9855813621740823,,experiment,emotion,1.0,,,,1143.539934200002,220,23,male,True
356,95.0,25,M,down,1.459691600059159,1.0788040633745186,,experiment,emotion,1.0,,,,1145.8231846999845,220,23,male,True
357,93.0,25,M,up,0.6638415000634268,1.9215860843974737,,experiment,emotion,1.0,,,,1149.473038999946,220,23,male,True
358,100.0,25,M,up,0.7346042999997735,1.987454175453016,,experiment,emotion,1.0,,,,1152.4062613999704,220,23,male,True
359,93.0,25,M,up,0.5596852999879047,1.0067333395463989,,experiment,emotion,1.0,,,,1154.4061849999707,220,23,male,True
360,97.0,25,F,up,0.6744493999285623,1.84400931863102,,experiment,emotion,1.0,,,,1157.0894435999217,220,23,male,True
361,97.0,25,M,up,0.8785256999544799,0.7603891409838637,,experiment,emotion,1.0,,,,1158.7893759999424,220,23,male,True
362,95.0,25,M,up,0.7449192999629304,0.7028024026081766,,experiment,emotion,1.0,,,,1160.6559639999175,220,23,male,True
363,95.0,25,F,up,0.6689804999623448,0.3273394461851543,,experiment,emotion,1.0,,,,1162.00589879998,220,23,male,True
364,93.0,25,M,down,1.2690487999934703,1.3079177791154073,,experiment,emotion,1.0,,,,1164.2558236999903,220,23,male,True
365,100.0,25,F,up,0.7821676998864859,0.958786172600714,,experiment,emotion,1.0,,,,1166.7557394999312,220,23,male,True
366,97.0,25,F,up,2.270574299967848,1.4539415527335242,,experiment,emotion,1.0,,,,1169.2723106999183,220,23,male,True
367,93.0,25,M,down,1.1093552000820637,1.544147910982111,,experiment,emotion,1.0,,,,1173.3555158999516,220,23,male,True
368,100.0,25,M,up,0.6557801000308245,1.7463843182862622,,experiment,emotion,1.0,,,,1176.472051299992,220,23,male,True
369,100.0,25,F,up,0.8489095000550151,0.8182385353112036,,experiment,emotion,1.0,,,,1178.2219595999925,220,23,male,True
370,95.0,25,M,up,0.7253028999548405,1.1424120826725677,,experiment,emotion,1.0,,,,1180.4885684999172,220,23,male,True
371,93.0,25,F,up,0.7321470999158919,0.6230682448997344,,experiment,emotion,1.0,,,,1182.1217611999018,220,23,male,True
372,95.0,25,F,up,0.6728019999573007,1.9259238494276008,,experiment,emotion,1.0,,,,1185.055071800016,220,23,male,True
373,97.0,25,F,up,0.7105357000837103,1.4859288188042237,,experiment,emotion,1.0,,,,1187.488313299953,220,23,male,True
374,93.0,25,M,up,1.6679402999579906,1.582453315828684,,experiment,emotion,1.0,,,,1190.0548886999022,220,23,male,True
375,100.0,25,M,down,1.0456882999278605,1.3811590216562135,,experiment,emotion,1.0,,,,1193.3881373999177,220,23,male,True
376,97.0,25,M,down,1.0559415000025183,1.6367652934608143,,experiment,emotion,1.0,,,,1196.3379719000077,220,23,male,True
377,100.0,25,F,,,1.1968484829559705,,experiment,emotion,1.0,,,,1198.8712299999315,220,23,male,True
378,93.0,25,F,down,1.7401267999084666,1.376993684126687,,experiment,emotion,1.0,,,,1202.9377343999222,220,23,male,True
379,97.0,25,M,up,0.7339440000941977,1.627639411690736,,experiment,emotion,1.0,,,,1206.570946599939,220,23,male,True
380,95.0,25,F,up,0.7010476000141352,0.738086825594215,,experiment,emotion,1.0,,,,1208.3207714000018,220,23,male,True
381,95.0,25,M,up,0.6697327999863774,0.722959974163052,,experiment,emotion,1.0,,,,1210.0041331999237,220,23,male,True
382,97.0,25,M,up,0.6684557000407949,0.7528287188115084,,experiment,emotion,1.0,,,,1211.6874218999874,220,23,male,True
383,100.0,25,M,up,0.4639730000635609,1.4765700936670472,,experiment,emotion,1.0,,,,1214.103984999936,220,23,male,True
384,95.0,25,F,up,0.6119684999575838,0.5705373472813255,,experiment,emotion,1.0,,,,1215.403956299997,220,23,male,True
385,93.0,25,F,up,0.5686503999168053,0.597627551449743,,experiment,emotion,1.0,,,,1216.8872367999284,220,23,male,True
386,93.0,25,M,up,0.5230378999840468,0.4616981217153551,,experiment,emotion,1.0,,,,1218.2038303000154,220,23,male,True
387,95.0,25,F,up,0.4390938999131322,0.7971536447993783,,experiment,emotion,1.0,,,,1219.8037735999096,220,23,male,True
388,100.0,25,F,up,0.4318718999857083,1.6250751166495312,,experiment,emotion,1.0,,,,1222.137032300001,220,23,male,True
389,97.0,25,M,up,0.4001735999481752,1.8288670425661024,,experiment,emotion,1.0,,,,1224.6702998999972,220,23,male,True
390,93.0,25,M,up,0.5130299999145791,1.6707424386954397,,experiment,emotion,1.0,,,,1227.0368667999282,220,23,male,True
391,100.0,25,F,up,0.4298841999843716,1.8057668902752677,,experiment,emotion,1.0,,,,1229.6199854000006,220,23,male,True
392,97.0,25,M,up,0.4351971999276429,1.678412079591189,,experiment,emotion,1.0,,,,1231.9866699000122,220,23,male,True
393,97.0,25,F,up,0.3168187000555917,1.7889615000696433,,experiment,emotion,1.0,,,,1234.4699251999846,220,23,male,True
394,93.0,25,F,down,0.7394044999964535,0.9184266992854992,,experiment,emotion,1.0,,,,1236.0865108999424,220,23,male,True
395,95.0,25,F,down,1.4763749999692664,0.3734843990883136,,experiment,emotion,1.0,,,,1237.4864818999777,220,23,male,True
396,100.0,25,M,up,0.6542204000288621,1.3982210164563071,,experiment,emotion,1.0,,,,1240.6196252999362,220,23,male,True
397,95.0,25,M,down,0.9715115999570116,0.3311878670374433,,experiment,emotion,1.0,,,,1241.8863346999278,220,23,male,True
398,95.0,25,F,down,0.9895948000485078,0.8672058124993107,,experiment,emotion,1.0,,,,1243.9862648999551,220,23,male,True
399,95.0,25,F,down,0.70501619996503,0.3026875209256579,,experiment,emotion,1.0,,,,1245.5528550000165,220,23,male,True
400,100.0,25,M,down,0.5634706999408081,1.0769637779583277,,experiment,emotion,1.0,,,,1247.619425199926,220,23,male,True
401,97.0,25,M,down,0.7929419999709353,1.8822393524570784,,experiment,emotion,1.0,,,,1250.3358803999145,220,23,male,True
402,93.0,25,M,down,0.7757036000257358,0.5067743749019682,,experiment,emotion,1.0,,,,1251.9191507999783,220,23,male,True
403,93.0,25,M,down,0.6809978999663144,0.577936469354158,,experiment,emotion,1.0,,,,1253.5358956999844,220,23,male,True
404,97.0,25,M,down,0.7233776999637485,0.8653039512237215,,experiment,emotion,1.0,,,,1255.352480100002,220,23,male,True
405,100.0,25,F,down,1.6985219999914989,1.6629342454899847,,experiment,emotion,1.0,,,,1258.002368599991,220,23,male,True
406,100.0,25,F,up,0.6908563999459147,0.4007661125061335,,experiment,emotion,1.0,,,,1260.368979599909,220,23,male,True
407,93.0,25,M,down,1.3496068000094965,0.7753705698978153,,experiment,emotion,1.0,,,,1262.102240099921,220,23,male,True
408,100.0,25,F,up,1.0427308999933302,1.7786158407774415,,experiment,emotion,1.0,,,,1265.5021120000165,220,23,male,True
409,95.0,25,F,down,1.9141582999145608,1.4924845327046283,,experiment,emotion,1.0,,,,1268.3186968999216,220,23,male,True
410,97.0,25,F,down,0.9202918000519276,0.7982768635267485,,experiment,emotion,1.0,,,,1271.318553399993,220,23,male,True
411,95.0,25,M,down,1.5453649000264704,1.3508481817422353,,experiment,emotion,1.0,,,,1273.8684748999076,220,23,male,True
412,93.0,25,F,down,0.6937222999986261,0.4210125911016709,,experiment,emotion,1.0,,,,1276.1350634999108,220,23,male,True
413,97.0,25,F,down,1.1556873000226917,0.7168056059554535,,experiment,emotion,1.0,,,,1277.8181558999931,220,23,male,True
414,95.0,25,F,down,0.7392998000141233,1.5046664640359,,experiment,emotion,1.0,,,,1280.7515515999405,220,23,male,True
415,97.0,25,M,down,0.9610592001117766,1.336793341599909,,experiment,emotion,1.0,,,,1283.084813299938,220,23,male,True
416,93.0,25,M,up,1.0221172000747174,0.9738542324414468,,experiment,emotion,1.0,,,,1285.284716199967,220,23,male,True
417,100.0,25,F,down,1.515560199972242,1.4642986700132008,,experiment,emotion,1.0,,,,1288.0512969999108,220,23,male,True
418,97.0,25,M,,,1.220532444837908,,experiment,emotion,1.0,,,,1291.067833899986,220,23,male,True
419,100.0,25,F,down,1.3621182999340815,1.498716479073502,,experiment,emotion,1.0,,,,1295.267693999922,220,23,male,True
420,93.0,25,M,down,1.1209480001125485,0.5895224501075573,,experiment,emotion,1.0,,,,1297.5009089999369,220,23,male,True
421,95.0,25,M,down,0.9873293000273408,1.0496228672280778,,experiment,emotion,1.0,,,,1299.967519799946,220,23,male,True
422,0.0767634808826842,25,up,up,0.7398512000218034,1.7672217157944183,,experiment,cRDM,1.0,,,,1305.4339941999642,220,23,male,True
423,0.0767634808826842,25,up,down,0.7199448000174016,1.2591857270148457,,experiment,cRDM,1.0,,,,1307.6838982999325,220,23,male,True
424,0.0767634808826842,25,down,down,0.5727041000500321,1.497486342756959,,experiment,cRDM,1.0,,,,1310.1671323999765,220,23,male,True
425,0.0767634808826842,25,down,down,1.4525872999802232,0.6541906280046303,,experiment,cRDM,1.0,,,,1311.6504149999237,220,23,male,True
426,0.0767634808826842,25,up,down,0.9918822000036016,1.9078439653074784,,experiment,cRDM,1.0,,,,1315.2669635999482,220,23,male,True
427,0.0767634808826842,25,down,down,0.6016499000834301,1.3451074401836118,,experiment,cRDM,1.0,,,,1317.8502098999452,220,23,male,True
428,0.0767634808826842,25,up,up,0.681432000012137,1.421701915400955,,experiment,cRDM,1.0,,,,1320.133454900002,220,23,male,True
429,0.0767634808826842,25,up,up,1.1948115000268444,0.9526744431910406,,experiment,cRDM,1.0,,,,1322.050038699992,220,23,male,True
430,0.0767634808826842,25,down,down,0.7315364999230951,0.4911085212005705,,experiment,cRDM,1.0,,,,1323.9833095999202,220,23,male,True
431,0.0767634808826842,25,down,up,0.672433799947612,1.4385333657141202,,experiment,cRDM,1.0,,,,1326.416432500002,220,23,male,True
432,0.0767634808826842,25,down,down,0.3838570000370964,0.3961931030157029,,experiment,cRDM,1.0,,,,1327.7498115999624,220,23,male,True
433,0.0767634808826842,25,down,up,0.2504491999279707,1.799156184737293,,experiment,cRDM,1.0,,,,1330.2330958999228,220,23,male,True
434,0.0767634808826842,25,down,up,0.5198215999407694,0.9363948552786934,,experiment,cRDM,1.0,,,,1331.8330229999265,220,23,male,True
435,0.0767634808826842,25,down,up,0.893302199896425,1.1778065988899449,,experiment,cRDM,1.0,,,,1333.7995853999164,220,23,male,True
436,0.0767634808826842,25,up,up,0.8490284000290558,1.7331988204690152,,experiment,cRDM,1.0,,,,1336.6828227000078,220,23,male,True
437,0.0767634808826842,25,up,up,0.6081093000248075,0.6281797837868862,,experiment,cRDM,1.0,,,,1338.432787399972,220,23,male,True
438,0.0767634808826842,25,up,up,1.1158223000820726,0.4498957486335945,,experiment,cRDM,1.0,,,,1339.7660442999331,220,23,male,True
439,0.0767634808826842,25,up,up,0.7428863000823185,1.2182136806407726,,experiment,cRDM,1.0,,,,1342.365957299946,220,23,male,True
440,0.0767634808826842,25,down,down,0.878665899974294,1.6737624577121093,,experiment,cRDM,1.0,,,,1345.0491837000009,220,23,male,True
441,0.0767634808826842,25,up,up,0.6761924000456929,1.3203883928200004,,experiment,cRDM,1.0,,,,1347.5156541999895,220,23,male,True
442,0.0767634808826842,25,up,up,0.6708207000046968,0.5441556309325211,,experiment,cRDM,1.0,,,,1348.999026699923,220,23,male,True
443,0.0767634808826842,25,down,up,0.7443638000404462,1.7820931958204214,,experiment,cRDM,1.0,,,,1351.7154761999846,220,23,male,True
444,0.0767634808826842,25,up,up,0.6700143000343814,1.0286195621016123,,experiment,cRDM,1.0,,,,1353.7488655999769,220,23,male,True
445,0.0767634808826842,25,down,up,0.662380599998869,1.8008312996370803,,experiment,cRDM,1.0,,,,1356.4654326000018,220,23,male,True
446,0.0767634808826842,25,down,up,0.6914854000788182,0.911011999636554,,experiment,cRDM,1.0,,,,1358.3153658999363,220,23,male,True
447,0.0767634808826842,25,up,up,0.4452450999524444,1.379116176069687,,experiment,cRDM,1.0,,,,1360.6486256999196,220,23,male,True
448,0.0767634808826842,25,up,up,0.6276293999981135,1.309225067521074,,experiment,cRDM,1.0,,,,1362.6652118999043,220,23,male,True
449,0.0767634808826842,25,down,up,0.8780266999965534,0.9220826037732276,,experiment,cRDM,1.0,,,,1364.4818206999917,220,23,male,True
450,0.0767634808826842,25,up,up,0.5564897999865934,1.6307017024844448,,experiment,cRDM,1.0,,,,1367.248350000009,220,23,male,True
451,0.0767634808826842,25,down,up,0.6198930999962613,1.557992268282551,,experiment,cRDM,1.0,,,,1369.6150030000135,220,23,male,True
452,0.0767634808826842,25,down,up,0.6479892999632284,0.4109401890583163,,experiment,cRDM,1.0,,,,1370.9148462999146,220,23,male,True
453,0.0767634808826842,25,down,down,0.7831584000959992,1.4860485835487964,,experiment,cRDM,1.0,,,,1373.3146773999324,220,23,male,True
454,0.0767634808826842,25,up,up,0.7244209999917075,0.5596872303962444,,experiment,cRDM,1.0,,,,1374.9314327000177,220,23,male,True
455,0.0767634808826842,25,up,down,0.8345281999791041,1.6582636383926197,,experiment,cRDM,1.0,,,,1377.5813090999145,220,23,male,True
456,0.0767634808826842,25,up,up,0.5135894999839365,1.3544458051875898,,experiment,cRDM,1.0,,,,1380.0312477999832,220,23,male,True
457,0.0767634808826842,25,down,up,0.7249890000093728,1.0932472675710976,,experiment,cRDM,1.0,,,,1381.8978167999303,220,23,male,True
458,0.0767634808826842,25,down,up,0.8166873999871314,0.3555076596560327,,experiment,cRDM,1.0,,,,1383.231134200003,220,23,male,True
459,0.0767634808826842,25,up,up,1.19851550005842,1.55341587944587,,experiment,cRDM,1.0,,,,1385.864387699985,220,23,male,True
460,0.0767634808826842,25,down,down,1.695291699958034,1.3763772184480187,,experiment,cRDM,1.0,,,,1388.6975759000052,220,23,male,True
461,0.0767634808826842,25,up,up,0.7281088000163436,1.1819691504247491,,experiment,cRDM,1.0,,,,1391.8307536999928,220,23,male,True
462,0.0767634808826842,25,up,down,0.717118899920024,0.5643479091038064,,experiment,cRDM,1.0,,,,1393.3807372999145,220,23,male,True
463,0.0767634808826842,25,up,up,0.9375034999102354,1.343237578762798,,experiment,cRDM,1.0,,,,1395.6973195999162,220,23,male,True
464,0.0767634808826842,25,down,down,1.1105711999116463,0.4563833466579238,,experiment,cRDM,1.0,,,,1397.347286199918,220,23,male,True
465,0.0767634808826842,25,down,up,1.5977579000173137,0.7800217331039223,,experiment,cRDM,1.0,,,,1399.4971172999358,220,23,male,True
466,0.0767634808826842,25,up,down,2.143815499963239,0.3342974207824105,,experiment,cRDM,1.0,,,,1401.6970816999674,220,23,male,True
467,0.0767634808826842,25,down,up,0.8631899999454618,1.261826073896844,,experiment,cRDM,1.0,,,,1405.3636423000137,220,23,male,True
468,0.0767634808826842,25,down,down,1.0135664999252183,0.3903706261506449,,experiment,cRDM,1.0,,,,1406.8802627999105,220,23,male,True
469,0.0767634808826842,25,up,up,0.6606763999443501,1.1317894814449472,,experiment,cRDM,1.0,,,,1409.2801634999923,220,23,male,True
470,0.0767634808826842,25,up,down,0.7124501999933273,0.9612743891691968,,experiment,cRDM,1.0,,,,1411.1634163999695,220,23,male,True
471,0.0767634808826842,25,down,up,0.6999923000112176,1.7881882144758747,,experiment,cRDM,1.0,,,,1413.9298525999766,220,23,male,True
472,0.0767634808826842,25,up,up,0.7372352000093088,0.8550365994386302,,experiment,cRDM,1.0,,,,1415.7465869999724,220,23,male,True
473,0.0767634808826842,25,down,up,0.8594939999748021,1.5560830276925652,,experiment,cRDM,1.0,,,,1418.2963743999137,220,23,male,True
474,0.0767634808826842,25,down,down,0.7077204999513924,1.5826204280075111,,experiment,cRDM,1.0,,,,1421.0130686999764,220,23,male,True
475,0.0767634808826842,25,down,up,0.6551379000302404,0.6443952438693488,,experiment,cRDM,1.0,,,,1422.6296889999649,220,23,male,True
476,0.0767634808826842,25,up,down,2.0789092000341043,1.5559696810560346,,experiment,cRDM,1.0,,,,1425.1129377000034,220,23,male,True
477,0.0767634808826842,25,up,up,0.7253550000023097,1.0343638858111397,,experiment,cRDM,1.0,,,,1428.4794601999456,220,23,male,True
478,0.0767634808826842,25,down,up,0.6454102999996394,1.748949578881245,,experiment,cRDM,1.0,,,,1431.2294095999096,220,23,male,True
479,0.0767634808826842,25,down,up,0.5502769999438897,1.7220677591779296,,experiment,cRDM,1.0,,,,1433.8625900999175,220,23,male,True
480,0.0767634808826842,25,up,up,0.7529785999795422,0.8564485186627113,,experiment,cRDM,1.0,,,,1435.5458699999144,220,23,male,True
481,0.0767634808826842,25,up,up,0.7354023000225425,1.887691143057478,,experiment,cRDM,1.0,,,,1438.4624267999316,220,23,male,True
482,0.0767634808826842,25,up,up,0.6915008000796661,0.8085708749236273,,experiment,cRDM,1.0,,,,1440.2623453999404,220,23,male,True
483,0.0767634808826842,25,up,up,0.5799186000367627,0.4509484865024996,,experiment,cRDM,1.0,,,,1441.6789685999977,220,23,male,True
484,0.0767634808826842,25,up,up,0.7356291000032797,1.0874317407492364,,experiment,cRDM,1.0,,,,1443.612205799902,220,23,male,True
485,0.0767634808826842,25,down,up,0.8597521000774577,0.7821248393710577,,experiment,cRDM,1.0,,,,1445.412083299947,220,23,male,True
486,0.0767634808826842,25,down,up,2.338136200094596,1.34210657050147,,experiment,cRDM,1.0,,,,1447.878736399929,220,23,male,True
487,0.0767634808826842,25,up,down,2.1265216999454424,0.7573111947886266,,experiment,cRDM,1.0,,,,1451.245305199991,220,23,male,True
488,0.0767634808826842,25,down,up,0.8613863999489695,1.354732320140255,,experiment,cRDM,1.0,,,,1454.9784716999857,220,23,male,True
489,0.0767634808826842,25,down,,,1.7087337331357448,,experiment,cRDM,1.0,,,,1457.7950404000003,220,23,male,True
490,0.0767634808826842,25,down,up,1.0742482000496238,1.1800036731099155,,experiment,cRDM,1.0,,,,1461.6615803999591,220,23,male,True
491,0.0767634808826842,25,up,up,1.2563291999977082,0.9689908018472831,,experiment,cRDM,1.0,,,,1463.9614950999385,220,23,male,True
492,0.0767634808826842,25,down,up,1.0501217999262735,0.3196031457045123,,experiment,cRDM,1.0,,,,1465.79472409992,220,23,male,True
493,0.0767634808826842,25,down,up,2.0108093000017107,0.4208462323288601,,experiment,cRDM,1.0,,,,1467.528043499915,220,23,male,True
494,0.0767634808826842,25,down,up,0.9056535999989136,1.4668305823230234,,experiment,cRDM,1.0,,,,1471.261208700016,220,23,male,True
495,0.0767634808826842,25,up,up,0.7073662999318913,1.49816076366439,,experiment,cRDM,1.0,,,,1473.944455799996,220,23,male,True
496,0.0767634808826842,25,up,up,0.9518588000210002,0.5058823056925592,,experiment,cRDM,1.0,,,,1475.4109990999568,220,23,male,True
497,0.0767634808826842,25,down,down,1.689095199923031,1.297410819121224,,experiment,cRDM,1.0,,,,1477.9276757999323,220,23,male,True
498,0.0767634808826842,25,up,up,1.0003361999988556,0.5945713542833195,,experiment,cRDM,1.0,,,,1480.4775123000145,220,23,male,True
499,0.0767634808826842,25,down,up,0.9780279999831692,0.715049546970083,,experiment,cRDM,1.0,,,,1482.4608002000025,220,23,male,True
500,0.0767634808826842,25,up,up,1.4014264000579717,0.974015440328002,,experiment,cRDM,1.0,,,,1484.677390399971,220,23,male,True
501,0.0767634808826842,25,up,up,1.1878638999769464,1.2601218062885602,,experiment,cRDM,1.0,,,,1487.593931899988,220,23,male,True
502,100.0,25,M,,,0.7329761053486425,,experiment,emotion,2.0,,,,1491.9937655999092,220,23,male,True
503,93.0,25,M,down,1.321893799933605,1.78713938025606,,experiment,emotion,2.0,,,,1496.4769633999094,220,23,male,True
504,97.0,25,F,up,0.6926560000283644,1.4683742071378814,,experiment,emotion,2.0,,,,1499.5601718999678,220,23,male,True
505,100.0,25,F,up,0.682088700006716,1.9370954729145964,,experiment,emotion,2.0,,,,1502.476735999924,220,23,male,True
506,97.0,25,M,up,1.4251301999902353,0.5815712536802848,,experiment,emotion,2.0,,,,1504.0266759999795,220,23,male,True
507,95.0,25,F,down,0.8602495000232011,0.7730593492973017,,experiment,emotion,2.0,,,,1506.5265970999608,220,23,male,True
508,93.0,25,M,,,0.4239334771460704,,experiment,emotion,2.0,,,,1508.0931739999214,220,23,male,True
509,95.0,25,M,up,1.0763969999970868,1.3545847275008938,,experiment,emotion,2.0,,,,1512.1263985999394,220,23,male,True
510,100.0,25,F,up,0.78422499995213,1.177364557213051,,experiment,emotion,2.0,,,,1514.659628399997,220,23,male,True
511,95.0,25,F,down,1.216023200075142,1.6320344032508016,,experiment,emotion,2.0,,,,1517.3428420999553,220,23,male,True
512,97.0,25,F,up,0.7654246999882162,1.9080061693612171,,experiment,emotion,2.0,,,,1520.759391399915,220,23,male,True
513,100.0,25,F,down,1.4848504000110552,1.6929748168929897,,experiment,emotion,2.0,,,,1523.475966099999,220,23,male,True
514,97.0,25,F,up,1.4222957999445498,0.655098043119595,,experiment,emotion,2.0,,,,1525.8925209000008,220,23,male,True
515,93.0,25,F,up,0.7553892999421805,0.6026678632826481,,experiment,emotion,2.0,,,,1528.192443399923,220,23,male,True
516,95.0,25,M,up,0.970881399931386,1.4658398089032394,,experiment,emotion,2.0,,,,1530.708954099915,220,23,male,True
517,93.0,25,M,up,0.5858569999691099,1.0168429402239738,,experiment,emotion,2.0,,,,1532.9589562999315,220,23,male,True
518,100.0,25,M,up,0.5722811999730766,0.7127697567396871,,experiment,emotion,2.0,,,,1534.5255735999672,220,23,male,True
519,93.0,25,M,up,0.4796448999550193,0.7824117323271358,,experiment,emotion,2.0,,,,1536.1421715999022,220,23,male,True
520,97.0,25,F,up,0.6680790000827983,1.7776455835660654,,experiment,emotion,2.0,,,,1538.6587356999516,220,23,male,True
521,97.0,25,M,up,0.6492443999741226,0.7009729424805484,,experiment,emotion,2.0,,,,1540.3085447999183,220,23,male,True
522,95.0,25,M,up,0.3169442999642342,1.8583376218259533,,experiment,emotion,2.0,,,,1543.075225899927,220,23,male,True
523,95.0,25,F,up,0.7682673000963405,0.5902644289529135,,experiment,emotion,2.0,,,,1544.3585427999496,220,23,male,True
524,93.0,25,M,down,1.05503780010622,1.1518995141339918,,experiment,emotion,2.0,,,,1546.5417758999392,220,23,male,True
525,100.0,25,F,up,0.7234622000250965,0.722994137701207,,experiment,emotion,2.0,,,,1548.6083471999737,220,23,male,True
526,97.0,25,F,up,0.6626799999503419,1.5966648144876718,,experiment,emotion,2.0,,,,1551.2081571000165,220,23,male,True
527,93.0,25,M,up,1.0235833999468014,1.1234674106311953,,experiment,emotion,2.0,,,,1553.2582254000008,220,23,male,True
528,100.0,25,M,down,1.2686818999936804,0.704448966049811,,experiment,emotion,2.0,,,,1555.2581129999598,220,23,male,True
529,100.0,25,F,up,1.3384455000050366,1.1431311280658951,,experiment,emotion,2.0,,,,1557.941362899961,220,23,male,True
530,95.0,25,M,down,1.0352652000728997,0.8448732874283273,,experiment,emotion,2.0,,,,1560.4246351999464,220,23,male,True
531,93.0,25,F,down,0.6883319999324158,1.248971792812491,,experiment,emotion,2.0,,,,1562.9745147000067,220,23,male,True
532,95.0,25,F,down,0.624040300026536,1.82535425936606,,experiment,emotion,2.0,,,,1565.7577488999814,220,23,male,True
533,97.0,25,F,down,0.8311571000376716,1.8896568626477503,,experiment,emotion,2.0,,,,1568.5576494999696,220,23,male,True
534,93.0,25,M,down,0.8563590999692678,1.5032191969818534,,experiment,emotion,2.0,,,,1571.157561399974,220,23,male,True
535,100.0,25,M,down,1.1474356999387965,1.5162566051366102,,experiment,emotion,2.0,,,,1573.8073695999335,220,23,male,True
536,97.0,25,M,up,0.9082104999106376,0.956616706589821,,experiment,emotion,2.0,,,,1576.1906851999229,220,23,male,True
537,100.0,25,F,up,0.7572185000171885,0.3158970326339754,,experiment,emotion,2.0,,,,1577.69062020001,220,23,male,True
538,93.0,25,F,down,1.516290400060825,1.0689618898107702,,experiment,emotion,2.0,,,,1579.790522599942,220,23,male,True
539,97.0,25,M,up,0.7546947000082582,0.6848661702589149,,experiment,emotion,2.0,,,,1582.2571348999627,220,23,male,True
540,95.0,25,F,up,1.280816699960269,1.6047221920282984,,experiment,emotion,2.0,,,,1584.9069902999329,220,23,male,True
541,95.0,25,M,up,0.7408568999962881,1.0966078936114694,,experiment,emotion,2.0,,,,1587.5569504000014,220,23,male,True
542,97.0,25,M,up,0.9046434999909252,1.025456033345835,,experiment,emotion,2.0,,,,1589.5901811999502,220,23,male,True
543,100.0,25,M,up,1.4453568999888375,0.8890264171811473,,experiment,emotion,2.0,,,,1591.6734646999976,220,23,male,True
544,95.0,25,F,up,0.710253500030376,1.7203494676039162,,experiment,emotion,2.0,,,,1595.1065690999385,220,23,male,True
545,93.0,25,F,up,0.7239010999910533,0.788408500145932,,experiment,emotion,2.0,,,,1596.8899056999944,220,23,male,True
546,93.0,25,M,up,0.9436698000645264,1.887492093117738,,experiment,emotion,2.0,,,,1599.773140799953,220,23,male,True
547,95.0,25,F,up,0.7407103000441566,0.5877104166290996,,experiment,emotion,2.0,,,,1601.573079599999,220,23,male,True
548,100.0,25,F,up,0.672275900025852,1.9039492136844127,,experiment,emotion,2.0,,,,1604.4895591000095,220,23,male,True
549,97.0,25,M,up,0.526592499925755,0.554606206342317,,experiment,emotion,2.0,,,,1606.0062723999145,220,23,male,True
550,93.0,25,M,up,0.4168021000223234,0.812388324755511,,experiment,emotion,2.0,,,,1607.6061987999128,220,23,male,True
551,100.0,25,F,down,0.851639200001955,0.360147334641463,,experiment,emotion,2.0,,,,1608.656186999986,220,23,male,True
552,97.0,25,M,down,0.6943693000357598,0.9528578765254332,,experiment,emotion,2.0,,,,1610.739434099989,220,23,male,True
553,97.0,25,F,up,0.6408516999799758,1.7506278744557706,,experiment,emotion,2.0,,,,1613.4559886999195,220,23,male,True
554,93.0,25,F,up,1.2912248999346048,1.4642549877286035,,experiment,emotion,2.0,,,,1615.8225811999291,220,23,male,True
555,95.0,25,F,up,0.6676812999648973,1.5289681050799715,,experiment,emotion,2.0,,,,1618.939118899987,220,23,male,True
556,100.0,25,M,up,0.4731185000855475,1.4525105785038437,,experiment,emotion,2.0,,,,1621.355670799967,220,23,male,True
557,95.0,25,M,up,0.5298229000763968,0.6501913818085443,,experiment,emotion,2.0,,,,1622.73900219996,220,23,male,True
558,95.0,25,F,up,0.4001997000304982,1.0048934081010443,,experiment,emotion,2.0,,,,1624.5389222999802,220,23,male,True
559,95.0,25,F,up,0.8286799000343308,1.5497446107167046,,experiment,emotion,2.0,,,,1626.772170900018,220,23,male,True
560,100.0,25,M,up,0.7000752000603825,0.4975766495013103,,experiment,emotion,2.0,,,,1628.3887246999657,220,23,male,True
561,97.0,25,M,up,0.6303918000776321,0.3855952848044397,,experiment,emotion,2.0,,,,1629.7554081999697,220,23,male,True
562,93.0,25,M,up,0.6744577999925241,0.5794215541369454,,experiment,emotion,2.0,,,,1631.2553457999602,220,23,male,True
563,93.0,25,M,down,0.8505304999416694,0.7607590333355139,,experiment,emotion,2.0,,,,1632.9552823000122,220,23,male,True
564,97.0,25,M,up,0.9376249000197276,1.3233794437314823,,experiment,emotion,2.0,,,,1635.405171399936,220,23,male,True
565,100.0,25,F,down,1.222407600027509,1.9192921435370456,,experiment,emotion,2.0,,,,1638.5384036999894,220,23,male,True
566,100.0,25,F,up,0.6801544999470934,1.4528492886179751,,experiment,emotion,2.0,,,,1641.471627299907,220,23,male,True
567,93.0,25,M,up,0.7219334000255913,1.823482544453004,,experiment,emotion,2.0,,,,1644.2548614999978,220,23,male,True
568,100.0,25,F,up,1.8439819000195712,1.4062283406173184,,experiment,emotion,2.0,,,,1646.6547823,220,23,male,True
569,95.0,25,F,down,0.94017580000218,1.603762735979371,,experiment,emotion,2.0,,,,1650.4046363999369,220,23,male,True
570,97.0,25,F,up,0.6270891999593005,1.3554156287217394,,experiment,emotion,2.0,,,,1652.987714299932,220,23,male,True
571,95.0,25,M,up,0.741138800047338,1.40390947340975,,experiment,emotion,2.0,,,,1655.287664799951,220,23,male,True
572,93.0,25,F,down,1.9174402999924496,1.6084266998425312,,experiment,emotion,2.0,,,,1657.9043749999255,220,23,male,True
573,97.0,25,F,down,1.118604600080289,1.865436289912,,experiment,emotion,2.0,,,,1661.9542204999598,220,23,male,True
574,95.0,25,F,up,0.6396749999839813,0.9601066545837842,,experiment,emotion,2.0,,,,1664.304122100002,220,23,male,True
575,97.0,25,M,up,0.9530859999358654,0.8517403763796279,,experiment,emotion,2.0,,,,1666.0707103000022,220,23,male,True
576,93.0,25,M,down,0.7771755999419838,1.2594600691324942,,experiment,emotion,2.0,,,,1668.5706186000025,220,23,male,True
577,100.0,25,F,up,1.0752627999754625,1.1356615486654495,,experiment,emotion,2.0,,,,1670.7705353999045,220,23,male,True
578,97.0,25,M,up,0.7433422999456525,0.8389582542552436,,experiment,emotion,2.0,,,,1672.9704509999135,220,23,male,True
579,100.0,25,F,down,0.8504237999441102,0.7748142598167947,,experiment,emotion,2.0,,,,1674.7703861999323,220,23,male,True
580,93.0,25,M,down,0.895548400003463,0.674674524457157,,experiment,emotion,2.0,,,,1676.5703105999855,220,23,male,True
581,95.0,25,M,down,0.672912499983795,0.8450085431326984,,experiment,emotion,2.0,,,,1678.58690679993,220,23,male,True
582,0.0767634808826842,25,up,up,0.6585143000120297,1.581288158728973,,experiment,cRDM,2.0,,,,1693.1862523999298,220,23,male,True
583,0.0767634808826842,25,up,up,0.5361337000504136,0.9189472935720508,,experiment,cRDM,2.0,,,,1695.0196595999878,220,23,male,True
584,0.0767634808826842,25,down,down,0.6751886999700218,1.0924078140125502,,experiment,cRDM,2.0,,,,1696.9196024999255,220,23,male,True
585,0.0767634808826842,25,down,up,0.4822536000283435,0.5202096457244623,,experiment,cRDM,2.0,,,,1698.3695369999623,220,23,male,True
586,0.0767634808826842,25,up,up,0.614361000014469,1.3422352393355346,,experiment,cRDM,2.0,,,,1700.469448299962,220,23,male,True
587,0.0767634808826842,25,down,down,0.5220711000729352,1.8626841974058277,,experiment,cRDM,2.0,,,,1703.2027229999658,220,23,male,True
588,0.0767634808826842,25,up,down,0.4805137999355793,0.6824482775416375,,experiment,cRDM,2.0,,,,1704.6692760000003,220,23,male,True
589,0.0767634808826842,25,up,down,0.6092216999968514,1.43975310564893,,experiment,cRDM,2.0,,,,1706.852567999973,220,23,male,True
590,0.0767634808826842,25,down,down,0.6953416999895126,1.6463990086900484,,experiment,cRDM,2.0,,,,1709.35246189998,220,23,male,True
591,0.0767634808826842,25,down,down,0.6810998999280855,1.9759311932982415,,experiment,cRDM,2.0,,,,1712.285687299911,220,23,male,True
592,0.0767634808826842,25,down,up,1.2172775999642909,1.91068178020716,,experiment,cRDM,2.0,,,,1715.1355783999898,220,23,male,True
593,0.0767634808826842,25,down,down,0.5940009000478312,0.6564780616297847,,experiment,cRDM,2.0,,,,1717.268832899979,220,23,male,True
594,0.0767634808826842,25,down,up,0.6163500000257045,0.9035568789639956,,experiment,cRDM,2.0,,,,1719.0354222999886,220,23,male,True
595,0.0767634808826842,25,down,up,0.7234348000492901,1.9189112289907435,,experiment,cRDM,2.0,,,,1721.8353522999678,220,23,male,True
596,0.0767634808826842,25,up,down,1.0175308999605477,0.4219400181441499,,experiment,cRDM,2.0,,,,1723.2352779000066,220,23,male,True
597,0.0767634808826842,25,up,up,0.4729118000250309,0.9239825898296172,,experiment,cRDM,2.0,,,,1725.4518952999497,220,23,male,True
598,0.0767634808826842,25,up,down,0.4310384000418708,0.8153184310361634,,experiment,cRDM,2.0,,,,1727.001799199963,220,23,male,True
599,0.0767634808826842,25,up,up,0.664151000091806,1.8621283661271333,,experiment,cRDM,2.0,,,,1729.551684999955,220,23,male,True
600,0.0767634808826842,25,down,down,0.5298071999568492,0.7037062997541821,,experiment,cRDM,2.0,,,,1731.1849781000055,220,23,male,True
601,0.0767634808826842,25,up,up,0.534884300082922,0.502994103356828,,experiment,cRDM,2.0,,,,1732.4849341999509,220,23,male,True
602,0.0767634808826842,25,up,up,0.6545674999943003,1.3243688822383506,,experiment,cRDM,2.0,,,,1734.6182237999749,220,23,male,True
603,0.0767634808826842,25,down,down,0.3173391999443993,0.8636317778576856,,experiment,cRDM,2.0,,,,1736.4013135000132,220,23,male,True
604,0.0767634808826842,25,up,down,0.530435899971053,0.9805837298705408,,experiment,cRDM,2.0,,,,1738.0513741999166,220,23,male,True
605,0.0767634808826842,25,down,down,1.2004942999919876,1.4571484272611623,,experiment,cRDM,2.0,,,,1740.301292499993,220,23,male,True
606,0.0767634808826842,25,down,down,1.04436469997745,0.96732491666047,,experiment,cRDM,2.0,,,,1742.7345623999136,220,23,male,True
607,0.0767634808826842,25,up,up,0.7046930000651628,1.2014194687446402,,experiment,cRDM,2.0,,,,1745.2511527999304,220,23,male,True
608,0.0767634808826842,25,up,up,0.7084876999724656,1.9659686491403705,,experiment,cRDM,2.0,,,,1748.1843323999783,220,23,male,True
609,0.0767634808826842,25,down,down,1.4491866999305785,1.910566688719046,,experiment,cRDM,2.0,,,,1751.0675968999276,220,23,male,True
610,0.0767634808826842,25,up,up,0.766644399962388,1.3076306032227822,,experiment,cRDM,2.0,,,,1754.0841208999043,220,23,male,True
611,0.0767634808826842,25,down,up,1.2879925000015646,0.798372527645024,,experiment,cRDM,2.0,,,,1755.9007884999735,220,23,male,True
612,0.0767634808826842,25,down,up,0.6772189999464899,0.7458255595056726,,experiment,cRDM,2.0,,,,1758.2006494000088,220,23,male,True
613,0.0767634808826842,25,down,up,0.7615255999844521,0.4663281408130306,,experiment,cRDM,2.0,,,,1759.6173053999664,220,23,male,True
614,0.0767634808826842,25,up,up,0.7098731999285519,0.5978964266771772,,experiment,cRDM,2.0,,,,1761.233890799922,220,23,male,True
615,0.0767634808826842,25,up,down,0.5519956999924034,0.9749639053501056,,experiment,cRDM,2.0,,,,1763.1837731999112,220,23,male,True
616,0.0767634808826842,25,up,down,0.7760459999553859,0.5796932853206641,,experiment,cRDM,2.0,,,,1764.583720900002,220,23,male,True
617,0.0767634808826842,25,down,down,0.7762129999464378,1.5473311800957292,,experiment,cRDM,2.0,,,,1767.1835880000144,220,23,male,True
618,0.0767634808826842,25,down,down,0.7328203999204561,1.2368115774055353,,experiment,cRDM,2.0,,,,1769.466916800011,220,23,male,True
619,0.0767634808826842,25,up,down,0.717744099907577,1.7387281929495109,,experiment,cRDM,2.0,,,,1772.2000708999112,220,23,male,True
620,0.0767634808826842,25,down,down,0.6394755000947043,1.9047876519247664,,experiment,cRDM,2.0,,,,1775.083377599949,220,23,male,True
621,0.0767634808826842,25,up,down,0.6111864000558853,1.7375089267024657,,experiment,cRDM,2.0,,,,1777.7166510999668,220,23,male,True
622,0.0767634808826842,25,up,down,0.9481994999805464,1.0249599985550586,,experiment,cRDM,2.0,,,,1779.6165700999554,220,23,male,True
623,0.0767634808826842,25,up,down,0.7633355000289157,0.8325486825761139,,experiment,cRDM,2.0,,,,1781.6664784000022,220,23,male,True
624,0.0767634808826842,25,down,down,1.174155000015162,1.9108573499017008,,experiment,cRDM,2.0,,,,1784.5996674000053,220,23,male,True
625,0.0767634808826842,25,down,down,0.7293497000355273,0.957009835086424,,experiment,cRDM,2.0,,,,1786.999432199984,220,23,male,True
626,0.0767634808826842,25,up,down,0.8586194000672549,0.8204624156294289,,experiment,cRDM,2.0,,,,1788.8162247999571,220,23,male,True
627,0.0767634808826842,25,down,down,0.9056853000074624,1.8213108513799512,,experiment,cRDM,2.0,,,,1791.7661404999672,220,23,male,True
628,0.0767634808826842,25,down,down,0.817707100068219,0.6908260676308735,,experiment,cRDM,2.0,,,,1793.6160675999708,220,23,male,True
629,0.0767634808826842,25,up,down,0.7191259999526665,0.7343935375966506,,experiment,cRDM,2.0,,,,1795.432657099911,220,23,male,True
630,0.0767634808826842,25,up,down,0.7158622000133619,1.438615064842313,,experiment,cRDM,2.0,,,,1797.8658831999635,220,23,male,True
631,0.0767634808826842,25,down,down,1.219999699969776,1.5147091492227245,,experiment,cRDM,2.0,,,,1800.3657775999743,220,23,male,True
632,0.0767634808826842,25,up,down,0.7071199000347406,1.765737941814638,,experiment,cRDM,2.0,,,,1803.6156594000056,220,23,male,True
633,0.0767634808826842,25,down,down,0.84656190010719,1.9389147898616237,,experiment,cRDM,2.0,,,,1806.5322199999357,220,23,male,True
634,0.0767634808826842,25,down,down,0.7303004999412224,1.6326407568073151,,experiment,cRDM,2.0,,,,1809.265428899904,220,23,male,True
635,0.0767634808826842,25,down,down,0.8278054000111297,1.6733555686851804,,experiment,cRDM,2.0,,,,1811.932041299995,220,23,male,True
636,0.0767634808826842,25,up,down,0.8305022000567988,0.9362265711588476,,experiment,cRDM,2.0,,,,1813.9652590999613,220,23,male,True
637,0.0767634808826842,25,up,up,0.6796040999470279,0.794673274610112,,experiment,cRDM,2.0,,,,1815.8652035999112,220,23,male,True
638,0.0767634808826842,25,down,up,1.209600199945271,0.6099361465702351,,experiment,cRDM,2.0,,,,1817.4151499000145,220,23,male,True
639,0.0767634808826842,25,down,down,1.0287985000759363,1.7720208589808792,,experiment,cRDM,2.0,,,,1820.6650490999452,220,23,male,True
640,0.0767634808826842,25,up,up,0.7901844000443816,0.6693464954529658,,experiment,cRDM,2.0,,,,1822.6316259999292,220,23,male,True
641,0.0767634808826842,25,up,down,0.6333523000357673,0.5932422895510014,,experiment,cRDM,2.0,,,,1824.28141950001,220,23,male,True
642,0.0767634808826842,25,up,up,0.6525515000103042,0.5288329337279428,,experiment,cRDM,2.0,,,,1825.698221199913,220,23,male,True
643,0.0767634808826842,25,up,down,0.750651599955745,1.9913082894124448,,experiment,cRDM,2.0,,,,1828.598121499992,220,23,male,True
644,0.0767634808826842,25,up,up,0.4767264999682084,0.8887838689693048,,experiment,cRDM,2.0,,,,1830.4980440000072,220,23,male,True
645,0.0767634808826842,25,down,down,0.7055458999238908,1.094158762817363,,experiment,cRDM,2.0,,,,1832.331277399906,220,23,male,True
646,0.0767634808826842,25,down,down,0.8199188000289723,0.3556207107720273,,experiment,cRDM,2.0,,,,1833.6478472999297,220,23,male,True
647,0.0767634808826842,25,up,up,0.5646084999898449,1.4511860239107617,,experiment,cRDM,2.0,,,,1836.181157899904,220,23,male,True
648,0.0767634808826842,25,down,down,0.6156977000646293,0.7106941177004049,,experiment,cRDM,2.0,,,,1837.7310670999575,220,23,male,True
649,0.0767634808826842,25,down,down,1.005376799963415,0.5001362494991132,,experiment,cRDM,2.0,,,,1839.1143927999076,220,23,male,True
650,0.0767634808826842,25,down,down,0.7878905000397936,1.7505983054221936,,experiment,cRDM,2.0,,,,1842.1309237999376,220,23,male,True
651,0.0767634808826842,25,up,down,1.2016363999573514,1.826250845259746,,experiment,cRDM,2.0,,,,1845.0141720999964,220,23,male,True
652,0.0767634808826842,25,down,down,0.6754032999742776,1.3323889604207646,,experiment,cRDM,2.0,,,,1847.797366899904,220,23,male,True
653,0.0767634808826842,25,down,down,0.6631756001152098,1.759994130764927,,experiment,cRDM,2.0,,,,1850.480604399927,220,23,male,True
654,0.0767634808826842,25,down,down,0.6309015000006184,1.1581863496249027,,experiment,cRDM,2.0,,,,1852.563871399965,220,23,male,True
655,0.0767634808826842,25,up,down,0.5789573000511155,1.355751532501238,,experiment,cRDM,2.0,,,,1854.8138097999615,220,23,male,True
656,0.0767634808826842,25,up,down,0.4624535999028012,1.0338872371633103,,experiment,cRDM,2.0,,,,1856.680365899927,220,23,male,True
657,0.0767634808826842,25,down,down,1.371145199984312,1.8629651626372048,,experiment,cRDM,2.0,,,,1859.263627999928,220,23,male,True
658,0.0767634808826842,25,up,up,0.7792117999633774,0.3628094426525088,,experiment,cRDM,2.0,,,,1861.263552499935,220,23,male,True
659,0.0767634808826842,25,down,down,0.7816962000215426,1.5804401459206687,,experiment,cRDM,2.0,,,,1863.880053699948,220,23,male,True
660,0.0767634808826842,25,up,up,0.7210574999917299,0.3348489719055894,,experiment,cRDM,2.0,,,,1865.2467124999969,220,23,male,True
661,0.0767634808826842,25,up,up,0.9351366000482813,1.9629256732313325,,experiment,cRDM,2.0,,,,1868.196651799953,220,23,male,True
662,100.0,25,M,down,1.0083390000509098,1.1345059468686605,,experiment,emotion,3.0,,,,1873.246435599984,220,23,male,True
663,93.0,25,M,down,2.008391599985771,1.1547142443733556,,experiment,emotion,3.0,,,,1875.6963549999052,220,23,male,True
664,97.0,25,F,up,0.7466115999268368,1.8419262678433543,,experiment,emotion,3.0,,,,1879.846201899927,220,23,male,True
665,100.0,25,F,up,1.278327799984254,1.5598275378552058,,experiment,emotion,3.0,,,,1882.4294392999727,220,23,male,True
666,97.0,25,M,down,1.418764999951236,1.568204379649249,,experiment,emotion,3.0,,,,1885.546003800002,220,23,male,True
667,95.0,25,F,up,1.2207414000295105,0.8096462266451072,,experiment,emotion,3.0,,,,1888.0790864999872,220,23,male,True
668,93.0,25,M,down,1.054597400012426,0.9526021964386132,,experiment,emotion,3.0,,,,1890.529133199947,220,23,male,True
669,95.0,25,M,up,0.7647413000231609,0.5760523273653764,,experiment,emotion,3.0,,,,1892.4290584999835,220,23,male,True
670,100.0,25,F,up,0.6734276000643149,0.656571827618831,,experiment,emotion,3.0,,,,1894.1123347999528,220,23,male,True
671,95.0,25,F,down,0.8645136000122875,0.6126073496226149,,experiment,emotion,3.0,,,,1895.6622823999496,220,23,male,True
672,97.0,25,F,down,1.0842335999477657,0.5902874461562331,,experiment,emotion,3.0,,,,1897.3955661999064,220,23,male,True
673,100.0,25,F,down,0.7456404999829829,1.7700234010392235,,experiment,emotion,3.0,,,,1900.5121361999768,220,23,male,True
674,97.0,25,F,down,0.5680287000723183,0.8075286317491306,,experiment,emotion,3.0,,,,1902.3286995999515,220,23,male,True
675,93.0,25,F,down,0.7095632998971269,0.520950296227017,,experiment,emotion,3.0,,,,1903.6952413999245,220,23,male,True
676,95.0,25,M,up,1.0965452999807894,1.8642219846425907,,experiment,emotion,3.0,,,,1906.5452133999208,220,23,male,True
677,93.0,25,M,up,0.6443368000909686,0.6792108613263392,,experiment,emotion,3.0,,,,1908.578468199936,220,23,male,True
678,100.0,25,M,down,0.7300498000113294,1.7981591137426665,,experiment,emotion,3.0,,,,1911.3117301999591,220,23,male,True
679,93.0,25,M,up,0.7594353000167757,0.5276166728821686,,experiment,emotion,3.0,,,,1912.828323099995,220,23,male,True
680,97.0,25,F,up,0.5775406999746338,0.559493607702899,,experiment,emotion,3.0,,,,1914.428262099973,220,23,male,True
681,97.0,25,M,up,1.0549012999981642,1.2694065703758497,,experiment,emotion,3.0,,,,1916.544848099933,220,23,male,True
682,95.0,25,M,down,0.8383111000293866,1.1006623714517698,,experiment,emotion,3.0,,,,1918.9614199999487,220,23,male,True
683,95.0,25,F,down,0.6501317000947893,0.5387494787401157,,experiment,emotion,3.0,,,,1920.5946284999368,220,23,male,True
684,93.0,25,M,down,0.7522136000916362,1.6825618627779817,,experiment,emotion,3.0,,,,1923.1945570999524,220,23,male,True
685,100.0,25,F,down,0.8083060999633744,1.7120503038199977,,experiment,emotion,3.0,,,,1925.9444990999764,220,23,male,True
686,97.0,25,F,up,0.7349758000345901,0.4913200570915776,,experiment,emotion,3.0,,,,1927.527771099936,220,23,male,True
687,93.0,25,M,down,1.129350599949248,0.8131339488381579,,experiment,emotion,3.0,,,,1929.3444080000045,220,23,male,True
688,100.0,25,M,down,1.110518200090155,1.084761316766643,,experiment,emotion,3.0,,,,1931.844277999946,220,23,male,True
689,100.0,25,F,up,0.829521199921146,0.3125573985290859,,experiment,emotion,3.0,,,,1933.5442202999257,220,23,male,True
690,95.0,25,M,down,0.7636165999574587,1.0124935113769655,,experiment,emotion,3.0,,,,1935.69415529992,220,23,male,True
691,93.0,25,F,down,0.7254701999481767,0.4577601797164011,,experiment,emotion,3.0,,,,1937.1772931999292,220,23,male,True
692,95.0,25,F,down,0.7480715999845415,0.6237612749905987,,experiment,emotion,3.0,,,,1938.810680900002,220,23,male,True
693,97.0,25,F,down,0.685153300059028,1.962666101376168,,experiment,emotion,3.0,,,,1941.810596199939,220,23,male,True
694,93.0,25,M,down,1.013600999955088,0.9592286031241372,,experiment,emotion,3.0,,,,1943.727174700005,220,23,male,True
695,100.0,25,M,down,0.5377742999698967,1.4682568199614623,,experiment,emotion,3.0,,,,1946.4769619000144,220,23,male,True
696,97.0,25,M,down,0.6711124000139534,1.9463015706223672,,experiment,emotion,3.0,,,,1949.2436468999367,220,23,male,True
697,100.0,25,F,down,0.9295072000240908,1.2046460439960034,,experiment,emotion,3.0,,,,1951.410249299952,220,23,male,True
698,93.0,25,F,down,0.7672719999682158,0.8350848055263536,,experiment,emotion,3.0,,,,1953.4434834999263,220,23,male,True
699,97.0,25,M,down,0.831787999952212,1.3748785568719706,,experiment,emotion,3.0,,,,1955.8600542999336,220,23,male,True
700,95.0,25,F,up,0.8701434000395238,1.450671415000217,,experiment,emotion,3.0,,,,1958.4266453000016,220,23,male,True
701,95.0,25,M,up,1.614878399996087,1.3258105596248695,,experiment,emotion,3.0,,,,1960.909889200004,220,23,male,True
702,97.0,25,M,down,0.6893194000003859,1.6303161215014623,,experiment,emotion,3.0,,,,1964.4264328000136,220,23,male,True
703,100.0,25,M,up,0.7951789000071585,1.86500408992476,,experiment,emotion,3.0,,,,1967.2596652999052,220,23,male,True
704,95.0,25,F,up,0.990832700044848,0.4159410071753415,,experiment,emotion,3.0,,,,1968.7429298999489,220,23,male,True
705,93.0,25,F,up,0.7856498999753967,1.3419886097442049,,experiment,emotion,3.0,,,,1971.3761467000004,220,23,male,True
706,93.0,25,M,down,0.8777404999127612,1.6429324661306393,,experiment,emotion,3.0,,,,1974.076049999916,220,23,male,True
707,95.0,25,F,down,0.8457177999662235,1.0975374979233934,,experiment,emotion,3.0,,,,1976.3259842999976,220,23,male,True
708,100.0,25,F,down,0.9331658000592142,0.3875665220227798,,experiment,emotion,3.0,,,,1977.8425871999932,220,23,male,True
709,97.0,25,M,up,0.8372833000030369,1.7855026973903678,,experiment,emotion,3.0,,,,1980.8424548999171,220,23,male,True
710,93.0,25,M,down,0.8676478000124916,0.5506213711125731,,experiment,emotion,3.0,,,,1982.5090990000167,220,23,male,True
711,100.0,25,F,up,1.2707953999051824,1.8164711931952149,,experiment,emotion,3.0,,,,1985.4589856999228,220,23,male,True
712,97.0,25,M,down,0.9745542999589816,1.946170601596445,,experiment,emotion,3.0,,,,1988.942199799931,220,23,male,True
713,97.0,25,F,down,2.120049300021492,1.328697972991531,,experiment,emotion,3.0,,,,1991.508764399914,220,23,male,True
714,93.0,25,F,down,0.745629100012593,1.8822964509784543,,experiment,emotion,3.0,,,,1995.7751452999653,220,23,male,True
715,95.0,25,F,down,0.8002518001012504,1.4566902311504093,,experiment,emotion,3.0,,,,1998.2584938999496,220,23,male,True
716,100.0,25,M,down,0.5446853999746963,1.7896853587078247,,experiment,emotion,3.0,,,,2001.1250668999276,220,23,male,True
717,95.0,25,M,down,1.112481400021352,1.7243286219115928,,experiment,emotion,3.0,,,,2003.658294199966,220,23,male,True
718,95.0,25,F,down,1.129185099969618,0.5527470732788915,,experiment,emotion,3.0,,,,2005.5915625999917,220,23,male,True
719,95.0,25,F,down,1.8699970999732611,1.9370855563494704,,experiment,emotion,3.0,,,,2008.9247859999305,220,23,male,True
720,100.0,25,M,down,1.946129799936898,0.8236564476069486,,experiment,emotion,3.0,,,,2011.8746232999256,220,23,male,True
721,97.0,25,M,down,1.069835599977523,0.4994493312092773,,experiment,emotion,3.0,,,,2014.6079037999732,220,23,male,True
722,93.0,25,M,down,0.7792895999737084,1.7683990065081991,,experiment,emotion,3.0,,,,2017.7244562999117,220,23,male,True
723,93.0,25,M,down,1.0544192000525072,0.7333128676436916,,experiment,emotion,3.0,,,,2019.5244078999383,220,23,male,True
724,97.0,25,M,down,1.2434353000717238,0.573654727895092,,experiment,emotion,3.0,,,,2021.424314299948,220,23,male,True
725,100.0,25,F,down,0.8731473999796435,0.491846330701543,,experiment,emotion,3.0,,,,2023.407591699972,220,23,male,True
726,100.0,25,F,down,0.7802726000081748,1.8049550834215689,,experiment,emotion,3.0,,,,2026.357468199916,220,23,male,True
727,93.0,25,M,down,0.9576464999699964,0.3205000259864813,,experiment,emotion,3.0,,,,2027.724118300015,220,23,male,True
728,100.0,25,F,down,0.9978036000393332,1.87350688660678,,experiment,emotion,3.0,,,,2030.8239621999676,220,23,male,True
729,95.0,25,F,down,0.7272447999566793,0.7720946636349711,,experiment,emotion,3.0,,,,2032.890488200006,220,23,male,True
730,97.0,25,F,down,1.1763101000105962,1.093401320117907,,experiment,emotion,3.0,,,,2034.9904344999231,220,23,male,True
731,95.0,25,M,down,0.9087053999537602,0.9140002678892234,,experiment,emotion,3.0,,,,2037.3570729999335,220,23,male,True
732,93.0,25,F,down,0.8366216999711469,1.1463709761891503,,experiment,emotion,3.0,,,,2039.6901365999363,220,23,male,True
733,97.0,25,F,down,0.7946238000877202,1.29944913186334,,experiment,emotion,3.0,,,,2042.0901213999605,220,23,male,True
734,95.0,25,F,down,0.6693014000775293,1.1219446533842308,,experiment,emotion,3.0,,,,2044.2734634999647,220,23,male,True
735,97.0,25,M,down,0.6869926999788731,0.5292103388586628,,experiment,emotion,3.0,,,,2045.756754299975,220,23,male,True
736,93.0,25,M,down,0.4167607999406755,1.2534459100014057,,experiment,emotion,3.0,,,,2047.9566602999112,220,23,male,True
737,100.0,25,F,down,1.127830300014466,1.5226464024825743,,experiment,emotion,3.0,,,,2050.189945899998,220,23,male,True
738,97.0,25,M,down,0.5822596000507474,1.5947101282750642,,experiment,emotion,3.0,,,,2053.20648319996,220,23,male,True
739,100.0,25,F,down,0.8559936999808997,1.426274259892744,,experiment,emotion,3.0,,,,2055.489746499923,220,23,male,True
740,93.0,25,M,down,0.8421117999823764,1.1676687406367614,,experiment,emotion,3.0,,,,2057.7896540999645,220,23,male,True
741,95.0,25,M,up,1.0778001000871882,0.9030537882594318,,experiment,emotion,3.0,,,,2059.822919899947,220,23,male,True
742,0.0767634808826842,25,up,,,1.2843221556516766,,experiment,cRDM,3.0,,,,2079.30551179999,220,23,male,True
743,0.0767634808826842,25,up,up,0.6461752000031993,0.9034612166891204,,experiment,cRDM,3.0,,,,2082.8885675999336,220,23,male,True
744,0.0767634808826842,25,down,down,0.7111481999745592,0.7859226110447388,,experiment,cRDM,3.0,,,,2084.588607599959,220,23,male,True
745,0.0767634808826842,25,down,up,0.9218413000926376,0.4048258131380609,,experiment,cRDM,3.0,,,,2085.9719370999373,220,23,male,True
746,0.0767634808826842,25,up,up,0.6712545000482351,1.934372501859546,,experiment,cRDM,3.0,,,,2089.0885003999574,220,23,male,True
