,stimLvl,stimTime,rand,response,rt,precedingITI,trialNumber,trialType,stimuli,block,estIntens,estThres,estSlope,trialStart,subject,age,gender,headRest
0,150.0,100,F,up,2.9030693999957293,1.4183337544551846,,introTrial,emotion,,,,,213.0271052999888,525,26,male,True
1,0.9,100,down,down,3.4285205001942813,0.8975838477265303,,introTrial,cRDM,,,,,217.0936382999644,525,26,male,True
2,200.0,25,F,up,1.236928900005296,0.9979906357979836,,tutorial,emotion,,,,,254.6422322001308,525,26,male,True
3,200.0,25,M,up,0.8713261000812054,1.0462121485471405,,tutorial,emotion,,,,,257.2088327000384,525,26,male,True
4,200.0,25,M,up,0.7780430000275373,1.2168061203308598,,tutorial,emotion,,,,,259.5920631999616,525,26,male,True
5,0.0,25,F,down,0.7364544998854399,0.8499284996736263,,tutorial,emotion,,,,,261.50866360007785,525,26,male,True
6,0.0,25,F,down,0.5327463001012802,1.539630538149322,,tutorial,emotion,,,,,264.0584383001551,525,26,male,True
7,200.0,25,M,up,0.6163510999176651,0.8401945738040517,,tutorial,emotion,,,,,265.7418144000694,525,26,male,True
8,0.0,25,F,down,0.8287485998589545,1.9727057071561,,tutorial,emotion,,,,,268.608387199929,525,26,male,True
9,200.0,25,F,up,0.9171881000511348,1.723656261934143,,tutorial,emotion,,,,,271.42495370004326,525,26,male,True
10,0.0,25,M,down,0.698094499995932,0.915187362681025,,tutorial,emotion,,,,,273.55807520006783,525,26,male,True
11,0.0,25,M,down,0.7643669000826776,1.222688127633098,,tutorial,emotion,,,,,275.7747947999742,525,26,male,True
12,0.9,25,up,up,1.617128900019452,1.722418259037755,,tutorial,cRDM,,,,,288.9909809001256,525,26,male,True
13,0.9,25,up,up,0.9803291999269276,0.9969293651731436,,tutorial,cRDM,,,,,291.8908661000896,525,26,male,True
14,0.9,25,down,down,0.766374799888581,1.6082594628501867,,tutorial,cRDM,,,,,294.7407371001318,525,26,male,True
15,0.9,25,down,down,0.7544964998960495,1.294932330855459,,tutorial,cRDM,,,,,297.0906653001439,525,26,male,True
16,0.9,25,up,up,0.6949264002032578,1.781229678272744,,tutorial,cRDM,,,,,299.9072255000938,525,26,male,True
17,0.9,25,down,down,0.7087075999006629,1.9227923004660528,,tutorial,cRDM,,,,,302.790451799985,525,26,male,True
18,0.9,25,up,up,0.5457838999573141,1.215329833015616,,tutorial,cRDM,,,,,304.9903762000613,525,26,male,True
19,0.9,25,up,up,0.8124695001170039,0.5216397744782011,,tutorial,cRDM,,,,,306.32366500003263,525,26,male,True
20,0.9,25,down,down,0.7462355999741703,0.8194739253668955,,tutorial,cRDM,,,,,308.2069254000671,525,26,male,True
21,0.9,25,down,down,0.6736341998912394,1.290695670806557,,tutorial,cRDM,,,,,310.5235033000354,525,26,male,True
22,100.0,25,M,up,0.8616863999050111,1.851520633847152,,psi_staircase_training,emotion,,100.0,100.0,25.00050000000001,323.20639310008846,525,26,male,True
23,55.0,25,M,down,0.7784879000391811,0.5537065844614544,,psi_staircase_training,emotion,,54.7428094675419,54.7428094675419,25.00050000000011,324.989636400016,525,26,male,True
24,79.0,25,F,down,0.750232300022617,1.5759022793781958,,psi_staircase_training,emotion,,79.636070985635,79.636070985635,25.713269254886413,327.7228827001527,525,26,male,True
25,103.0,25,F,down,1.173331000143662,0.6995886449623615,,psi_staircase_training,emotion,,97.61123893914808,97.61123893914808,26.1463337262867,329.5227970001288,525,26,male,True
26,127.0,25,M,up,0.7443750998936594,1.4649979896626766,,psi_staircase_training,emotion,,117.15641007867752,117.15641007867752,31.432291447829705,332.5227004000917,525,26,male,True
27,116.0,25,F,up,0.6221668999642134,1.5251697516888938,,psi_staircase_training,emotion,,105.03864224082596,105.03864224082596,29.694064005485792,335.1559189001564,525,26,male,True
28,88.0,25,M,down,0.9762692998629064,1.867599727490302,,psi_staircase_training,emotion,,98.16151255584974,98.16151255584974,27.875884705401127,338.00584240001626,525,26,male,True
29,116.0,25,F,up,0.9270907000172884,1.6230594485307936,,psi_staircase_training,emotion,,103.47850698803556,103.47850698803556,26.16750556784877,340.9390362999402,525,26,male,True
30,88.0,25,F,up,0.7004832001402974,0.4052181960140778,,psi_staircase_training,emotion,,99.56005942312154,99.56005942312154,24.06105184598684,342.60566970007494,525,26,male,True
31,74.0,25,M,down,0.7026658998802304,1.4727917249247169,,psi_staircase_training,emotion,,91.91983893808435,91.91983893808435,29.04129467771474,345.15548580000177,525,26,male,True
32,76.0,25,F,down,0.8129495000466704,1.336619111595407,,psi_staircase_training,emotion,,94.9110307322922,94.9110307322922,27.33117995363608,347.5721688999329,525,26,male,True
33,114.0,25,F,down,0.6414345998782665,1.9855210994233043,,psi_staircase_training,emotion,,97.12131177218676,97.12131177218676,25.805267019113057,350.73866900010034,525,26,male,True
34,126.0,25,F,down,0.7981709998566657,0.4019187365938089,,psi_staircase_training,emotion,,103.7678694544779,103.7678694544779,31.01857602728765,352.15507990005426,525,26,male,True
35,134.0,25,M,up,0.6772915998008102,1.4072097103919494,,psi_staircase_training,emotion,,110.8854198521288,110.8854198521288,35.42714261836444,354.721875899937,525,26,male,True
36,133.0,25,M,up,0.7539905000012368,0.3584045099443622,,psi_staircase_training,emotion,,108.41279349600248,108.41279349600248,34.38000052536924,356.1051523000933,525,26,male,True
37,132.0,25,F,up,0.8103338000364602,0.5124466381606689,,psi_staircase_training,emotion,,106.39510687545098,106.39510687545098,33.391600981378744,357.7217666001525,525,26,male,True
38,80.0,25,F,down,0.722766000078991,1.482102210026848,,psi_staircase_training,emotion,,104.7166723022871,104.7166723022871,32.4581194909821,360.3883577999659,525,26,male,True
39,132.0,25,M,down,1.443215100094676,1.2005602877837105,,psi_staircase_training,emotion,,106.28431082542488,106.28431082542488,31.499410771195148,362.65490760002285,525,26,male,True
40,139.0,25,M,up,1.586286700097844,0.4610184726763093,,psi_staircase_training,emotion,,111.37909599760113,111.37909599760113,35.134140560875714,364.9048353999388,525,26,male,True
41,138.0,25,M,up,0.864379599923268,0.3012220698056161,,psi_staircase_training,emotion,,109.90974709042408,109.90974709042408,34.33060564181417,367.1547352999914,525,26,male,True
42,82.0,25,M,down,0.7571211000904441,1.867439007465605,,psi_staircase_training,emotion,,108.6298275314316,108.6298275314316,33.55916006071647,370.23799990001135,525,26,male,True
43,138.0,25,F,up,0.8998683001846075,0.3786473101186976,,psi_staircase_training,emotion,,109.90371269995724,109.90371269995724,32.736127561484714,371.7212366000749,525,26,male,True
44,82.0,25,F,down,0.7932849999051541,0.8830464206729451,,psi_staircase_training,emotion,,108.821301103301,108.821301103301,31.933249218448005,373.8378413999453,525,26,male,True
45,83.0,25,F,down,0.6714278999716043,1.3418569834968157,,psi_staircase_training,emotion,,109.9058783286387,109.9058783286387,31.085463614490656,376.3377193000633,525,26,male,True
46,139.0,25,M,up,1.1153154000639915,1.7294011280738024,,psi_staircase_training,emotion,,110.86298272259044,110.86298272259044,30.27427754298416,379.0708469001111,525,26,male,True
47,83.0,25,M,down,0.7936067001428455,1.7644945259931548,,psi_staircase_training,emotion,,109.98053996833102,109.98053996833102,29.42687998583885,382.2875332001131,525,26,male,True
48,138.0,25,F,up,0.924477299908176,1.945075730046249,,psi_staircase_training,emotion,,110.7966893552846,110.7966893552846,28.623158342245517,385.370639000088,525,26,male,True
49,84.0,25,F,down,0.742554800119251,0.9267439879452968,,psi_staircase_training,emotion,,110.02206209406653,110.02206209406653,27.79779988153749,387.57056130003184,525,26,male,True
50,137.0,25,M,up,1.0138874999247491,1.7578614277915587,,psi_staircase_training,emotion,,110.74982621874396,110.74982621874396,27.015804306118017,390.437256900128,525,26,male,True
51,85.0,25,M,down,0.848320399876684,0.6119388193706227,,psi_staircase_training,emotion,,110.0666799469238,110.0666799469238,26.231153880721717,392.4538275001105,525,26,male,True
52,0.29,25,up,up,1.0985692997928709,0.8427878487886777,,psi_staircase_training,cRDM,,0.25,0.2569312402994632,0.105,400.5035403000657,525,26,male,True
53,0.25,25,up,up,0.8083924001548439,1.813971291423768,,psi_staircase_training,cRDM,,0.2191026665318312,0.2260132002683492,0.1046863203387393,403.68676070007496,525,26,male,True
54,0.21,25,down,down,0.7437811000272632,0.6507214550331495,,psi_staircase_training,cRDM,,0.1900540959403307,0.1968497961554001,0.1029467298424999,405.4033644001465,525,26,male,True
55,0.18,25,down,down,1.0178779000416398,1.6423508299859657,,psi_staircase_training,cRDM,,0.1635257589279754,0.1701521334256793,0.1003816477568649,408.0532303999644,525,26,male,True
56,0.15,25,up,up,0.6236397000029683,1.978781807537152,,psi_staircase_training,cRDM,,0.1401895574244936,0.1466013351187503,0.0971307628663642,411.3364735001233,525,26,male,True
57,0.13,25,down,down,0.8541043000295758,1.9148780324601569,,psi_staircase_training,cRDM,,0.1198760602145479,0.1260554767618333,0.0936107694196103,414.15300539997406,525,26,male,True
58,0.11,25,up,up,0.9078367999754846,0.4162772274085744,,psi_staircase_training,cRDM,,0.1025773523696548,0.1084910344569865,0.0895852101993795,415.686297000153,525,26,male,True
59,0.09,25,down,up,1.2308746001217514,0.6610988689216234,,psi_staircase_training,cRDM,,0.087844325958594,0.0934818215320969,0.0854013148647635,417.5362339999992,525,26,male,True
60,0.15,25,down,down,0.7273371999617666,1.0900326233012965,,psi_staircase_training,cRDM,,0.131559124731803,0.1381188895520143,0.0993725908154588,420.1527754999697,525,26,male,True
61,0.14,25,up,up,1.3633471000939608,0.8576449268533657,,psi_staircase_training,cRDM,,0.1176635618172359,0.1239020005991555,0.0945048856771392,422.0027693000157,525,26,male,True
62,0.13,25,down,down,0.7830765000544488,0.4718406647617531,,psi_staircase_training,cRDM,,0.106749225970393,0.1126411889911647,0.0892561923194218,424.1359900000971,525,26,male,True
63,0.12,25,down,down,0.9962367999833076,1.430043085486599,,psi_staircase_training,cRDM,,0.0981142898579903,0.1036778774167202,0.0842816968431869,426.63587340014055,525,26,male,True
64,0.12,25,down,down,1.1579183000139892,1.0039625231147469,,psi_staircase_training,cRDM,,0.0909622150781176,0.0962626731048912,0.0802955991663315,428.9191644999664,525,26,male,True
65,0.09,25,up,up,0.6973534999415278,1.1237497765388755,,psi_staircase_training,cRDM,,0.0855532803686904,0.0905509687048282,0.0757090004995355,431.4857258999255,525,26,male,True
66,0.08,25,up,up,0.7198528000153601,1.177878217400078,,psi_staircase_training,cRDM,,0.077957509340601,0.083244647362855,0.0800938170300725,433.6522773001343,525,26,male,True
67,0.07,25,down,up,0.7839302001520991,1.1602971489740783,,psi_staircase_training,cRDM,,0.0701055182260807,0.0757337366813419,0.0852607776198713,435.8022119000088,525,26,male,True
68,0.11,25,down,down,0.4879237001296133,0.4910577749234278,,psi_staircase_training,cRDM,,0.0889011165269922,0.0938384379325046,0.0747945137061462,437.3521424001083,525,26,male,True
69,0.11,25,up,up,0.690366999944672,1.500853984906032,,psi_staircase_training,cRDM,,0.0846316310261435,0.0893396762638711,0.0713212540040899,439.6187432000879,525,26,male,True
70,0.1,25,up,up,1.1277768998406827,0.7426380520974678,,psi_staircase_training,cRDM,,0.0814265612373902,0.0858717700420209,0.0673395964243759,441.3353476000484,525,26,male,True
71,0.1,25,up,up,0.6368890001904219,0.4910877637305586,,psi_staircase_training,cRDM,,0.0778751175169071,0.0822272255276979,0.0659292307566396,443.2352758001071,525,26,male,True
72,0.08,25,up,up,0.7691966001875699,0.4581659843461786,,psi_staircase_training,cRDM,,0.0750482204977092,0.0792582324025443,0.0637766447142103,444.6019079000689,525,26,male,True
73,0.07,25,down,down,0.7256006000097841,1.3723599476034447,,psi_staircase_training,cRDM,,0.0698869483630642,0.0744885675495219,0.0697090266247834,447.01851800014265,525,26,male,True
74,0.07,25,down,down,0.7397133000195026,1.5037798565661251,,psi_staircase_training,cRDM,,0.0640341230534066,0.0691879243692262,0.0780739254131699,449.51840179995634,525,26,male,True
75,0.07,25,down,down,0.4788418000098318,1.7403880245243404,,psi_staircase_training,cRDM,,0.0582791748310197,0.0638863418022661,0.0849418728169698,452.2682378001045,525,26,male,True
76,0.06,25,up,up,0.7734817999880761,0.4825911726431856,,psi_staircase_training,cRDM,,0.052931953582958,0.0588661090565394,0.0898953575126076,453.5015744001139,525,26,male,True
77,0.06,25,up,up,1.6789818999823185,1.4708302912742588,,psi_staircase_training,cRDM,,0.0476203283369282,0.0538889280041334,0.0949617870134328,456.0181366000325,525,26,male,True
78,0.06,25,down,down,0.9887531998101622,0.8766336933015122,,psi_staircase_training,cRDM,,0.0429115021323482,0.0493673746609314,0.0977987468640675,458.8513553999365,525,26,male,True
79,0.05,25,down,down,0.7464694001246244,1.4809984447402094,,psi_staircase_training,cRDM,,0.0388658813452172,0.045373041331595,0.0985756905041332,461.5846357000992,525,26,male,True
80,0.05,25,up,down,0.4505883001256734,1.259874730345907,,psi_staircase_training,cRDM,,0.035106039230625,0.0416308687281702,0.0988433624636117,463.8845476999413,525,26,male,True
81,0.07,25,up,up,0.6366739999502897,1.5790920147130705,,psi_staircase_training,cRDM,,0.0461341081265533,0.0529937006037033,0.1039146211907447,466.184459600132,525,26,male,True
82,100.0,25,M,down,0.6152898999862373,1.3625020057760475,,psi_staircase,emotion,,100.0,100.0,25.00050000000001,481.5508380001411,525,26,male,True
83,145.0,25,M,up,0.623670999892056,0.8909152342129372,,psi_staircase,emotion,,145.25719053245996,145.25719053245996,25.00050000000028,483.4004538001027,525,26,male,True
84,121.0,25,F,up,0.5863646999932826,1.215598150618777,,psi_staircase,emotion,,120.36392901436103,120.36392901436103,25.71326925488699,485.583732600091,525,26,male,True
85,97.0,25,F,up,0.6618530999403447,1.9288763122215968,,psi_staircase,emotion,,102.3887610608496,102.3887610608496,26.14633372628729,488.4502532000188,525,26,male,True
86,73.0,25,M,down,0.6229115000460297,1.9198838649741912,,psi_staircase,emotion,,82.84358992132628,82.84358992132628,31.43229144782805,491.4001905999612,525,26,male,True
87,84.0,25,F,down,0.5606576001737267,1.6163661295085847,,psi_staircase,emotion,,94.9613577591715,94.9613577591715,29.694064005486624,493.9833921000827,525,26,male,True
88,112.0,25,M,down,0.5752888000570238,1.1537034051704136,,psi_staircase,emotion,,101.8384874441451,101.8384874441451,27.87588470540148,496.04986499994993,525,26,male,True
89,126.0,25,F,up,0.9935242000501604,1.987869670013359,,psi_staircase,emotion,,111.81267858747788,111.81267858747788,31.08064639559283,498.9665749000851,525,26,male,True
90,124.0,25,F,up,0.818961099954322,1.163289485473485,,psi_staircase,emotion,,107.11747814864692,107.11747814864692,29.457244424775585,501.4831257001497,525,26,male,True
91,88.0,25,M,down,0.9727375998627394,1.1550664544173013,,psi_staircase,emotion,,103.82560427072252,103.82560427072252,28.02319218293429,503.8163722001482,525,26,male,True
92,111.0,25,F,down,0.7078474999871105,1.97114904821829,,psi_staircase,emotion,,106.966534762061,106.966534762061,26.248053615270607,507.11625179997645,525,26,male,True
93,129.0,25,F,up,0.6576357001904398,1.3070222256880493,,psi_staircase,emotion,,111.92443512098296,111.92443512098296,26.63837513339152,509.6995000999887,525,26,male,True
94,110.0,25,F,up,1.0443835000041872,1.1147517947756385,,psi_staircase,emotion,,109.82595406083686,109.82595406083686,24.80289652000145,511.83274550014175,525,26,male,True
95,87.0,25,M,down,0.8258249999489635,0.950386020880936,,psi_staircase,emotion,,106.01547657100954,106.01547657100954,26.029654042511297,514.1993257000577,525,26,male,True
96,88.0,25,M,down,1.2240096000023186,0.9039306256156392,,psi_staircase,emotion,,107.7226191856999,107.7226191856999,24.41114607657099,516.2490801999811,525,26,male,True
97,128.0,25,F,up,0.6886404000688344,1.892588393894015,,psi_staircase,emotion,,109.01353853983235,109.01353853983235,22.960520823389768,519.7324369000271,525,26,male,True
98,90.0,25,F,down,0.5567217001225799,0.4513390558523563,,psi_staircase,emotion,,107.80431076358056,107.80431076358056,21.45397771731674,521.2323996999767,525,26,male,True
99,126.0,25,M,up,0.8978033000603318,1.0892853029007974,,psi_staircase,emotion,,108.84142763154824,108.84142763154824,20.09452908032396,523.2323022999335,525,26,male,True
100,93.0,25,M,down,1.1985650998540225,0.8408847024770569,,psi_staircase,emotion,,107.88904043986987,107.88904043986987,18.73961281434737,525.3155759000219,525,26,male,True
101,124.0,25,M,down,0.1334351999685168,1.9636410687221173,,psi_staircase,emotion,,108.79969996951698,108.79969996951698,17.5222596383064,528.8154303999618,525,26,male,True
102,133.0,25,M,up,0.7215130999684334,0.8793437008371168,,psi_staircase,emotion,,112.23709646840038,112.23709646840038,22.720310867836584,530.4486182001419,525,26,male,True
103,132.0,25,F,up,0.733485700096935,1.3671953281213618,,psi_staircase,emotion,,111.37794135718916,111.37794135718916,21.472508894135924,532.898638300132,525,26,male,True
104,92.0,25,F,down,0.562507800059393,0.8073399263879348,,psi_staircase,emotion,,110.6928748999757,110.6928748999757,20.372352319395528,534.798572300002,525,26,male,True
105,131.0,25,F,up,0.7792668000329286,0.5564716010363047,,psi_staircase,emotion,,111.40271465487052,111.40271465487052,19.31809513960356,536.2818327001296,525,26,male,True
106,95.0,25,M,down,1.0563467000611126,1.1091257851368923,,psi_staircase,emotion,,110.848866016328,110.848866016328,18.371493045456884,538.5317375999875,525,26,male,True
107,96.0,25,M,down,0.7854321000631899,0.3544771625295342,,psi_staircase,emotion,,111.52340620930735,111.52340620930735,17.44379906460429,540.2816870999523,525,26,male,True
108,128.0,25,F,up,0.7359970000106841,1.9206468671651944,,psi_staircase,emotion,,112.10697652928962,112.10697652928962,16.62380026297705,543.3480901999865,525,26,male,True
109,99.0,25,F,down,0.6719496001023799,1.7527813586325849,,psi_staircase,emotion,,111.58738225299864,111.58738225299864,15.835251249055831,546.1981433001347,525,26,male,True
110,101.0,25,M,up,0.8853915000800043,1.6507956561154171,,psi_staircase,emotion,,112.19280435983607,112.19280435983607,15.126206193242442,548.8647121000104,525,26,male,True
111,127.0,25,M,down,0.6379267999436706,1.6498519053996472,,psi_staircase,emotion,,110.13714879738022,110.13714879738022,17.304556626726452,551.7482036000583,525,26,male,True
112,135.0,25,F,up,0.7459054000210017,1.383187437970563,,psi_staircase,emotion,,112.47729286364776,112.47729286364776,20.96717956015115,554.131187299965,525,26,male,True
113,134.0,25,M,up,0.7669951000716537,1.9579120415454572,,psi_staircase,emotion,,112.03213493605772,112.03213493605772,20.14707072533617,557.1810604999773,525,26,male,True
114,91.0,25,F,down,0.7957337000407279,0.7935641603201482,,psi_staircase,emotion,,111.64765986971148,111.64765986971148,19.41551176698157,559.1143253000919,525,26,male,True
115,132.0,25,M,down,1.027813300024718,1.193889454128255,,psi_staircase,emotion,,112.03532547991068,112.03532547991068,18.727877121325047,561.464245500043,525,26,male,True
116,139.0,25,F,up,0.8596324999816716,1.3859431005250635,,psi_staircase,emotion,,114.1363111963649,114.1363111963649,22.41835149749253,564.2474889999721,525,26,male,True
117,90.0,25,M,down,0.6207726998254657,1.918127622982976,,psi_staircase,emotion,,113.7564320727833,113.7564320727833,21.680490428768,567.364304699935,525,26,male,True
118,137.0,25,F,down,1.322152999928221,0.8661834547763798,,psi_staircase,emotion,,114.1066485122982,114.1066485122982,21.00664917964617,569.2139711999334,525,26,male,True
119,144.0,25,M,up,0.7286352999508381,1.8479458868102685,,psi_staircase,emotion,,116.24343044125328,116.24343044125328,24.967031471975915,572.7304877000861,525,26,male,True
120,143.0,25,M,up,0.6966526000760496,0.9309119786869424,,psi_staircase,emotion,,115.85070306752698,115.85070306752698,24.22928195656001,574.7304203000385,525,26,male,True
121,90.0,25,F,down,0.843448500148952,1.906698097093584,,psi_staircase,emotion,,115.5008981605186,115.5008981605186,23.547316123075195,577.6636451999657,525,26,male,True
122,142.0,25,F,down,1.0108339001890272,0.8237321065193892,,psi_staircase,emotion,,115.84520945493382,115.84520945493382,22.901177201916493,579.6802644000854,525,26,male,True
123,148.0,25,F,up,1.17560279997997,0.5768429023235515,,psi_staircase,emotion,,117.89927432386078,117.89927432386078,26.885863302267648,581.6134933999274,525,26,male,True
124,147.0,25,M,up,0.9188616999890656,0.6536908280019614,,psi_staircase,emotion,,117.53334294932232,117.53334294932232,26.21033141528777,583.8134352001362,525,26,male,True
125,89.0,25,M,down,0.8041230000089854,1.005263395029627,,psi_staircase,emotion,,117.20112926057284,117.20112926057284,25.575292215811743,586.0800004999619,525,26,male,True
126,146.0,25,F,down,0.9931280000600964,0.6436645498458142,,psi_staircase,emotion,,117.5281166334031,117.5281166334031,24.965490149143644,587.8799787000753,525,26,male,True
127,151.0,25,F,up,0.7405858000274748,0.9768223003284668,,psi_staircase,emotion,,119.49950803502875,119.49950803502875,28.74594893155832,590.1965229001362,525,26,male,True
128,151.0,25,F,up,0.5053187999874353,1.3429245658779927,,psi_staircase,emotion,,119.14281078873256,119.14281078873256,28.120706790755005,592.6297577000223,525,26,male,True
129,88.0,25,M,down,0.7374195999000221,0.7792928622021381,,psi_staircase,emotion,,118.82738168659137,118.82738168659137,27.53509781306541,594.2796935001388,525,26,male,True
130,150.0,25,M,down,0.90688639995642,1.4833768951655988,,psi_staircase,emotion,,119.13980535988112,119.13980535988112,26.965288384816,596.8461983001325,525,26,male,True
131,155.0,25,M,down,0.8286480000242591,1.5465622533795595,,psi_staircase,emotion,,121.04409585958128,121.04409585958128,30.539083194652648,599.6464245000388,525,26,male,True
132,0.29,25,up,up,0.8994829999282956,0.3094334055589627,,psi_staircase,cRDM,,0.25,0.2569312402994632,0.105,606.1126018001232,525,26,male,True
133,0.25,25,up,up,0.7172747999429703,1.3205564037069155,,psi_staircase,cRDM,,0.2191026665318312,0.2260132002683492,0.1046863203387393,608.5958335001487,525,26,male,True
134,0.21,25,down,down,0.5334972001146525,1.0712366925831658,,psi_staircase,cRDM,,0.1900540959403307,0.1968497961554001,0.1029467298424999,610.6456492000725,525,26,male,True
135,0.18,25,down,up,0.6901197000406682,1.9865204239844996,,psi_staircase,cRDM,,0.1635257589279754,0.1701521334256793,0.1003816477568649,613.4289698000066,525,26,male,True
136,0.28,25,up,up,0.5912145001348108,0.4530795174600885,,psi_staircase,cRDM,,0.2462894156509761,0.253676874431043,0.111911164292932,614.8458802001551,525,26,male,True
137,0.26,25,down,down,0.432538699824363,1.700055964475132,,psi_staircase,cRDM,,0.224020924517144,0.2312720210897802,0.1098454399547734,617.3955073000398,525,26,male,True
138,0.23,25,up,up,0.8046349000651389,1.608629269951941,,psi_staircase,cRDM,,0.2047781477371871,0.211824604656558,0.106745393979666,619.6954374001361,525,26,male,True
139,0.23,25,down,down,1.0104177999310195,1.1077685138671354,,psi_staircase,cRDM,,0.1874201716315257,0.1943184465858974,0.1045006144520947,621.8786784000695,525,26,male,True
140,0.21,25,down,down,1.9838709000032395,1.4451209224699009,,psi_staircase,cRDM,,0.1734597158637905,0.1801271287888497,0.1010033308447589,624.5952334001195,525,26,male,True
141,0.17,25,up,up,0.5917072999291122,0.9875001409529508,,psi_staircase,cRDM,,0.1604596670362223,0.167027966793554,0.0995018849040958,627.828462400008,525,26,male,True
142,0.17,25,down,down,0.8095291999634355,0.3673665681498663,,psi_staircase,cRDM,,0.1444495168362478,0.1514653128703286,0.1062809182413607,629.0615526000038,525,26,male,True
143,0.16,25,down,up,1.000194700201973,1.9131180067510372,,psi_staircase,cRDM,,0.129450188150751,0.1367437410700543,0.1104886028242535,632.0449584000744,525,26,male,True
144,0.22,25,down,down,0.5962123000063002,0.4486504728759284,,psi_staircase,cRDM,,0.17396020279296,0.1807572427427678,0.1029670252213135,633.7448911999818,525,26,male,True
145,0.19,25,up,up,0.5862843000795692,0.5824132996082,,psi_staircase,cRDM,,0.1655563016517874,0.1720733007365464,0.0987247410759487,635.1948741001543,525,26,male,True
146,0.16,25,up,up,0.6653316000010818,1.4517400984204245,,psi_staircase,cRDM,,0.1551367065662806,0.1618351803618357,0.1014738658805038,637.4947927000467,525,26,male,True
147,0.16,25,down,down,0.7360503000672907,0.9167392786118552,,psi_staircase,cRDM,,0.1425517484317743,0.1498959077305909,0.1112552289430025,639.328033800004,525,26,male,True
148,0.16,25,down,down,0.7780987999867648,1.81196080335275,,psi_staircase,cRDM,,0.1303570331121087,0.1382026582542642,0.1188518366604777,642.1279635000974,525,26,male,True
149,0.15,25,up,up,0.4632186000235379,1.600904267908637,,psi_staircase,cRDM,,0.119178603136806,0.1273700739589132,0.1240909850417182,644.7778442001436,525,26,male,True
150,0.15,25,up,up,0.663292600074783,0.3399159698241064,,psi_staircase,cRDM,,0.1088436896137425,0.1172896523032031,0.1279462324314502,645.8278030999936,525,26,male,True
151,0.14,25,up,up,0.5827500000596046,1.5020809634301528,,psi_staircase,cRDM,,0.0998604875900319,0.1084287507333265,0.1297989380220442,648.2443548999727,525,26,male,True
152,0.13,25,up,up,0.6374174999073148,0.701759385753508,,psi_staircase,cRDM,,0.091825615698955,0.1004374045497909,0.130458300429693,649.7776506000664,525,26,male,True
153,0.13,25,down,down,0.7235274000559002,1.45282228393989,,psi_staircase,cRDM,,0.084653455369356,0.0932396151997082,0.1300700514245328,652.1275494999718,525,26,male,True
154,0.1,25,down,down,0.4902551001869142,1.697262611685802,,psi_staircase,cRDM,,0.0784903033949071,0.0869761913024608,0.1285510517305448,654.8108012999874,525,26,male,True
155,0.1,25,down,down,0.6603210000321269,0.7007708754595083,,psi_staircase,cRDM,,0.0723178809787378,0.0807219051684369,0.1273109143231896,656.260782300029,525,26,male,True
156,0.08,25,up,up,0.6174006001092494,1.0265820475377248,,psi_staircase,cRDM,,0.0668567650866047,0.0751081107513752,0.1249980172910748,658.2106801001355,525,26,male,True
157,0.08,25,up,up,0.5851640999317169,1.6160773489397091,,psi_staircase,cRDM,,0.0615145264720994,0.0696252768108509,0.1228681662695859,660.6939000999555,525,26,male,True
158,0.08,25,down,up,0.7745805000886321,1.325714503815993,,psi_staircase,cRDM,,0.0567082990215045,0.0646052995022676,0.1196301115897453,662.8604969999287,525,26,male,True
159,0.12,25,down,down,0.5936618999112397,1.67680310921122,,psi_staircase,cRDM,,0.0732151052052913,0.0821801943041914,0.1358103766013427,665.5604417999275,525,26,male,True
160,0.12,25,up,up,0.7571099000051618,0.8619113692445539,,psi_staircase,cRDM,,0.0691195552584245,0.0779542731984478,0.1338354094828133,667.2769995001145,525,26,male,True
161,0.12,25,up,up,0.6641701001208276,1.0138636376673622,,psi_staircase,cRDM,,0.0655538240941799,0.0742269695022045,0.131387778881812,669.3269307999872,525,26,male,True
162,0.12,25,down,down,0.4942256999202072,1.5239542479192232,,psi_staircase,cRDM,,0.0624585626483047,0.0709434451854618,0.1285358215715718,671.7768437000923,525,26,male,True
163,0.06,25,up,up,1.5670518998522311,1.08848226689353,,psi_staircase,cRDM,,0.0597858189909908,0.0680591863767738,0.125331620023978,673.6100844000466,525,26,male,True
164,0.06,25,down,down,0.7014136998914182,0.945543752155271,,psi_staircase,cRDM,,0.0555014204435561,0.0639414663103748,0.1278565996456058,676.3766807999928,525,26,male,True
165,0.06,25,up,up,0.952112999977544,0.6279883717230631,,psi_staircase,cRDM,,0.0515368453675003,0.0600530217405762,0.1290098857548219,677.959990600124,525,26,male,True
166,0.06,25,down,up,1.6325451999437064,0.5527246498837837,,psi_staircase,cRDM,,0.0478958573130397,0.0564083762488231,0.1289544799545428,679.7265318999998,525,26,male,True
167,0.12,25,up,up,0.9486291999928652,0.6954872872020055,,psi_staircase,cRDM,,0.0584615007714504,0.0672089030488042,0.1325126816326475,682.3264379000757,525,26,male,True
168,0.12,25,down,up,0.8026916000526398,1.2260981120273364,,psi_staircase,cRDM,,0.0562694480938,0.0648364421575534,0.1297797129849559,684.7763618000317,525,26,male,True
169,0.15,25,up,up,0.8924785999115556,1.7078908443615348,,psi_staircase,cRDM,,0.0661375530035657,0.0757208558120054,0.1451755748482838,687.5596253001131,525,26,male,True
170,0.15,25,up,up,0.8185159999411553,0.5506555807321047,,psi_staircase,cRDM,,0.063642086388433,0.073121045768208,0.1435948967103981,689.2595576001331,525,26,male,True
171,0.14,25,down,down,0.8770165999885648,0.4027293128392181,,psi_staircase,cRDM,,0.0613739766546506,0.0707427416126364,0.141925583025116,690.743092100136,525,26,male,True
172,0.14,25,down,down,0.705959300044924,0.3940569461394762,,psi_staircase,cRDM,,0.059173136597349,0.0684316461191562,0.140255345044816,692.2760928999633,525,26,male,True
173,0.14,25,down,down,0.6094094000291079,0.6500058728969909,,psi_staircase,cRDM,,0.0571680396947006,0.0663101760126109,0.1384924302011161,693.8926868999843,525,26,male,True
174,0.1,25,up,down,0.618105499772355,0.9726408734188092,,psi_staircase,cRDM,,0.0553428899924222,0.064362986896145,0.136643679048933,695.7259589999449,525,26,male,True
175,0.09,25,up,down,0.6948090000078082,1.728560177612798,,psi_staircase,cRDM,,0.0651947127598595,0.0744219960929721,0.1397823056360987,698.3423697000835,525,26,male,True
176,0.09,25,down,down,0.9253092999570072,1.5823066849522138,,psi_staircase,cRDM,,0.0759200335562464,0.0849065666429786,0.1361352273675973,700.875795400003,525,26,male,True
177,0.09,25,down,down,0.9483626999426632,0.3108265108126892,,psi_staircase,cRDM,,0.0720625058995829,0.0812276919757429,0.1388416064685174,702.3756905000191,525,26,male,True
178,0.15,25,down,up,0.7358434000052512,0.6457374760094212,,psi_staircase,cRDM,,0.0685112073903802,0.0778014209897197,0.1407356238978148,704.2422110999469,525,26,male,True
179,0.2,25,up,up,0.6895117999520153,1.0194870108816347,,psi_staircase,cRDM,,0.0786301286253551,0.0885521814370702,0.1503072322151003,706.275566900149,525,26,male,True
180,0.2,25,up,up,0.5645805997774005,1.7956256866916078,,psi_staircase,cRDM,,0.0768338911520622,0.086658801813772,0.1488356448353712,709.025463799946,525,26,male,True
181,0.19,25,up,down,0.8496914999559522,1.8108480319278848,,psi_staircase,cRDM,,0.0751765680905745,0.0849045042397059,0.1473665969621466,711.6585425001103,525,26,male,True
182,136.0,25,F,up,0.870765500003472,0.9757760651875892,,experiment,emotion,0.0,,,,730.6913312999532,525,26,male,True
183,109.0,25,M,up,0.5769192001316696,1.47898118846623,,experiment,emotion,0.0,,,,733.3411411000416,525,26,male,True
184,127.0,25,F,up,0.6546080999542028,1.5161522542704748,,experiment,emotion,0.0,,,,735.7244752999395,525,26,male,True
185,136.0,25,M,up,0.4806902999989688,1.427604048098682,,experiment,emotion,0.0,,,,738.074392199982,525,26,male,True
186,127.0,25,F,up,0.4167553000152111,0.7425000382020237,,experiment,emotion,0.0,,,,739.5743782001082,525,26,male,True
187,118.0,25,F,up,0.4258095000404864,0.4529407569457809,,experiment,emotion,0.0,,,,740.724281599978,525,26,male,True
188,109.0,25,M,down,0.7988598998636007,1.600985701186254,,experiment,emotion,0.0,,,,743.0242029000074,525,26,male,True
189,118.0,25,F,down,0.7702366998419166,0.3069033342867159,,experiment,emotion,0.0,,,,744.3908327999525,525,26,male,True
190,136.0,25,M,up,0.8552538000512868,0.8634957980716307,,experiment,emotion,0.0,,,,746.2907702999655,525,26,male,True
191,118.0,25,M,up,0.4574344002176076,1.5781246106538156,,experiment,emotion,0.0,,,,748.9906540999655,525,26,male,True
192,127.0,25,F,up,0.4471517999190837,0.4602867308235621,,experiment,emotion,0.0,,,,750.1739646000788,525,26,male,True
193,136.0,25,M,down,0.7262728998903185,1.9136415249633425,,experiment,emotion,0.0,,,,752.8238240000792,525,26,male,True
194,127.0,25,M,up,0.7879319000057876,0.5332191360631591,,experiment,emotion,0.0,,,,754.3571530999616,525,26,male,True
195,109.0,25,M,down,0.7090156001504511,0.6367810380288427,,experiment,emotion,0.0,,,,756.057068400085,525,26,male,True
196,118.0,25,F,up,0.8552995999343693,0.3070167854230611,,experiment,emotion,0.0,,,,757.340725600021,525,26,male,True
197,109.0,25,F,up,0.8468121001496911,1.226515145850142,,experiment,emotion,0.0,,,,759.6902515001129,525,26,male,True
198,136.0,25,M,up,0.8152433999348432,0.4004458340849507,,experiment,emotion,0.0,,,,761.2068795999512,525,26,male,True
199,109.0,25,M,down,0.6316702999174595,0.8819038131736163,,experiment,emotion,0.0,,,,763.1734515000135,525,26,male,True
200,127.0,25,F,up,0.9013356999494136,1.9174985966448632,,experiment,emotion,0.0,,,,766.0067287001293,525,26,male,True
201,127.0,25,F,up,1.431206899927929,1.453980175389803,,experiment,emotion,0.0,,,,768.6398134001065,525,26,male,True
202,118.0,25,M,down,0.6755770000163466,1.891391255745124,,experiment,emotion,0.0,,,,772.2564835001249,525,26,male,True
203,118.0,25,F,up,0.863991100108251,0.5289465430500782,,experiment,emotion,0.0,,,,773.7230561000761,525,26,male,True
204,109.0,25,M,up,0.8096902999095619,0.8835770813183703,,experiment,emotion,0.0,,,,775.7563464001287,525,26,male,True
205,136.0,25,F,up,0.7241633001249284,0.9035860234046872,,experiment,emotion,0.0,,,,777.7729194001295,525,26,male,True
206,127.0,25,F,down,0.8300151999574155,0.4479523321009628,,experiment,emotion,0.0,,,,779.2560467000585,525,26,male,True
207,109.0,25,M,up,0.6522688001859933,1.3264315708317989,,experiment,emotion,0.0,,,,781.6727901000995,525,26,male,True
208,136.0,25,M,up,0.9170078998431564,1.0610930965901602,,experiment,emotion,0.0,,,,783.656051900005,525,26,male,True
209,136.0,25,F,up,0.8677493999712169,0.9865292156022664,,experiment,emotion,0.0,,,,785.8393105999567,525,26,male,True
210,118.0,25,M,up,1.5391647999640554,0.6432448186038723,,experiment,emotion,0.0,,,,787.6559194999281,525,26,male,True
211,109.0,25,F,down,0.8109919000416994,1.717450460875939,,experiment,emotion,0.0,,,,791.1891022999771,525,26,male,True
212,118.0,25,M,up,0.6770363999530673,0.7669348315158067,,experiment,emotion,0.0,,,,793.0390546000563,525,26,male,True
213,127.0,25,F,up,0.8654973998200148,1.1171030652743852,,experiment,emotion,0.0,,,,795.1056073000655,525,26,male,True
214,109.0,25,M,up,1.1788035000208763,1.4273919253134404,,experiment,emotion,0.0,,,,797.672202500049,525,26,male,True
215,136.0,25,F,up,1.2145805999170989,1.0426459913238473,,experiment,emotion,0.0,,,,800.1554799999576,525,26,male,True
216,127.0,25,M,up,0.7590260999277234,0.6389287013213805,,experiment,emotion,0.0,,,,802.2720572999679,525,26,male,True
217,136.0,25,F,up,0.7830421000253409,0.4203993946279974,,experiment,emotion,0.0,,,,803.7219787000213,525,26,male,True
218,109.0,25,M,up,2.331097400048748,1.2395394327500122,,experiment,emotion,0.0,,,,806.0219405000098,525,26,male,True
219,127.0,25,F,down,0.7013203999958932,1.2588884620357788,,experiment,emotion,0.0,,,,809.871734000044,525,26,male,True
220,118.0,25,M,down,0.6933754000347108,1.4944578171029523,,experiment,emotion,0.0,,,,812.3716818999965,525,26,male,True
221,118.0,25,F,down,0.8169300998561084,1.308313896756872,,experiment,emotion,0.0,,,,814.6381087999325,525,26,male,True
222,127.0,25,F,down,1.03420599992387,0.9227689627255328,,experiment,emotion,0.0,,,,816.654848900158,525,26,male,True
223,136.0,25,M,down,0.9760402999818324,1.7040105113550117,,experiment,emotion,0.0,,,,819.688039300032,525,26,male,True
224,118.0,25,F,up,0.6102291999850422,1.7095782455638835,,experiment,emotion,0.0,,,,822.6377980001271,525,26,male,True
225,109.0,25,M,up,0.6244942001067102,1.131825997805128,,experiment,emotion,0.0,,,,824.6545327000786,525,26,male,True
226,109.0,25,M,down,0.6835977998562157,1.6118106726248431,,experiment,emotion,0.0,,,,827.1544518000446,525,26,male,True
227,118.0,25,F,down,0.920781600056216,1.7962311361634749,,experiment,emotion,0.0,,,,829.9043638999574,525,26,male,True
228,136.0,25,F,up,0.6894598000217229,1.0949255527292374,,experiment,emotion,0.0,,,,832.1875897999853,525,26,male,True
229,127.0,25,M,up,0.9588983999565244,1.543926152269263,,experiment,emotion,0.0,,,,834.704157399945,525,26,male,True
230,109.0,25,F,up,0.7892844001762569,0.8350852563451037,,experiment,emotion,0.0,,,,836.770760799991,525,26,male,True
231,136.0,25,M,up,1.1133747999556365,0.4003484643368683,,experiment,emotion,0.0,,,,838.2206803001463,525,26,male,True
232,127.0,25,M,up,0.6873550999443978,0.7686932906143216,,experiment,emotion,0.0,,,,840.3706396000925,525,26,male,True
233,127.0,25,M,up,0.662977899890393,1.9062500099504889,,experiment,emotion,0.0,,,,843.2370658,525,26,male,True
234,109.0,25,M,up,0.9403007999062538,1.7432420597411535,,experiment,emotion,0.0,,,,845.9037459001411,525,26,male,True
235,118.0,25,M,up,0.6427489998750389,1.5668683007951665,,experiment,emotion,0.0,,,,848.6703065000474,525,26,male,True
236,136.0,25,F,up,0.9744603999424726,0.8431641145789164,,experiment,emotion,0.0,,,,850.4535863001365,525,26,male,True
237,118.0,25,F,down,0.8192704000975937,0.993270279569488,,experiment,emotion,0.0,,,,852.6868215999566,525,26,male,True
238,118.0,25,F,up,0.9086108000483364,0.9208991200125244,,experiment,emotion,0.0,,,,854.7034368000459,525,26,male,True
239,118.0,25,M,up,0.7684299999382347,1.3236252464632243,,experiment,emotion,0.0,,,,857.1866574999876,525,26,male,True
240,136.0,25,F,down,1.0026493000332266,0.9200449835079494,,experiment,emotion,0.0,,,,859.1364013000857,525,26,male,True
241,127.0,25,F,down,0.6856279999483377,0.821698558070586,,experiment,emotion,0.0,,,,861.2364018999506,525,26,male,True
242,109.0,25,F,up,0.8642323999665678,0.5265231579829464,,experiment,emotion,0.0,,,,862.7197909001261,525,26,male,True
243,109.0,25,M,down,1.0083331000059843,1.2636631597536885,,experiment,emotion,0.0,,,,865.1196956001222,525,26,male,True
244,127.0,25,F,down,1.0928256998304278,0.7442489179211257,,experiment,emotion,0.0,,,,867.1361803000327,525,26,male,True
245,136.0,25,M,up,0.6381987000349909,1.6744959971095137,,experiment,emotion,0.0,,,,870.2028449000791,525,26,male,True
246,136.0,25,M,up,0.7386064999736845,1.651966692465623,,experiment,emotion,0.0,,,,872.7694441999774,525,26,male,True
247,109.0,25,F,up,0.881392499897629,1.4435385061265862,,experiment,emotion,0.0,,,,875.202646800084,525,26,male,True
248,136.0,25,M,up,0.6869294000789523,0.6669878649670093,,experiment,emotion,0.0,,,,877.0191186999436,525,26,male,True
249,118.0,25,F,up,0.8842017001006752,1.179173558187983,,experiment,emotion,0.0,,,,879.1858391999267,525,26,male,True
250,127.0,25,M,up,0.7279416001401842,0.6141863883458539,,experiment,emotion,0.0,,,,880.9690835999791,525,26,male,True
251,118.0,25,F,down,0.770055599976331,1.8045964616036103,,experiment,emotion,0.0,,,,883.769004400121,525,26,male,True
252,109.0,25,M,down,0.609938999870792,1.689101467965167,,experiment,emotion,0.0,,,,886.5191025000531,525,26,male,True
253,127.0,25,F,up,0.6604118999093771,1.1215620936151034,,experiment,emotion,0.0,,,,888.5186280000489,525,26,male,True
254,118.0,25,F,down,0.793898900039494,0.5020346840504167,,experiment,emotion,0.0,,,,889.9521484000143,525,26,male,True
255,127.0,25,F,up,0.8763681000564247,1.7568920750025805,,experiment,emotion,0.0,,,,892.768671900034,525,26,male,True
256,109.0,25,F,up,1.1110337001737207,0.4434542275984474,,experiment,emotion,0.0,,,,894.3520011999644,525,26,male,True
257,136.0,25,F,up,0.6430711001157761,0.7993904366617097,,experiment,emotion,0.0,,,,896.5349989000242,525,26,male,True
258,127.0,25,M,up,0.7342403000220656,0.615585720983856,,experiment,emotion,0.0,,,,898.0518251999747,525,26,male,True
259,136.0,25,M,down,0.9061133000068368,1.679505535095882,,experiment,emotion,0.0,,,,900.7349289001432,525,26,male,True
260,109.0,25,M,down,0.9622235000133514,0.8349051695709584,,experiment,emotion,0.0,,,,902.7348192001228,525,26,male,True
261,118.0,25,M,down,0.993466799845919,1.2117760401823994,,experiment,emotion,0.0,,,,905.2015549000351,525,26,male,True
262,0.0866732772881819,25,up,up,1.0181615999899805,0.360416210944377,,experiment,cRDM,0.0,,,,914.1679001001175,525,26,male,True
263,0.0866732772881819,25,up,up,0.7432476999238133,1.6658006414610973,,experiment,cRDM,0.0,,,,917.1177910999396,525,26,male,True
264,0.0866732772881819,25,down,up,0.6093462998978794,1.7397149473398368,,experiment,cRDM,0.0,,,,919.8676937001292,525,26,male,True
265,0.0866732772881819,25,down,down,0.5455126999877393,0.8307917896564423,,experiment,cRDM,0.0,,,,921.5676059999968,525,26,male,True
266,0.0866732772881819,25,up,up,0.7560904999263585,0.3745618724667179,,experiment,cRDM,0.0,,,,922.75095230015,525,26,male,True
267,0.0866732772881819,25,down,down,0.7228965999092907,1.6187958744071902,,experiment,cRDM,0.0,,,,925.384142300114,525,26,male,True
268,0.0866732772881819,25,up,down,0.7712447999510914,0.678929976471423,,experiment,cRDM,0.0,,,,927.0507758001332,525,26,male,True
269,0.0866732772881819,25,up,down,0.6804076998960227,1.2231869416855643,,experiment,cRDM,0.0,,,,929.3006581999362,525,26,male,True
270,0.0866732772881819,25,down,up,0.6629789001308382,0.3126522826468109,,experiment,cRDM,0.0,,,,930.5672959000804,525,26,male,True
271,0.0866732772881819,25,down,up,0.7968691000714898,1.5691821869301197,,experiment,cRDM,0.0,,,,933.0671932001133,525,26,male,True
272,0.0866732772881819,25,down,up,0.6669477000832558,1.6459631948703608,,experiment,cRDM,0.0,,,,935.7670917999932,525,26,male,True
273,0.0866732772881819,25,down,up,0.9004504999611527,0.9357059532639648,,experiment,cRDM,0.0,,,,937.63356210012,525,26,male,True
274,0.0866732772881819,25,down,up,1.0377662999089807,1.24814274259928,,experiment,cRDM,0.0,,,,940.0502943000756,525,26,male,True
275,0.0866732772881819,25,down,down,0.6349402000196278,1.9936811533849723,,experiment,cRDM,0.0,,,,943.350100000156,525,26,male,True
276,0.0866732772881819,25,up,down,0.6879291001241654,0.4380883694344981,,experiment,cRDM,0.0,,,,944.7000941999722,525,26,male,True
277,0.0866732772881819,25,up,down,0.7903703998308629,0.4628159296374544,,experiment,cRDM,0.0,,,,946.1166871001478,525,26,male,True
278,0.0866732772881819,25,up,up,1.1187337001319977,0.4165853858967965,,experiment,cRDM,0.0,,,,947.583332600072,525,26,male,True
279,0.0866732772881819,25,up,up,0.5471461999695748,0.7930117429305994,,experiment,cRDM,0.0,,,,949.749916800065,525,26,male,True
280,0.0866732772881819,25,down,up,0.7418638002127409,0.9322559286965032,,experiment,cRDM,0.0,,,,951.4831916999536,525,26,male,True
281,0.0866732772881819,25,up,up,0.4765323000028729,0.7295196292921715,,experiment,cRDM,0.0,,,,953.2164328999352,525,26,male,True
282,0.0866732772881819,25,up,up,0.8766446998342872,0.7063838129208337,,experiment,cRDM,0.0,,,,954.6663923999296,525,26,male,True
283,0.0866732772881819,25,down,up,0.6043990000616759,1.2853999397015456,,experiment,cRDM,0.0,,,,957.0996322999708,525,26,male,True
284,0.0866732772881819,25,up,up,0.549566000001505,0.7218199730962337,,experiment,cRDM,0.0,,,,958.6995671000332,525,26,male,True
285,0.0866732772881819,25,down,up,0.7071641001384705,1.0221240253209416,,experiment,cRDM,0.0,,,,960.5328723001294,525,26,male,True
286,0.0866732772881819,25,down,up,0.5393019998446107,1.727954923040163,,experiment,cRDM,0.0,,,,963.2327598999254,525,26,male,True
287,0.0866732772881819,25,up,up,0.7186968000605702,0.7584499532976103,,experiment,cRDM,0.0,,,,964.7993393000216,525,26,male,True
288,0.0866732772881819,25,up,down,0.540387500077486,0.3915273866027439,,experiment,cRDM,0.0,,,,966.1826431001537,525,26,male,True
289,0.0866732772881819,25,down,down,0.7726592998951674,1.1371646113248597,,experiment,cRDM,0.0,,,,968.1323752000462,525,26,male,True
290,0.0866732772881819,25,up,up,0.6185139999724925,0.9258903678320723,,experiment,cRDM,0.0,,,,970.0825145000126,525,26,male,True
291,0.0866732772881819,25,down,up,0.6539692000951618,0.9692599732581356,,experiment,cRDM,0.0,,,,971.949063200038,525,26,male,True
292,0.0866732772881819,25,down,down,0.9216634000185876,0.7298796935656644,,experiment,cRDM,0.0,,,,973.5823661999312,525,26,male,True
293,0.0866732772881819,25,down,down,0.7960502000059932,0.4295328152621118,,experiment,cRDM,0.0,,,,975.1989711001517,525,26,male,True
294,0.0866732772881819,25,up,down,0.6616436999756843,0.9524974717535492,,experiment,cRDM,0.0,,,,977.2153948999476,525,26,male,True
295,0.0866732772881819,25,up,up,0.6228577001020312,1.785458118173053,,experiment,cRDM,0.0,,,,979.9321584000718,525,26,male,True
296,0.0866732772881819,25,up,up,0.6321851999964565,1.3324662366951605,,experiment,cRDM,0.0,,,,982.131931200158,525,26,male,True
297,0.0866732772881819,25,down,up,0.638087400002405,1.966853343030873,,experiment,cRDM,0.0,,,,984.9819392000792,525,26,male,True
298,0.0866732772881819,25,down,up,0.8354793998878449,0.8202155977752346,,experiment,cRDM,0.0,,,,986.6985484999605,525,26,male,True
299,0.0866732772881819,25,up,up,1.146243799943477,1.3755146969265173,,experiment,cRDM,0.0,,,,989.1817882000468,525,26,male,True
300,0.0866732772881819,25,down,up,0.899330599932,0.6513325164955459,,experiment,cRDM,0.0,,,,991.2316938999576,525,26,male,True
301,0.0866732772881819,25,up,up,0.5825507000554353,0.6312465899088884,,experiment,cRDM,0.0,,,,993.031475600088,525,26,male,True
302,0.0866732772881819,25,up,down,0.6278038001619279,1.3261163163405774,,experiment,cRDM,0.0,,,,995.1982450000942,525,26,male,True
303,0.0866732772881819,25,up,up,0.6686487998813391,1.4391366765874898,,experiment,cRDM,0.0,,,,997.53137969994,525,26,male,True
304,0.0866732772881819,25,down,down,0.6266864000353962,1.211809521608259,,experiment,cRDM,0.0,,,,999.6814129000996,525,26,male,True
305,0.0866732772881819,25,down,up,0.6850429000332952,1.7149923111171734,,experiment,cRDM,0.0,,,,1002.2979640001432,525,26,male,True
306,0.0866732772881819,25,up,up,0.8668409001547843,0.6930964192020307,,experiment,cRDM,0.0,,,,1003.9312132999768,525,26,male,True
307,0.0866732772881819,25,down,down,0.4750910999719053,1.974488596350184,,experiment,cRDM,0.0,,,,1007.031006100122,525,26,male,True
308,0.0866732772881819,25,down,down,0.7696396000683308,1.245551405804524,,experiment,cRDM,0.0,,,,1009.0143770000432,525,26,male,True
309,0.0866732772881819,25,up,up,0.5206416000146419,1.756260942649474,,experiment,cRDM,0.0,,,,1011.7976079999936,525,26,male,True
310,0.0866732772881819,25,up,up,0.5234360999893397,0.6651288410347316,,experiment,cRDM,0.0,,,,1013.2475803000852,525,26,male,True
311,0.0866732772881819,25,down,up,0.4167086000088602,1.0924337901941656,,experiment,cRDM,0.0,,,,1015.1141514999326,525,26,male,True
312,0.0866732772881819,25,up,up,0.6333681999240071,0.5245523672803956,,experiment,cRDM,0.0,,,,1016.330679200124,525,26,male,True
313,0.0866732772881819,25,down,up,0.4665997000411153,0.8102907339398451,,experiment,cRDM,0.0,,,,1018.0474275001324,525,26,male,True
314,0.0866732772881819,25,down,up,0.4745028999168426,1.558060280581507,,experiment,cRDM,0.0,,,,1020.3305216999725,525,26,male,True
315,0.0866732772881819,25,down,down,0.4528163999784738,1.631773050925142,,experiment,cRDM,0.0,,,,1022.6972116001416,525,26,male,True
316,0.0866732772881819,25,up,down,0.4968771000858396,1.3814339117387593,,experiment,cRDM,0.0,,,,1024.7971441999543,525,26,male,True
317,0.0866732772881819,25,up,up,0.8828676000703126,1.9763945998668544,,experiment,cRDM,0.0,,,,1027.530255000107,525,26,male,True
318,0.0866732772881819,25,down,down,0.703725199913606,0.9515408411352552,,experiment,cRDM,0.0,,,,1029.6302573001012,525,26,male,True
319,0.0866732772881819,25,down,up,0.7101153000257909,0.3479043225725093,,experiment,cRDM,0.0,,,,1030.9469409999438,525,26,male,True
320,0.0866732772881819,25,up,down,0.8719760000240058,1.019807009107487,,experiment,cRDM,0.0,,,,1032.930048899958,525,26,male,True
321,0.0866732772881819,25,up,down,0.941059100208804,1.4142980185981089,,experiment,cRDM,0.0,,,,1035.480073200073,525,26,male,True
322,0.0866732772881819,25,up,up,0.7530676000751555,0.7968832028368622,,experiment,cRDM,0.0,,,,1037.480008400045,525,26,male,True
323,0.0866732772881819,25,up,up,1.0822654999792576,1.028224529257936,,experiment,cRDM,0.0,,,,1039.529754600022,525,26,male,True
324,0.0866732772881819,25,up,down,0.8428678000345826,1.1344156042333524,,experiment,cRDM,0.0,,,,1042.013152900152,525,26,male,True
325,0.0866732772881819,25,down,down,2.330036300001666,1.984351327931221,,experiment,cRDM,0.0,,,,1045.1130457001273,525,26,male,True
326,0.0866732772881819,25,down,down,0.8898138999938965,1.3824449836929331,,experiment,cRDM,0.0,,,,1049.0962261001114,525,26,male,True
327,0.0866732772881819,25,up,up,0.6664881000760943,1.177919561634225,,experiment,cRDM,0.0,,,,1051.4295103000477,525,26,male,True
328,0.0866732772881819,25,down,up,0.5943130000960082,1.609194558227475,,experiment,cRDM,0.0,,,,1053.962728700135,525,26,male,True
329,0.0866732772881819,25,down,up,0.6870448000263423,1.0340418575809376,,experiment,cRDM,0.0,,,,1055.8459898999429,525,26,male,True
330,0.0866732772881819,25,down,up,0.872395999962464,0.5667648071317092,,experiment,cRDM,0.0,,,,1057.3625986999832,525,26,male,True
331,0.0866732772881819,25,up,down,0.9429574001114815,1.8252293527812615,,experiment,cRDM,0.0,,,,1060.329067500075,525,26,male,True
332,0.0866732772881819,25,down,up,0.7383677999023348,1.8798708118299103,,experiment,cRDM,0.0,,,,1063.395708800061,525,26,male,True
333,0.0866732772881819,25,down,down,0.7599067999981344,1.8163312217474408,,experiment,cRDM,0.0,,,,1066.2121063000525,525,26,male,True
334,0.0866732772881819,25,down,down,0.4169874000363052,0.8833880713831899,,experiment,cRDM,0.0,,,,1068.112112800125,525,26,male,True
335,0.0866732772881819,25,up,up,0.8501693999860436,0.9267993150736628,,experiment,cRDM,0.0,,,,1069.7288450000342,525,26,male,True
336,0.0866732772881819,25,up,down,0.8390808999538422,1.886954345404776,,experiment,cRDM,0.0,,,,1072.7119428999722,525,26,male,True
337,0.0866732772881819,25,down,up,0.8767208000645041,0.8800916946279667,,experiment,cRDM,0.0,,,,1074.695281600114,525,26,male,True
338,0.0866732772881819,25,up,down,0.6711436999030411,1.9328274611430816,,experiment,cRDM,0.0,,,,1077.7618515000213,525,26,male,True
339,0.0866732772881819,25,down,down,0.4876343000214547,1.643713672668097,,experiment,cRDM,0.0,,,,1080.3284001001157,525,26,male,True
340,0.0866732772881819,25,up,up,0.7104005001019686,1.73769814273784,,experiment,cRDM,0.0,,,,1082.8115670999978,525,26,male,True
341,0.0866732772881819,25,up,up,0.740389599930495,0.8373535724080443,,experiment,cRDM,0.0,,,,1084.6116253000218,525,26,male,True
342,136.0,25,M,up,0.8438989999704063,1.4591964885881006,,experiment,emotion,1.0,,,,1105.5941564000675,525,26,male,True
343,109.0,25,M,up,0.7818843999411911,0.610363913241047,,experiment,emotion,1.0,,,,1107.3441226000432,525,26,male,True
344,127.0,25,F,down,1.0063400999642909,1.552935311743343,,experiment,emotion,1.0,,,,1109.9606568999588,525,26,male,True
345,136.0,25,F,up,0.7350815001409501,0.4626046176688429,,experiment,emotion,1.0,,,,1111.6939312999602,525,26,male,True
346,127.0,25,M,up,0.845970599912107,1.0296778965181743,,experiment,emotion,1.0,,,,1113.7271096000914,525,26,male,True
347,118.0,25,F,up,0.7750246000941843,0.5577846705977434,,experiment,emotion,1.0,,,,1115.4269829001278,525,26,male,True
348,109.0,25,M,down,0.5399511998984963,1.005791479077064,,experiment,emotion,1.0,,,,1117.477052600123,525,26,male,True
349,118.0,25,M,down,0.6014109998941422,1.1009805305139135,,experiment,emotion,1.0,,,,1119.3936640999746,525,26,male,True
350,136.0,25,F,down,0.8101050001569092,1.499951419351996,,experiment,emotion,1.0,,,,1121.7769029000774,525,26,male,True
351,118.0,25,F,down,0.7148754000663757,1.6997798420375794,,experiment,emotion,1.0,,,,1124.5601123999804,525,26,male,True
352,127.0,25,F,up,0.9207021999172866,1.4879152265629974,,experiment,emotion,1.0,,,,1127.043394899927,525,26,male,True
353,136.0,25,F,up,0.6371603000443429,1.4731228701894123,,experiment,emotion,1.0,,,,1129.7099240999669,525,26,male,True
354,127.0,25,F,up,0.8074922999367118,0.3553410971950561,,experiment,emotion,1.0,,,,1130.9765546000565,525,26,male,True
355,109.0,25,F,down,0.799865199951455,1.1700975778408302,,experiment,emotion,1.0,,,,1133.2431386001408,525,26,male,True
356,118.0,25,M,up,0.990738800028339,0.3222576061331328,,experiment,emotion,1.0,,,,1134.6262835001107,525,26,male,True
357,109.0,25,M,down,1.1546676999423653,1.2792560460409206,,experiment,emotion,1.0,,,,1137.1762995000463,525,26,male,True
358,136.0,25,M,up,0.8497351000551134,0.6961978710032397,,experiment,emotion,1.0,,,,1139.2762679001316,525,26,male,True
359,109.0,25,M,up,0.7961578001268208,0.8417122121892315,,experiment,emotion,1.0,,,,1141.2428483001422,525,26,male,True
360,127.0,25,F,up,0.7722381001804024,1.1734581165222993,,experiment,emotion,1.0,,,,1143.492765400093,525,26,male,True
361,127.0,25,M,down,0.5823164000175893,0.8052858162737411,,experiment,emotion,1.0,,,,1145.3426847001538,525,26,male,True
362,118.0,25,M,down,0.5463440997991711,1.4478311869930605,,experiment,emotion,1.0,,,,1147.642634100048,525,26,male,True
363,118.0,25,F,down,0.7691347999498248,1.431043668124943,,experiment,emotion,1.0,,,,1149.875861800043,525,26,male,True
364,109.0,25,M,up,0.8718656999990344,0.8288945299605706,,experiment,emotion,1.0,,,,1151.7591359000653,525,26,male,True
365,136.0,25,F,up,0.6660194001160562,1.290954478802014,,experiment,emotion,1.0,,,,1154.2090034000576,525,26,male,True
366,127.0,25,F,up,0.8014440000988543,0.3878520711393225,,experiment,emotion,1.0,,,,1155.5255630000029,525,26,male,True
367,109.0,25,M,down,0.6125996999908239,1.81615600466458,,experiment,emotion,1.0,,,,1158.4254042000975,525,26,male,True
368,136.0,25,M,down,0.778201200067997,1.3104276125104206,,experiment,emotion,1.0,,,,1160.608790700091,525,26,male,True
369,136.0,25,F,up,0.8163136998191476,1.452895934847714,,experiment,emotion,1.0,,,,1163.1086910001468,525,26,male,True
370,118.0,25,M,down,0.7903910998720676,1.5142830542121142,,experiment,emotion,1.0,,,,1165.7086114999838,525,26,male,True
371,109.0,25,F,down,0.810137800173834,0.884448917423609,,experiment,emotion,1.0,,,,1167.641863600118,525,26,male,True
372,118.0,25,F,down,0.6670370998326689,1.005182855019523,,experiment,emotion,1.0,,,,1169.724961800035,525,26,male,True
373,127.0,25,F,down,0.9291214998811484,1.0383081941191652,,experiment,emotion,1.0,,,,1171.724873600062,525,26,male,True
374,109.0,25,M,down,0.7087703999131918,1.0844762332876516,,experiment,emotion,1.0,,,,1174.008293400053,525,26,male,True
375,136.0,25,M,up,0.6901184001471847,1.0825895467647273,,experiment,emotion,1.0,,,,1176.0748805999756,525,26,male,True
376,127.0,25,M,down,0.9658446998801082,1.4312443937148016,,experiment,emotion,1.0,,,,1178.4581506000832,525,26,male,True
377,136.0,25,F,up,0.5805956998374313,0.5049000320711647,,experiment,emotion,1.0,,,,1180.1914020001425,525,26,male,True
378,109.0,25,F,down,0.7773296001832932,1.5222812892369308,,experiment,emotion,1.0,,,,1182.5746504999695,525,26,male,True
379,127.0,25,M,up,0.8987577999942005,1.007356650508129,,experiment,emotion,1.0,,,,1184.6412375001237,525,26,male,True
380,118.0,25,F,down,0.8418701000045985,1.2957537615384314,,experiment,emotion,1.0,,,,1187.1411616001278,525,26,male,True
381,118.0,25,M,down,0.746950900182128,1.0338933097301106,,experiment,emotion,1.0,,,,1189.291044499958,525,26,male,True
382,127.0,25,M,down,0.7556622000411153,1.406443102835646,,experiment,emotion,1.0,,,,1191.7243264999706,525,26,male,True
383,136.0,25,M,up,0.7648922000080347,1.6590980723463686,,experiment,emotion,1.0,,,,1194.4242056000512,525,26,male,True
384,118.0,25,F,up,0.6739890999160707,1.6698470675001609,,experiment,emotion,1.0,,,,1197.12400540011,525,26,male,True
385,109.0,25,F,down,0.6589816000778228,1.4486992212431569,,experiment,emotion,1.0,,,,1199.5240140000824,525,26,male,True
386,109.0,25,M,down,0.5868255000095814,0.8538503221474136,,experiment,emotion,1.0,,,,1201.3072021000553,525,26,male,True
387,118.0,25,F,down,0.7657687999308109,0.9868677959573926,,experiment,emotion,1.0,,,,1203.1572096000891,525,26,male,True
388,136.0,25,F,down,0.7918561999686062,0.5643992962907567,,experiment,emotion,1.0,,,,1204.7571686999872,525,26,male,True
389,127.0,25,M,up,0.6805722999852151,0.617823512819761,,experiment,emotion,1.0,,,,1206.5404277001508,525,26,male,True
390,109.0,25,M,down,0.6493836999870837,1.0281556026744612,,experiment,emotion,1.0,,,,1208.5235890999902,525,26,male,True
391,136.0,25,F,up,0.6343870998825878,0.7152084444418941,,experiment,emotion,1.0,,,,1210.1736064001452,525,26,male,True
392,127.0,25,M,up,1.5347731998190284,1.2622103515480387,,experiment,emotion,1.0,,,,1212.34022750007,525,26,male,True
393,127.0,25,F,up,0.8548906999640167,1.5856098440426194,,experiment,emotion,1.0,,,,1215.740099800052,525,26,male,True
394,109.0,25,F,up,1.1909745000302792,1.5194143395344042,,experiment,emotion,1.0,,,,1218.3899993000086,525,26,male,True
395,118.0,25,F,down,0.6027661999687552,1.8036456371331508,,experiment,emotion,1.0,,,,1221.6732332999818,525,26,male,True
396,136.0,25,M,down,0.6798849001061171,1.6278304980354807,,experiment,emotion,1.0,,,,1224.1731118001044,525,26,male,True
397,118.0,25,M,down,0.7059791998472065,1.4118194360232017,,experiment,emotion,1.0,,,,1226.5230111000128,525,26,male,True
398,118.0,25,F,up,0.6933749001473188,1.438677290128748,,experiment,emotion,1.0,,,,1228.9396073999817,525,26,male,True
399,118.0,25,F,up,0.9507663000840694,1.063009480997619,,experiment,emotion,1.0,,,,1230.9561930999623,525,26,male,True
400,136.0,25,M,up,0.7698347000405192,0.5636309459974853,,experiment,emotion,1.0,,,,1232.7561451001093,525,26,male,True
401,127.0,25,M,up,0.6598209999501705,0.5286836134648851,,experiment,emotion,1.0,,,,1234.3394067001063,525,26,male,True
402,109.0,25,M,up,1.0233529000543058,1.3375323877392822,,experiment,emotion,1.0,,,,1236.6226669999303,525,26,male,True
403,109.0,25,M,down,0.7054566000588238,1.5057816219370357,,experiment,emotion,1.0,,,,1239.4225348001346,525,26,male,True
404,127.0,25,M,down,0.7707773000001907,0.3323437427627868,,experiment,emotion,1.0,,,,1240.739173799986,525,26,male,True
405,136.0,25,F,down,0.6986722000874579,0.3319808813997594,,experiment,emotion,1.0,,,,1242.1224196001422,525,26,male,True
406,136.0,25,F,down,0.6109248001594096,1.301369980209655,,experiment,emotion,1.0,,,,1244.3890480999837,525,26,male,True
407,109.0,25,M,down,1.2045405998360366,1.227794884267998,,experiment,emotion,1.0,,,,1246.5054311000276,525,26,male,True
408,136.0,25,F,up,0.6051804998423904,1.9257271886481149,,experiment,emotion,1.0,,,,1249.8888230000157,525,26,male,True
409,118.0,25,F,up,0.5892748001497239,0.9097959002922624,,experiment,emotion,1.0,,,,1251.688738900004,525,26,male,True
410,127.0,25,F,up,0.8438964998349547,0.3718628672629351,,experiment,emotion,1.0,,,,1252.922089900123,525,26,male,True
411,118.0,25,M,down,0.7963409000076354,0.6489735234400962,,experiment,emotion,1.0,,,,1254.6886311001144,525,26,male,True
412,109.0,25,F,down,0.6991181999910623,0.817823308523248,,experiment,emotion,1.0,,,,1256.5719280000776,525,26,male,True
413,127.0,25,F,up,1.450825900072232,1.7997636145518183,,experiment,emotion,1.0,,,,1259.3551634000614,525,26,male,True
414,118.0,25,F,down,0.6782733998261392,1.4360560324095872,,experiment,emotion,1.0,,,,1262.5217122000176,525,26,male,True
415,127.0,25,M,down,0.6867241999134421,1.346818849911105,,experiment,emotion,1.0,,,,1264.83826530003,525,26,male,True
416,109.0,25,M,down,0.3334940001368522,1.7503118548853993,,experiment,emotion,1.0,,,,1267.538194600027,525,26,male,True
417,136.0,25,F,up,0.54551100009121,1.4535062664672056,,experiment,emotion,1.0,,,,1269.704507400049,525,26,male,True
418,127.0,25,M,up,0.3001443999819457,0.9561924117375548,,experiment,emotion,1.0,,,,1271.4713894000745,525,26,male,True
419,136.0,25,F,up,0.6154588998761028,1.0989107744500306,,experiment,emotion,1.0,,,,1273.2546054001432,525,26,male,True
420,109.0,25,M,down,0.6537695000879467,1.442144027484422,,experiment,emotion,1.0,,,,1275.5712155001238,525,26,male,True
421,118.0,25,M,up,0.8972084999550134,1.7290540099128786,,experiment,emotion,1.0,,,,1278.237774200039,525,26,male,True
422,0.0866732772881819,25,up,up,0.7319109002128243,1.363792590918715,,experiment,cRDM,1.0,,,,1286.8541260000784,525,26,male,True
423,0.0866732772881819,25,up,up,0.546224000165239,0.3361533336517304,,experiment,cRDM,1.0,,,,1288.1707715000955,525,26,male,True
424,0.0866732772881819,25,down,up,0.6796095999889076,1.409136607917905,,experiment,cRDM,1.0,,,,1290.3873487999665,525,26,male,True
425,0.0866732772881819,25,down,down,0.4776303002145141,1.7873090416594868,,experiment,cRDM,1.0,,,,1293.1203624000773,525,26,male,True
426,0.0866732772881819,25,up,down,0.675783600192517,0.3123477395248095,,experiment,cRDM,1.0,,,,1294.187191199977,525,26,male,True
427,0.0866732772881819,25,down,down,0.5428472000639886,0.502897940515941,,experiment,cRDM,1.0,,,,1295.6371542999989,525,26,male,True
428,0.0866732772881819,25,up,up,0.669937799917534,1.3888644158549193,,experiment,cRDM,1.0,,,,1297.8371157001238,525,26,male,True
429,0.0866732772881819,25,up,up,0.6260074998717755,1.526691108887933,,experiment,cRDM,1.0,,,,1300.2869440999348,525,26,male,True
430,0.0866732772881819,25,down,up,0.987587299896404,1.8377744271950172,,experiment,cRDM,1.0,,,,1303.0034167000558,525,26,male,True
431,0.0866732772881819,25,down,down,0.6842061998322606,1.3318310191099885,,experiment,cRDM,1.0,,,,1305.5867667000275,525,26,male,True
432,0.0866732772881819,25,down,down,0.6472832998260856,1.3119310148276957,,experiment,cRDM,1.0,,,,1307.8366922000423,525,26,male,True
433,0.0866732772881819,25,down,down,0.6253496999852359,1.4841126408641665,,experiment,cRDM,1.0,,,,1310.2366335000845,525,26,male,True
434,0.0866732772881819,25,down,up,0.664165599970147,1.1436467385160782,,experiment,cRDM,1.0,,,,1312.2698508000467,525,26,male,True
435,0.0866732772881819,25,down,up,0.8195208001416177,1.9518695163432969,,experiment,cRDM,1.0,,,,1315.1364653001074,525,26,male,True
436,0.0866732772881819,25,up,up,0.6510302000679076,1.189701909861924,,experiment,cRDM,1.0,,,,1317.40299400012,525,26,male,True
437,0.0866732772881819,25,up,up,0.9997511999681592,1.654865001711941,,experiment,cRDM,1.0,,,,1319.986230300041,525,26,male,True
438,0.0866732772881819,25,up,up,0.7314762000460178,0.6093117455900326,,experiment,cRDM,1.0,,,,1321.869513300015,525,26,male,True
439,0.0866732772881819,25,up,up,0.6882368999067694,1.8851018634586736,,experiment,cRDM,1.0,,,,1324.7527369000018,525,26,male,True
440,0.0866732772881819,25,down,up,0.6499375000130385,1.02786846390431,,experiment,cRDM,1.0,,,,1326.736028000014,525,26,male,True
441,0.0866732772881819,25,up,up,1.0687076000031084,0.3299291897567776,,experiment,cRDM,1.0,,,,1327.9692581000272,525,26,male,True
442,0.0866732772881819,25,up,up,0.8735225999262184,1.9065187292980572,,experiment,cRDM,1.0,,,,1331.2024708001409,525,26,male,True
443,0.0866732772881819,25,down,down,0.4771318000275641,1.496753866768146,,experiment,cRDM,1.0,,,,1333.8357778999489,525,26,male,True
444,0.0866732772881819,25,up,up,0.7356831999495625,1.6203084444639957,,experiment,cRDM,1.0,,,,1336.2023064999375,525,26,male,True
445,0.0866732772881819,25,down,up,0.7583608999848366,0.4399010490124663,,experiment,cRDM,1.0,,,,1337.6356166000478,525,26,male,True
446,0.0866732772881819,25,down,up,0.7118117001373321,0.7429214213448292,,experiment,cRDM,1.0,,,,1339.402161899954,525,26,male,True
447,0.0866732772881819,25,up,down,0.764401099877432,1.7473566213499234,,experiment,cRDM,1.0,,,,1342.1185777999926,525,26,male,True
448,0.0866732772881819,25,up,down,0.7106550999451429,1.440534873961301,,experiment,cRDM,1.0,,,,1344.585328400135,525,26,male,True
449,0.0866732772881819,25,down,down,0.5416941998992115,0.5359567903212725,,experiment,cRDM,1.0,,,,1346.0852862999309,525,26,male,True
450,0.0866732772881819,25,up,up,0.5647492001298815,1.295021349854883,,experiment,cRDM,1.0,,,,1348.1852041000966,525,26,male,True
451,0.0866732772881819,25,down,down,0.5987494001165032,1.1869720116732798,,experiment,cRDM,1.0,,,,1350.218290900113,525,26,male,True
452,0.0866732772881819,25,down,up,0.6332183999475092,0.4139318232561936,,experiment,cRDM,1.0,,,,1351.501751499949,525,26,male,True
453,0.0866732772881819,25,down,up,0.6898584000300616,1.8268647096166883,,experiment,cRDM,1.0,,,,1354.21811230015,525,26,male,True
454,0.0866732772881819,25,up,up,0.6403590000700206,0.587192063716939,,experiment,cRDM,1.0,,,,1355.751596200047,525,26,male,True
455,0.0866732772881819,25,up,up,0.5965792997740209,1.4497523848995837,,experiment,cRDM,1.0,,,,1358.1014791000634,525,26,male,True
456,0.0866732772881819,25,up,up,0.9169102001469582,1.0747758534482108,,experiment,cRDM,1.0,,,,1360.0180901000276,525,26,male,True
457,0.0866732772881819,25,down,down,0.6082236000802368,1.5084618732835713,,experiment,cRDM,1.0,,,,1362.7177532000933,525,26,male,True
458,0.0866732772881819,25,down,down,0.6390503000002354,1.572487457625082,,experiment,cRDM,1.0,,,,1365.1679225000553,525,26,male,True
459,0.0866732772881819,25,up,down,0.6291308000218123,0.5967144632501569,,experiment,cRDM,1.0,,,,1366.6678425001446,525,26,male,True
460,0.0866732772881819,25,down,down,0.6538869000505656,0.92749590088449,,experiment,cRDM,1.0,,,,1368.5010971999727,525,26,male,True
461,0.0866732772881819,25,up,down,0.565015200059861,1.9361747661975397,,experiment,cRDM,1.0,,,,1371.3510052999482,525,26,male,True
462,0.0866732772881819,25,up,down,0.5230582999065518,1.9220928574610008,,experiment,cRDM,1.0,,,,1374.1008930001408,525,26,male,True
463,0.0866732772881819,25,up,down,0.6761449000332505,1.352484319215144,,experiment,cRDM,1.0,,,,1376.2507913999725,525,26,male,True
464,0.0866732772881819,25,down,up,0.6472571000922471,1.8588140262509487,,experiment,cRDM,1.0,,,,1379.050738000078,525,26,male,True
465,0.0866732772881819,25,down,up,0.9505529999732972,0.345183661467149,,experiment,cRDM,1.0,,,,1380.3173871000763,525,26,male,True
466,0.0866732772881819,25,up,up,1.2220300000626594,1.3529926353124615,,experiment,cRDM,1.0,,,,1382.8839056999425,525,26,male,True
467,0.0866732772881819,25,down,down,0.6674536000937223,0.3942062227407585,,experiment,cRDM,1.0,,,,1384.7505155000836,525,26,male,True
468,0.0866732772881819,25,down,down,0.6315301998984069,0.970622645817186,,experiment,cRDM,1.0,,,,1386.6504395999946,525,26,male,True
469,0.0866732772881819,25,up,up,0.6836183001287282,1.149402702025861,,experiment,cRDM,1.0,,,,1388.700376600027,525,26,male,True
470,0.0866732772881819,25,up,down,0.8610932999290526,0.4517757711525559,,experiment,cRDM,1.0,,,,1390.116876299959,525,26,male,True
471,0.0866732772881819,25,down,down,0.6570989000611007,1.0293609800911752,,experiment,cRDM,1.0,,,,1392.266897500027,525,26,male,True
472,0.0866732772881819,25,up,down,0.7737908000126481,0.5661065374027894,,experiment,cRDM,1.0,,,,1393.7501791000832,525,26,male,True
473,0.0866732772881819,25,down,down,0.5715061000082642,0.7072524623214494,,experiment,cRDM,1.0,,,,1395.483455199981,525,26,male,True
474,0.0866732772881819,25,down,down,0.7008983998093754,0.5418076856536254,,experiment,cRDM,1.0,,,,1396.8500687000342,525,26,male,True
475,0.0866732772881819,25,down,down,1.0656446998473257,0.6664378319597994,,experiment,cRDM,1.0,,,,1398.483319699997,525,26,male,True
476,0.0866732772881819,25,up,down,0.6472689001820982,0.4047582013050204,,experiment,cRDM,1.0,,,,1400.2166399999987,525,26,male,True
477,0.0866732772881819,25,up,up,0.5428336998447776,1.617103655627884,,experiment,cRDM,1.0,,,,1402.7331886000466,525,26,male,True
478,0.0866732772881819,25,down,up,0.5825266998726875,1.7215489974432567,,experiment,cRDM,1.0,,,,1405.266433800105,525,26,male,True
479,0.0866732772881819,25,down,up,0.3505802999716252,0.4713801323787454,,experiment,cRDM,1.0,,,,1406.5996050999966,525,26,male,True
480,0.0866732772881819,25,up,up,0.6476314999163151,0.4869109278107604,,experiment,cRDM,1.0,,,,1407.766324199969,525,26,male,True
481,0.0866732772881819,25,up,down,0.5647448999807239,1.489394368836089,,experiment,cRDM,1.0,,,,1410.1662413999438,525,26,male,True
482,0.0866732772881819,25,up,up,0.7346099000424147,0.6133927951698,,experiment,cRDM,1.0,,,,1411.599353000056,525,26,male,True
483,0.0866732772881819,25,up,down,0.5897725999820977,0.924617792334463,,experiment,cRDM,1.0,,,,1413.516191800125,525,26,male,True
484,0.0866732772881819,25,up,down,0.9239330999553204,1.096457672080156,,experiment,cRDM,1.0,,,,1415.4660501000471,525,26,male,True
485,0.0866732772881819,25,down,down,0.6853818998206407,1.8806776118998731,,experiment,cRDM,1.0,,,,1418.5326177000534,525,26,male,True
486,0.0866732772881819,25,down,down,0.6134449997916818,0.7114977828961473,,experiment,cRDM,1.0,,,,1420.1825222999323,525,26,male,True
487,0.0866732772881819,25,up,down,0.6714516000356525,1.3692580457512886,,experiment,cRDM,1.0,,,,1422.4324575001374,525,26,male,True
488,0.0866732772881819,25,down,down,0.6009796999860555,1.7812457913245727,,experiment,cRDM,1.0,,,,1425.1490162999835,525,26,male,True
489,0.0866732772881819,25,down,down,0.5843595999758691,1.3590886155329454,,experiment,cRDM,1.0,,,,1427.3655960999895,525,26,male,True
490,0.0866732772881819,25,down,down,0.5941601002123207,1.1862174934182217,,experiment,cRDM,1.0,,,,1429.398798899958,525,26,male,True
491,0.0866732772881819,25,up,up,0.8654557999689132,0.6550254255163348,,experiment,cRDM,1.0,,,,1430.91550490004,525,26,male,True
492,0.0866732772881819,25,down,up,0.7869037000928074,1.0409591939419875,,experiment,cRDM,1.0,,,,1433.0820492000785,525,26,male,True
493,0.0866732772881819,25,down,up,0.5569774999748915,0.4140240807130494,,experiment,cRDM,1.0,,,,1434.531996200094,525,26,male,True
494,0.0866732772881819,25,down,down,0.6153988000005484,0.7559041217852611,,experiment,cRDM,1.0,,,,1436.098530499963,525,26,male,True
495,0.0866732772881819,25,up,down,0.4896844001486897,1.128355408930306,,experiment,cRDM,1.0,,,,1438.1152437001,525,26,male,True
496,0.0866732772881819,25,up,up,0.6224773998837918,0.791672017302096,,experiment,cRDM,1.0,,,,1439.6484829999972,525,26,male,True
497,0.0866732772881819,25,down,up,0.6584693000186235,0.8203752838985963,,experiment,cRDM,1.0,,,,1441.3484475000296,525,26,male,True
498,0.0866732772881819,25,up,up,0.6887566999066621,1.5318771787374823,,experiment,cRDM,1.0,,,,1443.7981781000271,525,26,male,True
499,0.0866732772881819,25,down,down,0.709351500030607,0.989608270576062,,experiment,cRDM,1.0,,,,1445.731605899986,525,26,male,True
500,0.0866732772881819,25,up,up,0.8460500000510365,0.5693671254281405,,experiment,cRDM,1.0,,,,1447.2648612000048,525,26,male,True
501,0.0866732772881819,25,up,up,1.3454940000083295,0.7551587108447533,,experiment,cRDM,1.0,,,,1449.1314703000244,525,26,male,True
502,136.0,25,M,up,0.5239377999678254,1.2018516007837712,,experiment,emotion,2.0,,,,1475.1970182999503,525,26,male,True
503,109.0,25,M,down,0.552748000016436,0.6875717788057141,,experiment,emotion,2.0,,,,1476.6971477000045,525,26,male,True
504,127.0,25,F,up,1.047517899889499,0.4065403719857395,,experiment,emotion,2.0,,,,1477.9304605999496,525,26,male,True
505,136.0,25,F,down,0.7050896999426186,1.1665003509038778,,experiment,emotion,2.0,,,,1480.396830599988,525,26,male,True
506,127.0,25,M,up,0.8780332999303937,1.971880609053284,,experiment,emotion,2.0,,,,1483.3469058000485,525,26,male,True
507,118.0,25,F,down,0.6218514998909086,0.35636502912167,,experiment,emotion,2.0,,,,1484.880125100026,525,26,male,True
508,109.0,25,M,up,1.166251800023019,1.467154659502243,,experiment,emotion,2.0,,,,1487.246723700082,525,26,male,True
509,118.0,25,M,up,0.5876511000096798,0.382592955773727,,experiment,emotion,2.0,,,,1489.0632833000273,525,26,male,True
510,136.0,25,F,up,0.7617003000341356,1.3877806496248977,,experiment,emotion,2.0,,,,1491.3132534001488,525,26,male,True
511,118.0,25,F,up,0.8631411001551896,0.8428132216358502,,experiment,emotion,2.0,,,,1493.1798133000266,525,26,male,True
512,127.0,25,F,up,0.7218215998727828,0.5433473194140597,,experiment,emotion,2.0,,,,1494.8631305000745,525,26,male,True
513,136.0,25,F,up,0.6199167999438941,1.6497660909892888,,experiment,emotion,2.0,,,,1497.5130378999747,525,26,male,True
514,127.0,25,F,up,0.7747969999909401,1.4873224421809856,,experiment,emotion,2.0,,,,1499.896155199967,525,26,male,True
515,109.0,25,F,down,0.8970822000410408,1.8278588684632284,,experiment,emotion,2.0,,,,1502.795902499929,525,26,male,True
516,118.0,25,M,up,0.9149885999504476,0.3244143001972799,,experiment,emotion,2.0,,,,1504.295979199931,525,26,male,True
517,109.0,25,M,down,0.9281463001389056,0.8198906694015888,,experiment,emotion,2.0,,,,1506.295840800041,525,26,male,True
518,136.0,25,M,up,0.956131499959156,1.0108191371803188,,experiment,emotion,2.0,,,,1508.495832500048,525,26,male,True
519,109.0,25,M,down,0.7527266000397503,0.9534841576534172,,experiment,emotion,2.0,,,,1510.6792000001296,525,26,male,True
520,127.0,25,F,up,0.7574787000194192,0.6118000010864872,,experiment,emotion,2.0,,,,1512.3124913999343,525,26,male,True
521,127.0,25,M,down,0.746442899806425,1.8569269647983164,,experiment,emotion,2.0,,,,1515.1955041999463,525,26,male,True
522,118.0,25,M,down,1.2383057998958975,0.7307817471397697,,experiment,emotion,2.0,,,,1516.945649500005,525,26,male,True
523,118.0,25,F,down,0.8304921998642385,1.7795628191685675,,experiment,emotion,2.0,,,,1520.2455045001116,525,26,male,True
524,109.0,25,M,down,0.8425972999539226,0.74778853175751,,experiment,emotion,2.0,,,,1522.0953453001566,525,26,male,True
525,136.0,25,F,up,0.8506233999505639,1.0205104040882824,,experiment,emotion,2.0,,,,1524.2453710001428,525,26,male,True
526,127.0,25,F,down,0.7403643999714404,1.366596765440103,,experiment,emotion,2.0,,,,1526.7286034999415,525,26,male,True
527,109.0,25,M,down,0.6679122000932693,1.748005702195549,,experiment,emotion,2.0,,,,1529.4950660001489,525,26,male,True
528,136.0,25,M,up,0.9958614998031408,1.108954710029537,,experiment,emotion,2.0,,,,1531.54510940006,525,26,male,True
529,136.0,25,F,up,0.9006177000701427,0.5662653416805311,,experiment,emotion,2.0,,,,1533.378330100095,525,26,male,True
530,118.0,25,M,up,1.0900042001158,1.2685392261408928,,experiment,emotion,2.0,,,,1535.8449419001115,525,26,male,True
531,109.0,25,F,down,0.9007827001623808,0.4177023001297825,,experiment,emotion,2.0,,,,1537.6281934001015,525,26,male,True
532,118.0,25,F,down,0.7488665001001209,0.9776838964803334,,experiment,emotion,2.0,,,,1539.7781126000918,525,26,male,True
533,127.0,25,F,up,0.5075974001083523,1.9404698982436392,,experiment,emotion,2.0,,,,1542.7613446000032,525,26,male,True
534,109.0,25,M,down,0.574634499847889,0.6538905190915979,,experiment,emotion,2.0,,,,1544.2113079000264,525,26,male,True
535,136.0,25,M,up,0.730710499919951,0.7855725799046998,,experiment,emotion,2.0,,,,1545.8612365999725,525,26,male,True
536,127.0,25,M,up,0.7637287001125515,0.592772937648046,,experiment,emotion,2.0,,,,1547.4611983001232,525,26,male,True
537,136.0,25,F,up,0.6891805999912322,0.6244396827342442,,experiment,emotion,2.0,,,,1549.1277781000829,525,26,male,True
538,109.0,25,F,down,0.6642479998990893,0.3998225754969188,,experiment,emotion,2.0,,,,1550.4776813001372,525,26,male,True
539,127.0,25,M,up,0.6279770000837743,1.9523232690149652,,experiment,emotion,2.0,,,,1553.3609450999647,525,26,male,True
540,118.0,25,F,down,0.7854534999933094,1.603919948894771,,experiment,emotion,2.0,,,,1555.8775125001555,525,26,male,True
541,118.0,25,M,up,0.9172247000969946,1.3253909733141709,,experiment,emotion,2.0,,,,1558.260768600041,525,26,male,True
542,127.0,25,M,up,0.5705585000105202,0.8781352958926034,,experiment,emotion,2.0,,,,1560.327383799944,525,26,male,True
543,136.0,25,M,up,1.161403500009328,0.6233389321901968,,experiment,emotion,2.0,,,,1561.8105365000663,525,26,male,True
544,118.0,25,F,up,0.8430380998179317,0.35604994456238,,experiment,emotion,2.0,,,,1563.5939102000557,525,26,male,True
545,109.0,25,F,down,0.61347800004296,1.63818941947152,,experiment,emotion,2.0,,,,1566.3604594999924,525,26,male,True
546,109.0,25,M,down,0.5455196001566947,1.126492062415506,,experiment,emotion,2.0,,,,1568.3604312001262,525,26,male,True
547,118.0,25,F,up,0.6976067998912185,0.9488535606102332,,experiment,emotion,2.0,,,,1570.1103404001333,525,26,male,True
548,136.0,25,F,up,0.8975104000419378,1.0252529463899862,,experiment,emotion,2.0,,,,1572.0934582999907,525,26,male,True
549,127.0,25,M,down,0.6801485000178218,1.1045984346861215,,experiment,emotion,2.0,,,,1574.376817600103,525,26,male,True
550,109.0,25,M,up,0.5748406001366675,1.0276864768742182,,experiment,emotion,2.0,,,,1576.3601220001,525,26,male,True
551,136.0,25,F,up,0.9282809998840094,1.9110764796467583,,experiment,emotion,2.0,,,,1579.1266684001312,525,26,male,True
552,127.0,25,M,up,0.5683416998945177,1.448485220011072,,experiment,emotion,2.0,,,,1581.776574100135,525,26,male,True
553,127.0,25,F,up,0.8178206998854876,0.7931861240556439,,experiment,emotion,2.0,,,,1583.393151600147,525,26,male,True
554,109.0,25,F,down,0.566518499981612,1.5926544514598782,,experiment,emotion,2.0,,,,1586.0764089000877,525,26,male,True
555,118.0,25,F,down,0.7296108000446111,0.9527294055421024,,experiment,emotion,2.0,,,,1587.876314500114,525,26,male,True
556,136.0,25,M,down,1.1640429000835866,1.5145015865982738,,experiment,emotion,2.0,,,,1590.392930299975,525,26,male,True
557,118.0,25,M,up,0.6574387999717146,0.9374500076139324,,experiment,emotion,2.0,,,,1592.7595015999395,525,26,male,True
558,118.0,25,F,down,0.7488839998841286,1.888393314961661,,experiment,emotion,2.0,,,,1595.5760536999442,525,26,male,True
559,118.0,25,F,down,0.7956010999623686,0.5126100301309009,,experiment,emotion,2.0,,,,1597.1093351999298,525,26,male,True
560,136.0,25,M,up,0.8859189001377672,0.7889333533486319,,experiment,emotion,2.0,,,,1598.9759309999645,525,26,male,True
561,127.0,25,M,up,0.6664401998277754,1.2790122434189877,,experiment,emotion,2.0,,,,1601.4425077999476,525,26,male,True
562,109.0,25,M,down,0.5031928999815136,1.695346214813068,,experiment,emotion,2.0,,,,1604.075753299985,525,26,male,True
563,109.0,25,M,down,0.5819647000171244,0.7063161084532079,,experiment,emotion,2.0,,,,1605.559016100131,525,26,male,True
564,127.0,25,M,up,0.7203039000742137,1.0008074803925455,,experiment,emotion,2.0,,,,1607.425634100102,525,26,male,True
565,136.0,25,F,up,0.7140838000923395,1.9343826257078816,,experiment,emotion,2.0,,,,1610.3588672000917,525,26,male,True
566,136.0,25,F,down,0.9601181000471116,0.3181160673888471,,experiment,emotion,2.0,,,,1611.658815900097,525,26,male,True
567,109.0,25,M,down,0.5521289999596775,1.947218931509161,,experiment,emotion,2.0,,,,1614.842005399987,525,26,male,True
568,136.0,25,F,down,0.6136932999361306,1.817609622624233,,experiment,emotion,2.0,,,,1617.4752481000032,525,26,male,True
569,118.0,25,F,down,0.6737473998218775,0.3006184176269558,,experiment,emotion,2.0,,,,1618.675186800072,525,26,male,True
570,127.0,25,F,up,0.7757379000540823,0.6996937943833266,,experiment,emotion,2.0,,,,1620.3251712000929,525,26,male,True
571,118.0,25,M,up,0.6958836000412703,1.1864651081599973,,experiment,emotion,2.0,,,,1622.5750406000298,525,26,male,True
572,109.0,25,F,down,0.70963259995915,0.970433976942813,,experiment,emotion,2.0,,,,1624.5083244000562,525,26,male,True
573,127.0,25,F,up,1.573064299998805,1.3306584191356106,,experiment,emotion,2.0,,,,1626.824888400035,525,26,male,True
574,118.0,25,F,down,1.180832700105384,1.5109521273618534,,experiment,emotion,2.0,,,,1630.175131099997,525,26,male,True
575,127.0,25,M,down,0.8698984999209642,0.8275126919879159,,experiment,emotion,2.0,,,,1632.4580365000293,525,26,male,True
576,109.0,25,M,down,0.7343436998780817,1.8200751909172856,,experiment,emotion,2.0,,,,1635.4245923999697,525,26,male,True
577,136.0,25,F,up,0.5851316000334918,1.9155801493197464,,experiment,emotion,2.0,,,,1638.3578057000414,525,26,male,True
578,127.0,25,M,up,0.6871720000635833,1.139363504778849,,experiment,emotion,2.0,,,,1640.3577537999954,525,26,male,True
579,136.0,25,F,up,0.6071597998961806,1.776099333171491,,experiment,emotion,2.0,,,,1643.0908467001282,525,26,male,True
580,109.0,25,M,down,0.7713176000397652,0.6085515043701597,,experiment,emotion,2.0,,,,1644.557611900149,525,26,male,True
581,118.0,25,M,down,0.5334706001449376,1.7514046443750364,,experiment,emotion,2.0,,,,1647.3574685000349,525,26,male,True
582,0.0866732772881819,25,up,up,0.6526006998028606,0.6562466612711655,,experiment,cRDM,2.0,,,,1652.4073276999409,525,26,male,True
583,0.0866732772881819,25,up,up,0.5580325000919402,0.8570197140209266,,experiment,cRDM,2.0,,,,1654.1739056999795,525,26,male,True
584,0.0866732772881819,25,down,down,0.3838341999799013,1.003852502647684,,experiment,cRDM,2.0,,,,1655.9905050001107,525,26,male,True
585,0.0866732772881819,25,down,down,0.4531702999956906,1.3124752796544836,,experiment,cRDM,2.0,,,,1657.973728599958,525,26,male,True
586,0.0866732772881819,25,up,up,0.539306600112468,1.8286300492569776,,experiment,cRDM,2.0,,,,1660.5236710000318,525,26,male,True
587,0.0866732772881819,25,down,down,0.5853451997973025,1.1917297202364767,,experiment,cRDM,2.0,,,,1662.523580300156,525,26,male,True
588,0.0866732772881819,25,up,up,0.5984704999718815,0.463254613105941,,experiment,cRDM,2.0,,,,1663.8235381999984,525,26,male,True
589,0.0866732772881819,25,up,up,0.6741029999684542,0.5655065849769518,,experiment,cRDM,2.0,,,,1665.256821300136,525,26,male,True
590,0.0866732772881819,25,down,up,0.6521375998854637,1.6070546390053175,,experiment,cRDM,2.0,,,,1667.8067491000984,525,26,male,True
591,0.0866732772881819,25,down,down,0.5873328000307083,1.7366502316192156,,experiment,cRDM,2.0,,,,1670.4566220000852,525,26,male,True
592,0.0866732772881819,25,down,down,0.7830976000986993,1.9384954296095305,,experiment,cRDM,2.0,,,,1673.239824099932,525,26,male,True
593,0.0866732772881819,25,down,down,0.4974857999477535,1.4696170839767126,,experiment,cRDM,2.0,,,,1675.756428499939,525,26,male,True
594,0.0866732772881819,25,down,up,0.4649209000635892,1.3601002963530886,,experiment,cRDM,2.0,,,,1677.8730061999522,525,26,male,True
595,0.0866732772881819,25,down,down,0.7350022001191974,1.76633317602299,,experiment,cRDM,2.0,,,,1680.372902699979,525,26,male,True
596,0.0866732772881819,25,up,up,1.0190713999327272,0.5010021587914908,,experiment,cRDM,2.0,,,,1681.8728575999849,525,26,male,True
597,0.0866732772881819,25,up,down,0.6544387999456376,0.5845682402003016,,experiment,cRDM,2.0,,,,1683.7394584000576,525,26,male,True
598,0.0866732772881819,25,up,up,0.6378442000132054,0.5086054282873356,,experiment,cRDM,2.0,,,,1685.1560846001375,525,26,male,True
599,0.0866732772881819,25,up,up,0.6857091998681426,0.7373307804603404,,experiment,cRDM,2.0,,,,1686.7892162001226,525,26,male,True
600,0.0866732772881819,25,down,down,1.0522819000761956,0.4442447603476098,,experiment,cRDM,2.0,,,,1688.1726271000225,525,26,male,True
601,0.0866732772881819,25,up,up,0.6493796000722796,1.0228613051921698,,experiment,cRDM,2.0,,,,1690.522552000126,525,26,male,True
602,0.0866732772881819,25,up,down,0.7743953000754118,1.204264156024271,,experiment,cRDM,2.0,,,,1692.6224827000406,525,26,male,True
603,0.0866732772881819,25,down,down,0.7418299000710249,1.4776617617216712,,experiment,cRDM,2.0,,,,1695.1390470000915,525,26,male,True
604,0.0866732772881819,25,up,down,0.844951800070703,1.0079377108030276,,experiment,cRDM,2.0,,,,1697.138971599983,525,26,male,True
605,0.0866732772881819,25,down,down,0.6027305000461638,1.5808151657047016,,experiment,cRDM,2.0,,,,1699.8221919999924,525,26,male,True
606,0.0866732772881819,25,down,down,0.5764576999936253,1.0698095731934636,,experiment,cRDM,2.0,,,,1701.7554631000385,525,26,male,True
607,0.0866732772881819,25,up,up,0.6364984000101686,1.149744143101148,,experiment,cRDM,2.0,,,,1703.7553924999663,525,26,male,True
608,0.0866732772881819,25,up,up,0.6726005000527948,0.457281498748682,,experiment,cRDM,2.0,,,,1705.1053470999468,525,26,male,True
609,0.0866732772881819,25,down,up,0.6879930000286549,1.0404796104000582,,experiment,cRDM,2.0,,,,1707.0719286000822,525,26,male,True
610,0.0866732772881819,25,up,up,0.4560587999876588,1.5970663919449677,,experiment,cRDM,2.0,,,,1709.6218481000978,525,26,male,True
611,0.0866732772881819,25,down,down,0.454126900061965,0.9943538010564372,,experiment,cRDM,2.0,,,,1711.3217893000692,525,26,male,True
612,0.0866732772881819,25,down,down,0.730186500120908,0.5359058593823458,,experiment,cRDM,2.0,,,,1712.5717462000905,525,26,male,True
613,0.0866732772881819,25,down,up,0.816599799785763,0.5761890792744804,,experiment,cRDM,2.0,,,,1714.1383255999535,525,26,male,True
614,0.0866732772881819,25,up,up,0.4866329999640584,0.7274140315751332,,experiment,cRDM,2.0,,,,1715.938273800071,525,26,male,True
615,0.0866732772881819,25,up,up,0.6018546000123024,1.7020347764732378,,experiment,cRDM,2.0,,,,1718.388035000069,525,26,male,True
616,0.0866732772881819,25,up,up,0.5055015000980347,1.0558237343183048,,experiment,cRDM,2.0,,,,1720.321444200119,525,26,male,True
617,0.0866732772881819,25,down,up,0.6351916999556124,0.5611942389586506,,experiment,cRDM,2.0,,,,1721.6547298999503,525,26,male,True
618,0.0866732772881819,25,down,up,0.5696267001330853,1.3581309749695254,,experiment,cRDM,2.0,,,,1723.9213090999983,525,26,male,True
619,0.0866732772881819,25,up,up,0.9883175999857484,1.1447980988231414,,experiment,cRDM,2.0,,,,1725.9045965000987,525,26,male,True
620,0.0866732772881819,25,down,up,0.5237896000035107,1.413488430735506,,experiment,cRDM,2.0,,,,1728.571130400058,525,26,male,True
621,0.0866732772881819,25,up,up,0.5645137999672443,0.8981474800544405,,experiment,cRDM,2.0,,,,1730.2544104000551,525,26,male,True
622,0.0866732772881819,25,up,up,0.6855651999358088,1.3641012539677198,,experiment,cRDM,2.0,,,,1732.4543515001424,525,26,male,True
623,0.0866732772881819,25,up,up,0.7185384000185877,1.8030350014765508,,experiment,cRDM,2.0,,,,1735.187442400027,525,26,male,True
624,0.0866732772881819,25,down,up,0.7275302999187261,1.5214290167823634,,experiment,cRDM,2.0,,,,1737.6874109001365,525,26,male,True
625,0.0866732772881819,25,down,down,0.6988142998889089,0.7275643537938672,,experiment,cRDM,2.0,,,,1739.4041212000884,525,26,male,True
626,0.0866732772881819,25,up,down,0.5236296998336911,0.9727578690610168,,experiment,cRDM,2.0,,,,1741.337336699944,525,26,male,True
627,0.0866732772881819,25,down,down,0.5789511001203209,0.3823934487114312,,experiment,cRDM,2.0,,,,1742.5039975999389,525,26,male,True
628,0.0866732772881819,25,down,down,0.6170330999884754,1.312390735297336,,experiment,cRDM,2.0,,,,1744.6538756999653,525,26,male,True
629,0.0866732772881819,25,up,up,0.615976600209251,1.7705754426774598,,experiment,cRDM,2.0,,,,1747.2869921999518,525,26,male,True
630,0.0866732772881819,25,up,down,0.9892289000563323,1.0972639795917132,,experiment,cRDM,2.0,,,,1749.2537169000134,525,26,male,True
631,0.0866732772881819,25,down,down,0.6126242000609636,1.7092500959345105,,experiment,cRDM,2.0,,,,1752.2202749999706,525,26,male,True
632,0.0866732772881819,25,up,down,0.7793380999937654,1.1049711293393811,,experiment,cRDM,2.0,,,,1754.203569300007,525,26,male,True
633,0.0866732772881819,25,down,down,0.6821001002099365,0.5923782068829554,,experiment,cRDM,2.0,,,,1755.8367882000748,525,26,male,True
634,0.0866732772881819,25,down,down,0.5939285999629647,1.442415820450252,,experiment,cRDM,2.0,,,,1758.2200506001243,525,26,male,True
635,0.0866732772881819,25,down,down,0.778962800046429,1.84231814179757,,experiment,cRDM,2.0,,,,1760.919944100082,525,26,male,True
636,0.0866732772881819,25,up,up,0.6294563999399543,0.5178969955252416,,experiment,cRDM,2.0,,,,1762.4864896000363,525,26,male,True
637,0.0866732772881819,25,up,up,0.6073876998852938,0.8661185029795577,,experiment,cRDM,2.0,,,,1764.236518900143,525,26,male,True
638,0.0866732772881819,25,down,up,1.050861299969256,0.5281785010438104,,experiment,cRDM,2.0,,,,1765.6531193000264,525,26,male,True
639,0.0866732772881819,25,down,up,0.8386479001492262,0.636314154233109,,experiment,cRDM,2.0,,,,1767.5862609001342,525,26,male,True
640,0.0866732772881819,25,up,up,0.5888994000852108,1.1408115076989127,,experiment,cRDM,2.0,,,,1769.8360113000963,525,26,male,True
641,0.0866732772881819,25,up,up,0.5940254000015557,0.5673398990157228,,experiment,cRDM,2.0,,,,1771.25290530012,525,26,male,True
642,0.0866732772881819,25,up,up,0.6965088001452386,1.917579224418787,,experiment,cRDM,2.0,,,,1774.0194629000034,525,26,male,True
643,0.0866732772881819,25,up,up,0.6466002000961453,1.3466698868601452,,experiment,cRDM,2.0,,,,1776.3193739000708,525,26,male,True
644,0.0866732772881819,25,up,up,0.955913299927488,0.4181130997913462,,experiment,cRDM,2.0,,,,1777.635999500053,525,26,male,True
645,0.0866732772881819,25,down,down,0.5215918999165297,1.3986498309917277,,experiment,cRDM,2.0,,,,1780.2525639000814,525,26,male,True
646,0.0866732772881819,25,down,up,0.9107207998167725,0.4325545282924783,,experiment,cRDM,2.0,,,,1781.469180900138,525,26,male,True
647,0.0866732772881819,25,up,up,0.4952378000598401,1.7357338860180265,,experiment,cRDM,2.0,,,,1784.3856707999948,525,26,male,True
648,0.0866732772881819,25,down,down,0.6165578002110124,0.8056165164140883,,experiment,cRDM,2.0,,,,1785.9523561999667,525,26,male,True
649,0.0866732772881819,25,down,down,0.7529651999939233,0.3316010712402308,,experiment,cRDM,2.0,,,,1787.1689393999986,525,26,male,True
650,0.0866732772881819,25,down,down,0.5226845000870526,1.4808198360013929,,experiment,cRDM,2.0,,,,1789.6522250000853,525,26,male,True
651,0.0866732772881819,25,up,up,0.5847950999159366,1.8227245344939809,,experiment,cRDM,2.0,,,,1792.2521244999953,525,26,male,True
652,0.0866732772881819,25,down,down,0.66784040001221,1.6529464599123742,,experiment,cRDM,2.0,,,,1794.7520681000317,525,26,male,True
653,0.0866732772881819,25,down,down,0.7473609999287874,1.9820068917701623,,experiment,cRDM,2.0,,,,1797.6686011999846,525,26,male,True
654,0.0866732772881819,25,down,down,0.5737013998441398,1.3958193388671416,,experiment,cRDM,2.0,,,,1800.0852058001328,525,26,male,True
655,0.0866732772881819,25,up,up,0.6781722998712212,1.0899343275481206,,experiment,cRDM,2.0,,,,1802.001773600001,525,26,male,True
656,0.0866732772881819,25,up,up,0.84956040000543,1.9911296111255383,,experiment,cRDM,2.0,,,,1804.918348700041,525,26,male,True
657,0.0866732772881819,25,down,down,0.5593406998086721,1.3622619430578606,,experiment,cRDM,2.0,,,,1807.4015649999487,525,26,male,True
658,0.0866732772881819,25,up,up,0.6114266999065876,1.861138248278692,,experiment,cRDM,2.0,,,,1810.1014752001504,525,26,male,True
659,0.0866732772881819,25,down,up,0.9581720000132918,1.8026808224453572,,experiment,cRDM,2.0,,,,1812.7847319000864,525,26,male,True
660,0.0866732772881819,25,up,down,0.6975722000934184,0.4391659522788315,,experiment,cRDM,2.0,,,,1814.4513183000963,525,26,male,True
661,0.0866732772881819,25,up,up,0.7171554998494685,1.7580117428533164,,experiment,cRDM,2.0,,,,1817.167763900012,525,26,male,True
662,136.0,25,M,up,0.6204170000273734,0.9345397331746472,,experiment,emotion,3.0,,,,1826.967511099996,525,26,male,True
663,109.0,25,M,down,0.7571386001072824,1.0834730372303698,,experiment,emotion,3.0,,,,1828.950779499952,525,26,male,True
664,127.0,25,F,down,0.9918446000665426,1.2456878675545933,,experiment,emotion,3.0,,,,1831.234054800123,525,26,male,True
665,136.0,25,F,up,0.6063064001500607,0.4963692151456155,,experiment,emotion,3.0,,,,1833.0006250001024,525,26,male,True
666,127.0,25,M,up,0.7507114000618458,1.694443247464834,,experiment,emotion,3.0,,,,1835.5672057999764,525,26,male,True
667,118.0,25,F,up,0.6300741001032293,0.5364873824158224,,experiment,emotion,3.0,,,,1837.13380099996,525,26,male,True
668,109.0,25,M,up,0.745466599939391,0.7777995723863986,,experiment,emotion,3.0,,,,1838.800434099976,525,26,male,True
669,118.0,25,M,up,1.2709695999510586,1.6458491542474425,,experiment,emotion,3.0,,,,1841.4669777001252,525,26,male,True
670,136.0,25,F,up,0.7977039001416415,1.7300723029430516,,experiment,emotion,3.0,,,,1844.7501862000208,525,26,male,True
671,118.0,25,F,up,0.8424443998374045,1.3199606978026763,,experiment,emotion,3.0,,,,1847.1334291000385,525,26,male,True
672,127.0,25,F,up,0.8535337999928743,1.6811362741376972,,experiment,emotion,3.0,,,,1849.93334280001,525,26,male,True
673,136.0,25,F,up,0.8953722999431193,1.9037468114632163,,experiment,emotion,3.0,,,,1852.966534700012,525,26,male,True
674,127.0,25,F,up,0.8320391001179814,0.5735443640334931,,experiment,emotion,3.0,,,,1854.6998302000572,525,26,male,True
675,109.0,25,F,down,0.5980838998220861,1.462056535620285,,experiment,emotion,3.0,,,,1857.2828734000211,525,26,male,True
676,118.0,25,M,down,0.5741304999683052,1.6986825552923124,,experiment,emotion,3.0,,,,1859.882759700064,525,26,male,True
677,109.0,25,M,down,0.9173736998345704,1.821822008915872,,experiment,emotion,3.0,,,,1862.5495240001476,525,26,male,True
678,136.0,25,M,down,0.5797900999896228,0.9682025746847244,,experiment,emotion,3.0,,,,1864.7161415000448,525,26,male,True
679,109.0,25,M,down,0.7575544000137597,0.8343228643269291,,experiment,emotion,3.0,,,,1866.3994094000664,525,26,male,True
680,127.0,25,F,up,1.1902829001192003,1.8958176699872944,,experiment,emotion,3.0,,,,1869.3326197001152,525,26,male,True
681,127.0,25,M,up,0.9824814000166951,1.58413442903608,,experiment,emotion,3.0,,,,1872.3824148999995,525,26,male,True
682,118.0,25,M,up,0.7798166000284255,1.0548708098638322,,experiment,emotion,3.0,,,,1874.699092300143,525,26,male,True
683,118.0,25,F,down,0.8106913999654353,1.2489462593239429,,experiment,emotion,3.0,,,,1876.9822130000684,525,26,male,True
684,109.0,25,M,up,0.6602897997945547,0.3550149508714683,,experiment,emotion,3.0,,,,1878.415615899954,525,26,male,True
685,136.0,25,F,down,0.7538449000567198,0.8269799029290519,,experiment,emotion,3.0,,,,1880.1820875999983,525,26,male,True
686,127.0,25,F,down,1.0100840998347849,1.4555659700199588,,experiment,emotion,3.0,,,,1882.648796000052,525,26,male,True
687,109.0,25,M,down,0.6798620999325067,0.6855476768730431,,experiment,emotion,3.0,,,,1884.6320434999648,525,26,male,True
688,136.0,25,M,up,0.690249300096184,0.5249976743830963,,experiment,emotion,3.0,,,,1886.0986880001144,525,26,male,True
689,136.0,25,F,up,0.988249500049278,1.6312693463544494,,experiment,emotion,3.0,,,,1888.6986124000975,525,26,male,True
690,118.0,25,M,down,0.8734291000291705,1.294957012098375,,experiment,emotion,3.0,,,,1891.248475300148,525,26,male,True
691,109.0,25,F,down,0.728815000038594,0.4336730885477559,,experiment,emotion,3.0,,,,1892.8150967999827,525,26,male,True
692,118.0,25,F,up,0.9268795000389218,1.3963202525680645,,experiment,emotion,3.0,,,,1895.2150063000156,525,26,male,True
693,127.0,25,F,up,0.7493163000326604,1.9096440342595056,,experiment,emotion,3.0,,,,1898.331533699995,525,26,male,True
694,109.0,25,M,down,0.7930666001047939,0.4158163871556222,,experiment,emotion,3.0,,,,1899.7648259999696,525,26,male,True
695,136.0,25,M,up,0.7291511001531035,1.3246361087696437,,experiment,emotion,3.0,,,,1902.1647401000373,525,26,male,True
696,127.0,25,M,down,0.722833100007847,0.8219551380994947,,experiment,emotion,3.0,,,,1903.9980449001305,525,26,male,True
697,136.0,25,F,up,0.6397709001321346,0.6826392495681239,,experiment,emotion,3.0,,,,1905.6811206000857,525,26,male,True
698,109.0,25,F,down,0.7229882997926325,0.6608656703137552,,experiment,emotion,3.0,,,,1907.2478972000536,525,26,male,True
699,127.0,25,M,down,0.6150855999439955,1.305564829548494,,experiment,emotion,3.0,,,,1909.547786799958,525,26,male,True
700,118.0,25,F,down,0.6291904000099748,1.5060866979914265,,experiment,emotion,3.0,,,,1911.9477031999268,525,26,male,True
701,118.0,25,M,down,0.8672759998589754,1.6866541458422246,,experiment,emotion,3.0,,,,1914.547608199995,525,26,male,True
702,127.0,25,M,down,1.1361394999548793,1.6010089196355712,,experiment,emotion,3.0,,,,1917.2807257000825,525,26,male,True
703,136.0,25,M,up,0.5178264998830855,0.9648493766927116,,experiment,emotion,3.0,,,,1919.6640638001263,525,26,male,True
704,118.0,25,F,up,0.951613700017333,1.847455184739762,,experiment,emotion,3.0,,,,1922.297333399998,525,26,male,True
705,109.0,25,F,down,1.105005299905315,1.48027487835749,,experiment,emotion,3.0,,,,1925.01388079999,525,26,male,True
706,109.0,25,M,down,0.855532200075686,0.7812295360738433,,experiment,emotion,3.0,,,,1927.180357299978,525,26,male,True
707,118.0,25,F,down,0.8618575998116285,1.5532066357231118,,experiment,emotion,3.0,,,,1929.84702700004,525,26,male,True
708,136.0,25,F,up,0.6808931999839842,1.0142153322395098,,experiment,emotion,3.0,,,,1931.9969864999875,525,26,male,True
709,127.0,25,M,up,0.6583704999648035,1.607307173660987,,experiment,emotion,3.0,,,,1934.563531700056,525,26,male,True
710,109.0,25,M,down,0.6117344999220222,0.8248388237492801,,experiment,emotion,3.0,,,,1936.3301689999644,525,26,male,True
711,136.0,25,F,down,0.6555498000234365,0.5409672203194613,,experiment,emotion,3.0,,,,1937.76339330012,525,26,male,True
712,127.0,25,M,up,0.9641569999512284,0.5514392053033317,,experiment,emotion,3.0,,,,1939.2467340999283,525,26,male,True
713,127.0,25,F,up,0.7002524000126868,0.9597258615330492,,experiment,emotion,3.0,,,,1941.4466345000544,525,26,male,True
714,109.0,25,F,down,0.7423558998852968,1.1877862671340738,,experiment,emotion,3.0,,,,1943.596551400144,525,26,male,True
715,118.0,25,F,down,0.722469300031662,1.4929216635380904,,experiment,emotion,3.0,,,,1946.096442000009,525,26,male,True
716,136.0,25,M,up,0.8338845001999289,0.6327440842045913,,experiment,emotion,3.0,,,,1947.7130567000715,525,26,male,True
717,118.0,25,M,up,0.7059637000784278,0.534156555158877,,experiment,emotion,3.0,,,,1949.3628869999663,525,26,male,True
718,118.0,25,F,up,0.7789634999353439,1.5766328840560326,,experiment,emotion,3.0,,,,1951.9129262000788,525,26,male,True
719,118.0,25,F,up,0.5543899000622332,0.8188067893482744,,experiment,emotion,3.0,,,,1953.7794968001544,525,26,male,True
720,136.0,25,M,up,0.6944812999572605,0.9180299095990389,,experiment,emotion,3.0,,,,1955.5294689000584,525,26,male,True
721,127.0,25,M,,,0.3634621269024959,,experiment,emotion,3.0,,,,1956.879355299985,525,26,male,True
722,109.0,25,M,down,0.6201020001899451,1.7756295671585822,,experiment,emotion,3.0,,,,1961.3458875999784,525,26,male,True
723,109.0,25,M,up,0.6231159998569638,1.967562385657662,,experiment,emotion,3.0,,,,1964.19577160012,525,26,male,True
724,127.0,25,M,up,0.8054726000409573,1.0244796744446527,,experiment,emotion,3.0,,,,1966.112401599996,525,26,male,True
725,136.0,25,F,up,0.7329598998185247,1.9322563211404804,,experiment,emotion,3.0,,,,1969.2789183000568,525,26,male,True
726,136.0,25,F,up,0.9140049999114126,0.4437706136922939,,experiment,emotion,3.0,,,,1970.7288581000173,525,26,male,True
727,109.0,25,M,down,0.4538018000312149,1.4531859948471342,,experiment,emotion,3.0,,,,1973.3620790001005,525,26,male,True
728,136.0,25,F,down,0.7565178000368178,1.6691834449544731,,experiment,emotion,3.0,,,,1975.7453501999844,525,26,male,True
729,118.0,25,F,down,0.5969859999604523,0.7274898744600504,,experiment,emotion,3.0,,,,1977.5119479000568,525,26,male,True
730,127.0,25,F,down,0.8320235998835415,1.809046997708642,,experiment,emotion,3.0,,,,1980.211886000121,525,26,male,True
731,118.0,25,M,down,0.9954331999178976,0.3044593610551033,,experiment,emotion,3.0,,,,1981.6284451000392,525,26,male,True
732,109.0,25,F,up,0.6724886000156403,1.6287417161683022,,experiment,emotion,3.0,,,,1984.528376400005,525,26,male,True
733,127.0,25,F,up,0.6020125998184085,1.7836155731520125,,experiment,emotion,3.0,,,,1987.2449140001556,525,26,male,True
734,118.0,25,F,up,0.9543159999884664,0.529787997470988,,experiment,emotion,3.0,,,,1988.6615468000527,525,26,male,True
735,127.0,25,M,down,0.6858148002065718,1.5369837485552853,,experiment,emotion,3.0,,,,1991.4280944999773,525,26,male,True
736,109.0,25,M,down,0.799959999974817,0.585462112721341,,experiment,emotion,3.0,,,,1992.9779229001144,525,26,male,True
737,136.0,25,F,up,1.2166067999787629,1.9550782095944883,,experiment,emotion,3.0,,,,1996.0112733999267,525,26,male,True
738,127.0,25,M,up,1.0924074000213295,1.2413975765447014,,experiment,emotion,3.0,,,,1998.7445036999416,525,26,male,True
739,136.0,25,F,up,1.3564455001614988,0.444530265685953,,experiment,emotion,3.0,,,,2000.544427700108,525,26,male,True
740,109.0,25,M,down,1.0695278998464346,1.4662615665929923,,experiment,emotion,3.0,,,,2003.644348199945,525,26,male,True
741,118.0,25,M,down,0.6483893000986427,0.7419405260422742,,experiment,emotion,3.0,,,,2005.7275787000544,525,26,male,True
742,0.0866732772881819,25,up,up,0.6379909999668598,1.513204661015625,,experiment,cRDM,3.0,,,,2011.6609581001103,525,26,male,True
743,0.0866732772881819,25,up,up,0.788533000042662,0.7159634546655342,,experiment,cRDM,3.0,,,,2013.2773376000116,525,26,male,True
