,stimLvl,stimTime,rand,response,rt,precedingITI,trialNumber,trialType,stimuli,block,estIntens,estThres,estSlope,trialStart,subject,age,gender,headRest
0,0.9,100,down,,,0.730821758793722,,introTrial,cRDM,,,,,163.76487360001192,190,26,male,True
1,150.0,100,F,,,1.9725199579959052,,introTrial,emotion,,,,,169.68135490000714,190,26,male,True
2,0.9,25,down,down,0.8639281000068877,1.636434722843493,,tutorial,cRDM,,,,,209.51320889999624,190,26,male,True
3,0.9,25,up,up,0.4543760000087786,0.5816802098563201,,tutorial,cRDM,,,,,211.22976650000783,190,26,male,True
4,0.9,25,up,up,0.5573601000069175,0.7650613187422575,,tutorial,cRDM,,,,,212.72973769999223,190,26,male,True
5,0.9,25,up,up,0.5117592999886256,1.7404291207410545,,tutorial,cRDM,,,,,215.296353200014,190,26,male,True
6,0.9,25,down,down,0.4002774999826215,0.6853334136650642,,tutorial,cRDM,,,,,216.7629055000143,190,26,male,True
7,0.9,25,down,down,0.6083343000209425,1.6890117707186023,,tutorial,cRDM,,,,,219.16281239999807,190,26,male,True
8,0.9,25,down,up,0.3505128000106197,1.4211260702410646,,tutorial,cRDM,,,,,221.46274099999573,190,26,male,True
9,0.9,25,up,up,0.4981614999996964,1.872649409264579,,tutorial,cRDM,,,,,224.04598610001267,190,26,male,True
10,0.9,25,down,down,0.422844900022028,1.0020111657242003,,tutorial,cRDM,,,,,225.8292739999888,190,26,male,True
11,0.9,25,up,up,0.464312099997187,1.379697583679487,,tutorial,cRDM,,,,,227.8958111999964,190,26,male,True
12,200.0,25,M,up,0.8344501999963541,0.3130617383316663,,tutorial,emotion,,,,,233.24570780000067,190,26,male,True
13,200.0,25,M,up,0.4558157999999821,0.9566099493464622,,tutorial,emotion,,,,,235.31230089999733,190,26,male,True
14,200.0,25,F,up,0.4522469000075944,0.9152487213581864,,tutorial,emotion,,,,,236.97887180000544,190,26,male,True
15,0.0,25,F,down,0.4001963000046089,0.9334234718596324,,tutorial,emotion,,,,,238.66215300001204,190,26,male,True
16,0.0,25,M,down,0.500104700011434,1.789687317799623,,tutorial,emotion,,,,,241.162038200011,190,26,male,True
17,200.0,25,F,up,0.4631825000105891,1.6086178853771262,,tutorial,emotion,,,,,243.56194670000696,190,26,male,True
18,0.0,25,M,down,0.7388086999999359,1.3602009467102754,,tutorial,emotion,,,,,245.64525030000368,190,26,male,True
19,200.0,25,M,up,0.5166087999823503,0.8095773782962159,,tutorial,emotion,,,,,247.47852539998712,190,26,male,True
20,0.0,25,F,down,0.3835244000074453,1.339815107528927,,tutorial,emotion,,,,,249.62842910000472,190,26,male,True
21,0.0,25,F,down,0.4166847999731544,0.5275732279831471,,tutorial,emotion,,,,,250.86206839999068,190,26,male,True
22,0.29,25,up,up,0.4002539000066463,1.4987056493042004,,psi_staircase_training,cRDM,,0.25,0.2569312402994632,0.105,260.0113257000048,190,26,male,True
23,0.25,25,up,up,0.4815248999802861,1.3351152559645143,,psi_staircase_training,cRDM,,0.2191026665318312,0.2260132002683492,0.1046863203387393,262.0445952999871,190,26,male,True
24,0.21,25,down,down,0.4496202000009361,0.4284575431723794,,psi_staircase_training,cRDM,,0.1900540959403307,0.1968497961554001,0.1029467298424999,263.24451330001466,190,26,male,True
25,0.18,25,down,down,0.4002411999972537,1.1681962663468326,,psi_staircase_training,cRDM,,0.1635257589279754,0.1701521334256793,0.1003816477568649,265.1278079999902,190,26,male,True
26,0.15,25,up,up,0.5404470000066794,0.8018748644839315,,psi_staircase_training,cRDM,,0.1401895574244936,0.1466013351187503,0.0971307628663642,266.6277687000111,190,26,male,True
27,0.13,25,down,down,0.4173363000154495,1.2067809332003585,,psi_staircase_training,cRDM,,0.1198760602145479,0.1260554767618333,0.0936107694196103,268.6443205999967,190,26,male,True
28,0.11,25,up,up,0.4682009000098333,0.7666341586534022,,psi_staircase_training,cRDM,,0.1025773523696548,0.1084910344569865,0.0895852101993795,270.11094340001,190,26,male,True
29,0.09,25,down,down,0.4170052999979816,1.45448533736651,,psi_staircase_training,cRDM,,0.087844325958594,0.0934818215320969,0.0854013148647635,272.294218199997,190,26,male,True
30,0.08,25,down,down,0.4923264000099152,1.5228658704648643,,psi_staircase_training,cRDM,,0.0751852092118086,0.0805556301471181,0.0813554535472043,274.51080399999046,190,26,male,True
31,0.06,25,up,up,0.618344899994554,0.7450926980121083,,psi_staircase_training,cRDM,,0.0644790391168514,0.0695422244606275,0.0767012018235253,276.0107444000023,190,26,male,True
32,0.06,25,down,down,0.4214929000008851,1.6965841073503267,,psi_staircase_training,cRDM,,0.055125276742187,0.0599443659720746,0.0730034376643068,278.6106476999994,190,26,male,True
33,0.05,25,down,down,0.4538618999940809,1.080793072269631,,psi_staircase_training,cRDM,,0.0472535008492138,0.0517268983012455,0.0677666207157333,280.3772774999961,190,26,male,True
34,0.04,25,down,up,0.6439422000257764,1.3641290535733344,,psi_staircase_training,cRDM,,0.0405066760015593,0.0446510519272908,0.0627823381387459,282.4771687999892,190,26,male,True
35,0.08,25,up,down,0.6006782999902498,0.979948075738069,,psi_staircase_training,cRDM,,0.0620922103127578,0.0672886496585748,0.0787198405677893,284.36043460000656,190,26,male,True
36,0.12,25,up,up,0.5834707999892998,1.1133327726556728,,psi_staircase_training,cRDM,,0.0924264076217731,0.0998381559535002,0.1122791219475689,286.3436674000113,190,26,male,True
37,0.12,25,down,down,0.4431344999757129,1.928346073936458,,psi_staircase_training,cRDM,,0.0833514232489903,0.0904901652020087,0.1081434018562266,289.1269355000113,190,26,male,True
38,0.11,25,down,down,0.3175471000140533,1.9079850812806407,,psi_staircase_training,cRDM,,0.0763380100370047,0.0831491449345461,0.1031805468203481,291.7434867999982,190,26,male,True
39,0.08,25,up,down,0.3838537999836262,1.6257496312176234,,psi_staircase_training,cRDM,,0.0706355028724314,0.0771212752244425,0.0982516934254745,294.0600511000084,190,26,male,True
40,0.13,25,up,up,0.5974225999962073,1.2277758783010482,,psi_staircase_training,cRDM,,0.0899316917773212,0.0964683712439469,0.0990228753212976,295.9767097000149,190,26,male,True
41,0.12,25,up,up,0.5405630999885034,1.252051075569514,,psi_staircase_training,cRDM,,0.0847901507004568,0.0909182938390167,0.0928340386061369,298.1099196000141,190,26,male,True
42,0.12,25,up,up,0.5385521000134759,1.2446168086040317,,psi_staircase_training,cRDM,,0.0808699252278854,0.086600452567456,0.0868106348443149,300.17658500000834,190,26,male,True
43,0.12,25,down,down,0.3338350999983959,1.5869171291809254,,psi_staircase_training,cRDM,,0.078131189480021,0.083460879189748,0.0807384241987206,302.5764607999881,190,26,male,True
44,0.1,25,down,down,0.421135000011418,1.975706845171104,,psi_staircase_training,cRDM,,0.0763103301740926,0.0812469732447812,0.0747842377449304,305.242977899994,190,26,male,True
45,0.07,25,down,down,0.350523000000976,1.396555564483438,,psi_staircase_training,cRDM,,0.0734424646789246,0.0782284221728281,0.0725015314934,307.3428889999923,190,26,male,True
46,0.07,25,up,up,0.4676525999966543,1.7314881423431747,,psi_staircase_training,cRDM,,0.0677259911708131,0.0731360106769866,0.0819553245314839,309.7594955000095,190,26,male,True
47,0.07,25,up,up,0.3838451999763492,1.3366552021325613,,psi_staircase_training,cRDM,,0.0619989822988565,0.0679454861054758,0.0900824199881472,311.8427277999872,190,26,male,True
48,0.07,25,down,down,0.909511100006057,0.5062696010325661,,psi_staircase_training,cRDM,,0.0565903553113485,0.0629519877320684,0.0963711219516258,313.0426970999979,190,26,male,True
49,0.07,25,down,down,0.6541418999840971,0.6933998008020887,,psi_staircase_training,cRDM,,0.0517294360884392,0.0583718846129122,0.1006251500360868,314.92598090000683,190,26,male,True
50,0.07,25,up,up,0.4381520999886561,1.3704211212644224,,psi_staircase_training,cRDM,,0.0475269066999849,0.0543205785637742,0.1029160027467396,317.2258988000103,190,26,male,True
51,0.07,25,up,up,0.3171774999937042,1.9318593495689735,,psi_staircase_training,cRDM,,0.0439966104607046,0.050827242398212,0.1034759036551953,319.8757844000065,190,26,male,True
52,100.0,25,M,up,0.6997891000064556,1.5274935307026196,,psi_staircase_training,emotion,,100.0,100.0,25.00050000000001,326.059305200004,190,26,male,True
53,55.0,25,M,down,0.5289291999943089,1.5456328656312637,,psi_staircase_training,emotion,,54.7428094675419,54.7428094675419,25.00050000000011,328.6422062999918,190,26,male,True
54,79.0,25,F,down,0.4553214999905322,1.1880039756542509,,psi_staircase_training,emotion,,79.636070985635,79.636070985635,25.713269254886413,330.70880389999365,190,26,male,True
55,103.0,25,F,down,0.4481545000162441,1.5265718189517978,,psi_staircase_training,emotion,,97.61123893914808,97.61123893914808,26.1463337262867,333.04201070001,190,26,male,True
56,127.0,25,M,up,0.4355137999809813,1.8048893280113008,,psi_staircase_training,emotion,,117.15641007867752,117.15641007867752,31.432291447829705,335.658572299988,190,26,male,True
57,116.0,25,F,up,0.6083373000146821,1.7054689976100186,,psi_staircase_training,emotion,,105.03864224082596,105.03864224082596,29.694064005485792,338.1418261000072,190,26,male,True
58,88.0,25,M,down,0.4172876999946311,1.8577752859857783,,psi_staircase_training,emotion,,98.16151255584974,98.16151255584974,27.875884705401127,340.94173650001176,190,26,male,True
59,116.0,25,F,down,0.5330388000002131,0.3753786837992309,,psi_staircase_training,emotion,,103.47850698803556,103.47850698803556,26.16750556784877,342.0750570000091,190,26,male,True
60,130.0,25,F,up,0.6444341999886092,0.5251104154531815,,psi_staircase_training,emotion,,112.6895003383148,112.6895003383148,31.119091853818805,343.49165829998674,190,26,male,True
61,128.0,25,M,down,0.521198500005994,1.050692264918052,,psi_staircase_training,emotion,,108.76163555889023,108.76163555889023,29.38666183888493,345.5249241999991,190,26,male,True
62,138.0,25,F,up,0.4540042000007815,1.7697973689353836,,psi_staircase_training,emotion,,116.92311060607057,116.92311060607057,33.835318298608584,348.15809670000453,190,26,male,True
63,136.0,25,F,up,0.4403672000044025,0.5714462143527501,,psi_staircase_training,emotion,,113.8815927028197,113.8815927028197,32.61516238424653,349.5247743999935,190,26,male,True
64,90.0,25,F,down,0.5693991000007372,1.462134870887014,,psi_staircase_training,emotion,,111.47083904722092,111.47083904722092,31.49836025679498,351.774700799986,190,26,male,True
65,137.0,25,M,up,0.5585334999777842,1.932044989586092,,psi_staircase_training,emotion,,113.70629888887204,113.70629888887204,30.28245619029594,354.62458639999386,190,26,male,True
66,91.0,25,M,down,0.4329568000102881,1.320252641425197,,psi_staircase_training,emotion,,111.93404819883509,111.93404819883509,29.09428566560199,356.84115980000934,190,26,male,True
67,137.0,25,F,up,0.5077010999957565,1.1648153488498043,,psi_staircase_training,emotion,,113.71529747197098,113.71529747197098,27.815053536781317,358.77443580000545,190,26,male,True
68,92.0,25,F,down,0.3501533000089694,0.7562866558717909,,psi_staircase_training,emotion,,112.36248168549264,112.36248168549264,26.61019023579721,360.39104300001054,190,26,male,True
69,93.0,25,M,down,0.3335474999912549,1.279360510232476,,psi_staircase_training,emotion,,113.7951109339498,113.7951109339498,25.329243980253093,362.4409724000143,190,26,male,True
70,136.0,25,M,down,0.4981276000034995,0.6880189621538513,,psi_staircase_training,emotion,,114.95677829756087,114.95677829756087,24.15886868012712,363.890919700003,190,26,male,True
71,145.0,25,M,up,0.498597099998733,1.1675035887484817,,psi_staircase_training,emotion,,119.54049205895949,119.54049205895949,29.36748622587628,365.907495499996,190,26,male,True
72,144.0,25,M,up,0.4807229999860283,1.1016121275005817,,psi_staircase_training,emotion,,118.34123852537664,118.34123852537664,28.23912888995858,367.85737159999553,190,26,male,True
73,94.0,25,F,up,0.4811478999909013,1.7515063854045934,,psi_staircase_training,emotion,,117.344829270498,117.344829270498,27.19507342218176,370.42400319999433,190,26,male,True
74,86.0,25,F,down,0.4629284999973606,1.2039631807812992,,psi_staircase_training,emotion,,113.3472894826736,113.3472894826736,31.34251530680636,372.4572287999909,190,26,male,True
75,142.0,25,F,down,0.5076093999959994,1.275145261454696,,psi_staircase_training,emotion,,114.34611625118023,114.34611625118023,30.4719168323458,374.5405093999871,190,26,male,True
76,148.0,25,M,down,0.4633651000040117,0.8789140079173263,,psi_staircase_training,emotion,,118.2612151548398,118.2612151548398,34.22862850019733,376.2737691999937,190,26,male,True
77,152.0,25,M,up,0.4291394999891054,1.9716219661603185,,psi_staircase_training,emotion,,122.2651577686721,122.2651577686721,37.22774560234845,379.0570047000074,190,26,male,True
78,152.0,25,F,up,0.6451898000086658,1.572066461812457,,psi_staircase_training,emotion,,121.15946889027902,121.15946889027902,36.61323924699533,381.4069187999994,190,26,male,True
79,90.0,25,F,down,0.6713411000091583,0.6971610036698137,,psi_staircase_training,emotion,,120.18067709567208,120.18067709567208,36.013089085547705,383.10684940000647,190,26,male,True
80,153.0,25,M,up,0.4463395999919157,1.9379669841781813,,psi_staircase_training,emotion,,121.10348779066912,121.10348779066912,35.41836742212083,386.0567343000148,190,26,male,True
81,89.0,25,M,up,0.4001696000050287,1.2754287725980171,,psi_staircase_training,emotion,,120.26178008814522,120.26178008814522,34.79560176499309,388.1233493000036,190,26,male,True
82,0.29,25,up,up,0.5756973999959882,1.7192537523525708,,psi_staircase,cRDM,,0.25,0.2569312402994632,0.105,402.239402200008,190,26,male,True
83,0.25,25,up,up,0.5053460999915842,1.4905414704519784,,psi_staircase,cRDM,,0.2191026665318312,0.2260132002683492,0.1046863203387393,404.5727181000111,190,26,male,True
84,0.21,25,down,down,0.4169419000099879,1.6454045948796254,,psi_staircase,cRDM,,0.1900540959403307,0.1968497961554001,0.1029467298424999,406.9892557999992,190,26,male,True
85,0.18,25,down,down,0.4002757999987807,1.802730649570761,,psi_staircase,cRDM,,0.1635257589279754,0.1701521334256793,0.1003816477568649,409.4725357000134,190,26,male,True
86,0.15,25,up,up,0.466629800008377,1.8161570968080507,,psi_staircase,cRDM,,0.1401895574244936,0.1466013351187503,0.0971307628663642,411.9724424000015,190,26,male,True
87,0.13,25,down,down,0.4471525999833829,1.994764406182737,,psi_staircase,cRDM,,0.1198760602145479,0.1260554767618333,0.0936107694196103,414.6889723000058,190,26,male,True
88,0.11,25,up,up,0.4822787999873981,1.948251677019941,,psi_staircase,cRDM,,0.1025773523696548,0.1084910344569865,0.0895852101993795,417.35585210000863,190,26,male,True
89,0.09,25,down,down,0.5773083999811206,0.7859538548515709,,psi_staircase,cRDM,,0.087844325958594,0.0934818215320969,0.0854013148647635,418.888784699986,190,26,male,True
90,0.08,25,down,down,0.6576937999925576,0.6636569472387227,,psi_staircase,cRDM,,0.0751852092118086,0.0805556301471181,0.0813554535472043,420.40539560001343,190,26,male,True
91,0.06,25,up,up,0.4170052999979816,1.7228605248769506,,psi_staircase,cRDM,,0.0644790391168514,0.0695422244606275,0.0767012018235253,423.055312499986,190,26,male,True
92,0.06,25,down,down,0.4861653000116348,0.6956178364109844,,psi_staircase,cRDM,,0.055125276742187,0.0599443659720746,0.0730034376643068,424.4219465999922,190,26,male,True
93,0.05,25,down,up,0.4642927999957464,1.987479967939132,,psi_staircase,cRDM,,0.0472535008492138,0.0517268983012455,0.0677666207157333,427.1718846000149,190,26,male,True
94,0.09,25,down,up,0.7362819999980275,0.983434049451576,,psi_staircase,cRDM,,0.0734913327782013,0.0792442671536033,0.0871500746358451,428.8718108999892,190,26,male,True
95,0.14,25,up,down,0.4002396000141743,1.6154158321560903,,psi_staircase,cRDM,,0.1068769619133939,0.1144277096540443,0.1143847967339534,431.4883495999966,190,26,male,True
96,0.21,25,up,down,0.5411486999946646,0.4311978139426962,,psi_staircase,cRDM,,0.1518803541008186,0.1605776638607389,0.1317538399097715,432.60496620001504,190,26,male,True
97,0.3,25,down,down,0.5205045999900904,0.3661146656849309,,psi_staircase,cRDM,,0.2162511278363648,0.2255942300673257,0.1415368234061753,433.7716040000087,190,26,male,True
98,0.27,25,down,down,0.4808441000059247,1.1173118018390369,,psi_staircase,cRDM,,0.1986651246828892,0.208006107194461,0.1415047121928508,435.688238600007,190,26,male,True
99,0.25,25,up,up,0.3838007000158541,1.31786479760218,,psi_staircase,cRDM,,0.1831022030367099,0.1924030649523467,0.1408969331531457,437.7380892999936,190,26,male,True
100,0.2,25,up,up,0.520126799994614,1.9305040718740984,,psi_staircase,cRDM,,0.169459280881198,0.1787135058166238,0.1401904386859808,440.33799729999737,190,26,male,True
101,0.2,25,up,up,0.5917853999999352,1.2470842077213802,,psi_staircase,cRDM,,0.1551360867849169,0.1645708039232826,0.1429246796717051,442.371300800005,190,26,male,True
102,0.2,25,up,down,0.4170191999874078,0.95284771452881,,psi_staircase,cRDM,,0.1428249937183101,0.1523371048464951,0.1440971060456186,444.1878749000025,190,26,male,True
103,0.26,25,down,down,0.5326915000041481,1.6404242761195,,psi_staircase,cRDM,,0.1853742894439637,0.1948956731355358,0.144237574289914,446.5044567000005,190,26,male,True
104,0.2,25,down,down,0.4456881000078283,1.101724956270374,,psi_staircase,cRDM,,0.1749878797378258,0.1843906620804708,0.1424409057141155,448.4044095000136,190,26,male,True
105,0.2,25,down,down,0.5284123999881558,0.9684076459416352,,psi_staircase,cRDM,,0.1625481689753525,0.1722199745410988,0.146516285762304,450.0876944999909,190,26,male,True
106,0.19,25,up,up,0.5298708000045735,0.4663412816571746,,psi_staircase,cRDM,,0.1515085543556891,0.1613511137169206,0.1491030015233108,451.3542590000143,190,26,male,True
107,0.19,25,up,up,0.4835595000186004,1.501921608625181,,psi_staircase,cRDM,,0.1415175776301357,0.1514873629251689,0.1510303222439923,453.6375011999917,190,26,male,True
108,0.19,25,down,down,0.4600006999971811,0.9167003366422511,,psi_staircase,cRDM,,0.1327929430783627,0.1428230269595043,0.151943773699698,455.3041511999909,190,26,male,True
109,0.19,25,down,down,0.8763432999840006,0.6510711742237105,,psi_staircase,cRDM,,0.1252045570505637,0.1352451147079474,0.152102438881959,456.6707574999891,190,26,male,True
110,0.18,25,up,up,0.495726499997545,0.580383747469803,,psi_staircase,cRDM,,0.1185999890619641,0.1286146518824856,0.1517101630766127,458.3873794999963,190,26,male,True
111,0.18,25,up,up,0.4861956000095233,1.3134198771667995,,psi_staircase,cRDM,,0.1125456563031424,0.1225256265793493,0.1511846125264006,460.4539225999906,190,26,male,True
112,0.18,25,down,down,0.5898213000036776,0.4321588952399778,,psi_staircase,cRDM,,0.1072101332826757,0.117132431661223,0.1503109522588833,461.6372349000012,190,26,male,True
113,0.13,25,up,up,0.4170231999887619,1.4573980897733825,,psi_staircase,cRDM,,0.1024910659903188,0.1123381317034908,0.14917126736511,463.9371566000045,190,26,male,True
114,0.13,25,down,down,0.4980663000023924,1.426839293684756,,psi_staircase,cRDM,,0.0968273830256107,0.106728940137995,0.149996746885382,466.0370421000116,190,26,male,True
115,0.14,25,up,up,0.4980707000067923,1.8888806056562295,,psi_staircase,cRDM,,0.0916552371114734,0.1015772682827656,0.1503069043885778,468.6870116000064,190,26,male,True
116,0.13,25,down,down,0.6588637999957427,1.2617026171322387,,psi_staircase,cRDM,,0.0871606787467843,0.0970527398570262,0.1498528938112018,470.72023030000855,190,26,male,True
117,0.14,25,up,,,0.3436670434765251,,psi_staircase,cRDM,,0.082844398204379,0.0927089364656804,0.149435955570153,471.9869059000048,190,26,male,True
118,0.14,25,down,down,0.5326643000007607,0.3436670434765251,,psi_staircase,cRDM,,0.082844398204379,0.0927089364656804,0.149435955570153,475.0034133000008,190,26,male,True
119,0.15,25,down,down,0.4414257000025827,1.1334146354754553,,psi_staircase,cRDM,,0.07912116167973,0.0889188380155089,0.1484230773728112,476.9366768999898,190,26,male,True
120,0.12,25,up,up,0.6321541000215802,1.16560115515076,,psi_staircase,cRDM,,0.0759363847770374,0.0856392997695065,0.1469875563668093,478.8199176999915,190,26,male,True
121,0.13,25,up,up,0.6051815999962855,0.6421386120110548,,psi_staircase,cRDM,,0.0723858874236365,0.0820380676451697,0.1462189852715789,480.3699190999905,190,26,male,True
122,0.13,25,down,down,0.3841388000000734,1.830828721503182,,psi_staircase,cRDM,,0.0693622026655978,0.0789223449824969,0.1448247211039761,483.0698104999901,190,26,male,True
123,0.13,25,down,down,0.483740099996794,1.170970789702984,,psi_staircase,cRDM,,0.0666138182884631,0.07606677790453,0.1432010313888384,484.9363412999956,190,26,male,True
124,0.13,25,down,down,0.5234162000124343,0.582062303577669,,psi_staircase,cRDM,,0.0641240414036317,0.0734552889672506,0.1413572393754484,486.269721699995,190,26,male,True
125,0.08,25,up,up,0.5075065999990329,1.65620581775371,,psi_staircase,cRDM,,0.0618791186233941,0.0710745548938227,0.1392998607290771,488.7195764000062,190,26,male,True
126,0.08,25,up,down,0.611894100002246,0.7938690377473431,,psi_staircase,cRDM,,0.0584407797430938,0.067709853792744,0.1404153850052838,490.2861779000086,190,26,male,True
127,0.14,25,down,up,0.9739280000212602,0.5217027976505517,,psi_staircase,cRDM,,0.0685572603157327,0.0777450742226979,0.1391843910398051,491.686142599996,190,26,male,True
128,0.17,25,down,down,1.0476243000011891,0.4008964233508984,,psi_staircase,cRDM,,0.0785546140460698,0.0885480640932635,0.15138881493354,493.31940919999033,190,26,male,True
129,0.16,25,down,down,0.6376371999795083,0.3698271923300734,,psi_staircase,cRDM,,0.0762321929023789,0.0861401563792664,0.1500937956448785,495.0026736999862,190,26,male,True
130,0.16,25,up,up,0.5774808999849483,0.348429155097809,,psi_staircase,cRDM,,0.073927867967894,0.0837535344930998,0.1488470952632388,496.2526038000069,190,26,male,True
131,0.16,25,up,up,0.6198971999983769,1.541771750025227,,psi_staircase,cRDM,,0.0717923759037783,0.0815309468903174,0.1475277020284218,498.6192071000114,190,26,male,True
132,0.15,25,up,up,0.5699257999949623,1.5139972564970132,,psi_staircase,cRDM,,0.0698143994183347,0.0794611663488002,0.1461369803868017,501.0191201000125,190,26,male,True
133,100.0,25,M,up,0.5944604999967851,1.4270432675744744,,psi_staircase,emotion,,100.0,100.0,25.00050000000001,507.3356066000124,190,26,male,True
134,55.0,25,M,down,0.5296047999872826,1.4930472770098204,,psi_staircase,emotion,,54.7428094675419,54.7428094675419,25.00050000000011,509.78553230001125,190,26,male,True
135,79.0,25,F,down,0.7602657999959774,1.3681591032370235,,psi_staircase,emotion,,79.636070985635,79.636070985635,25.713269254886413,512.0187885999912,190,26,male,True
136,103.0,25,F,up,0.5211130999960005,0.9209596909209016,,psi_staircase,emotion,,97.61123893914808,97.61123893914808,26.1463337262867,514.051956100011,190,26,male,True
137,87.0,25,M,down,0.944821300014155,0.8146588718040835,,psi_staircase,emotion,,85.98876744579668,85.98876744579668,23.003056417783498,515.7352929000044,190,26,male,True
138,95.0,25,F,down,0.8238974999985658,0.4229204316980665,,psi_staircase,emotion,,95.05640406123077,95.05640406123077,22.150603223582728,517.4522393000079,190,26,male,True
139,108.0,25,M,up,0.8295467999996617,0.5365442363748953,,psi_staircase,emotion,,102.67895770092096,102.67895770092096,23.933073614491192,519.1685276000062,190,26,male,True
140,105.0,25,M,up,0.6936237000045367,1.0171185495957724,,psi_staircase,emotion,,97.15511396427232,97.15511396427232,20.021669804154147,521.3684350000112,190,26,male,True
141,92.0,25,F,up,0.8323614000109956,0.5981852688422821,,psi_staircase,emotion,,94.35050340433408,94.35050340433408,16.907117635955494,523.0017132000066,190,26,male,True
142,78.0,25,F,down,0.6187536000215914,0.9799667705443498,,psi_staircase,emotion,,88.86103477475635,88.86103477475635,22.527436511476083,525.1683049999992,190,26,male,True
143,80.0,25,F,down,1.0525430999987293,1.6761992232342784,,psi_staircase,emotion,,91.6595146366148,91.6595146366148,19.767648454571532,527.8015543000074,190,26,male,True
144,105.0,25,F,up,0.5703484000114258,1.136520373356425,,psi_staircase,emotion,,93.45977428226035,93.45977428226035,17.42338277466613,530.3347497000068,190,26,male,True
145,83.0,25,F,up,0.933375900000101,1.1452369791743051,,psi_staircase,emotion,,92.12436300511789,92.12436300511789,15.23625064429072,532.3847016000072,190,26,male,True
146,72.0,25,F,down,0.7018517999968026,0.8871476720483169,,psi_staircase,emotion,,87.8227809200362,87.8227809200362,22.08107529754885,534.551249799988,190,26,male,True
147,73.0,25,M,down,0.7015631000103895,0.7342284855495518,,psi_staircase,emotion,,89.29346209758478,89.29346209758478,20.07745055458934,536.3345301999943,190,26,male,True
148,106.0,25,M,up,0.7416359999915585,1.2578436836657134,,psi_staircase,emotion,,90.31704054688144,90.31704054688144,18.35882695537956,538.6344386000128,190,26,male,True
149,75.0,25,M,down,0.6486739999963902,0.520808248033282,,psi_staircase,emotion,,89.40055835418511,89.40055835418511,16.718576264817006,540.2514219000004,190,26,male,True
150,103.0,25,M,up,0.6864371999981813,1.8811267746770235,,psi_staircase,emotion,,90.16515089011835,90.16515089011835,15.273084838950204,543.1176830999902,190,26,male,True
151,77.0,25,F,down,0.701877899991814,1.7846559936921167,,psi_staircase,emotion,,89.43601752928394,89.43601752928394,13.93773628225067,545.9341728999862,190,26,male,True
152,101.0,25,M,up,1.243336100014858,1.163255424099482,,psi_staircase,emotion,,90.03998141733912,90.03998141733912,12.797271089246316,548.1507314000046,190,26,male,True
153,80.0,25,M,down,0.6783969999814872,0.7610990487405093,,psi_staircase,emotion,,89.45009582910403,89.45009582910403,11.77810477418256,550.5007087000122,190,26,male,True
154,97.0,25,F,up,1.1684996999974828,1.7708319533358436,,psi_staircase,emotion,,90.02140712195643,90.02140712195643,10.907690813089278,553.3005980000016,190,26,male,True
155,84.0,25,M,down,0.6534917000099085,0.4949777499759499,,psi_staircase,emotion,,89.36086325319377,89.36086325319377,10.17468632072954,555.3005260000064,190,26,male,True
156,90.0,25,F,down,0.6587430999788921,1.74502413568362,,psi_staircase,emotion,,90.05823187196937,90.05823187196937,9.578158182012016,558.0503517999896,190,26,male,True
157,99.0,25,F,up,0.7294171999965329,1.026569509454321,,psi_staircase,emotion,,91.1772437091,91.1772437091,9.575838771230943,560.0836801000114,190,26,male,True
158,87.0,25,M,down,0.7511578000267036,0.7062912646647537,,psi_staircase,emotion,,90.76510989971212,90.76510989971212,8.941581182860093,561.8669388999988,190,26,male,True
159,88.0,25,M,down,0.7372187000000849,1.6356291448390534,,psi_staircase,emotion,,91.40727050610992,91.40727050610992,8.451254068661871,564.616847199999,190,26,male,True
160,89.0,25,F,up,0.779009899997618,1.1978540248180294,,psi_staircase,emotion,,92.01476685234798,92.01476685234798,7.998206775504633,566.9000873999903,190,26,male,True
161,99.0,25,M,up,0.8044408999849111,1.8504839172505656,,psi_staircase,emotion,,90.86886033582084,90.86886033582084,8.848188259507985,569.866642500012,190,26,male,True
162,83.0,25,F,up,0.7974723000079393,1.6616768461435167,,psi_staircase,emotion,,90.57384998290638,90.57384998290638,8.340580131743689,572.6665463999962,190,26,male,True
163,100.0,25,F,up,0.8799617000040598,1.323599276195554,,psi_staircase,emotion,,89.35871103635336,89.35871103635336,10.28570363730828,575.1331011000148,190,26,male,True
164,79.0,25,F,up,0.9710081999946852,1.4235441025774394,,psi_staircase,emotion,,89.13072378446685,89.13072378446685,9.760409972130551,577.7830254999863,190,26,male,True
165,74.0,25,M,down,0.7691199999826495,0.8249664807599768,,psi_staircase,emotion,,87.78778253648305,87.78778253648305,12.530909130883376,579.932950699993,190,26,male,True
166,75.0,25,M,down,0.7521958000143059,0.3742572271494933,,psi_staircase,emotion,,88.04847834099941,88.04847834099941,11.851385559486191,581.4328947000031,190,26,male,True
167,101.0,25,M,up,0.6840104000002611,0.8525612708958301,,psi_staircase,emotion,,88.26744384475073,88.26744384475073,11.283097288248602,583.3660914000066,190,26,male,True
168,76.0,25,F,down,0.9446930999984032,1.1540726490712483,,psi_staircase,emotion,,88.07040528528117,88.07040528528117,10.799205177004357,585.5493832000066,190,26,male,True
169,99.0,25,F,down,1.0787874000088775,1.4069970920071204,,psi_staircase,emotion,,88.2622799953891,88.2622799953891,10.365470708122816,588.2492735999986,190,26,male,True
170,104.0,25,M,up,1.176529499993194,1.7889371557227451,,psi_staircase,emotion,,89.41395459061943,89.41395459061943,12.55882358116546,591.4495332000079,190,26,male,True
171,75.0,25,F,down,0.7406525000114925,0.7736745511366062,,psi_staircase,emotion,,89.22479012252246,89.22479012252246,12.055957767680905,593.7324121000129,190,26,male,True
172,102.0,25,M,up,0.7693741999974009,0.5997120489146393,,psi_staircase,emotion,,89.39564580700542,89.39564580700542,11.619333506479078,595.4157117000141,190,26,male,True
173,77.0,25,M,up,0.9184415000199806,0.5733743030650731,,psi_staircase,emotion,,89.20598861761148,89.20598861761148,11.214750536741164,597.1156520000077,190,26,male,True
174,72.0,25,M,down,0.6208507000119425,1.5202130729923278,,psi_staircase,emotion,,88.12469174410498,88.12469174410498,13.395540245831912,599.882216900005,190,26,male,True
175,103.0,25,F,up,0.6879223000141792,1.2820960428690078,,psi_staircase,emotion,,88.29522210839218,88.29522210839218,12.925540253295814,602.1321368000063,190,26,male,True
176,74.0,25,F,down,1.3320842999964952,1.4761634463469508,,psi_staircase,emotion,,88.12610327704127,88.12610327704127,12.504701226695126,604.6320369000023,190,26,male,True
177,102.0,25,M,up,0.6691749000165146,1.5069241163818177,,psi_staircase,emotion,,88.29671571006888,88.29671571006888,12.118635017587565,607.831917500007,190,26,male,True
178,75.0,25,F,down,0.5725078000104986,1.2259536152015682,,psi_staircase,emotion,,88.1361934620178,88.1361934620178,11.776867486516672,610.0655173000123,190,26,male,True
179,101.0,25,F,up,0.6600111000007018,1.292904593279935,,psi_staircase,emotion,,88.29752445870956,88.29752445870956,11.46109703383652,612.2650449000066,190,26,male,True
180,76.0,25,M,down,0.6962975999922492,0.511566687068226,,psi_staircase,emotion,,88.14095347744602,88.14095347744602,11.176256905154276,613.7817144000146,190,26,male,True
181,100.0,25,M,down,1.107068600016646,0.5845754250026891,,psi_staircase,emotion,,88.29790474018081,88.29790474018081,10.9112073274284,615.414972300001,190,26,male,True
182,104.0,25,F,up,0.7239134999981616,1.2925762268147765,,psi_staircase,emotion,,89.20320579995389,89.20320579995389,12.324603617938733,618.1481425999955,190,26,male,True
183,0.0678357899170423,25,down,up,0.914796600001864,1.81830819100747,,experiment,cRDM,0.0,,,,641.597265599994,190,26,male,True
184,0.0678357899170423,25,up,up,0.6198827999760397,1.977981434681127,,experiment,cRDM,0.0,,,,644.7471924000129,190,26,male,True
185,0.0678357899170423,25,down,down,0.573236199998064,1.4173370109380372,,experiment,cRDM,0.0,,,,647.0638214999926,190,26,male,True
186,0.0678357899170423,25,up,up,0.5777172999805771,0.7378963001096581,,experiment,cRDM,0.0,,,,648.630341799988,190,26,male,True
187,0.0678357899170423,25,down,down,0.7264164999942295,1.0383829981238153,,experiment,cRDM,0.0,,,,650.5136218999978,190,26,male,True
188,0.0678357899170423,25,down,up,0.6902289999998175,1.343796026620548,,experiment,cRDM,0.0,,,,652.8468350000039,190,26,male,True
189,0.0678357899170423,25,up,up,0.6939072000095621,1.2843018264027035,,experiment,cRDM,0.0,,,,655.0801494999905,190,26,male,True
190,0.0678357899170423,25,down,up,0.6797528000024613,0.9152505415228565,,experiment,cRDM,0.0,,,,656.9633389000082,190,26,male,True
191,0.0678357899170423,25,up,up,0.6347337999904994,0.6198068069015074,,experiment,cRDM,0.0,,,,658.5133122999978,190,26,male,True
192,0.0678357899170423,25,up,up,0.6634582999977283,1.380531174497892,,experiment,cRDM,0.0,,,,660.7965561999881,190,26,male,True
193,0.0678357899170423,25,down,down,0.6882206000154838,0.3194585436398282,,experiment,cRDM,0.0,,,,662.0298541999946,190,26,male,True
194,0.0678357899170423,25,up,up,0.9869019000034314,0.5228484057158387,,experiment,cRDM,0.0,,,,663.513128599996,190,26,male,True
195,0.0678357899170423,25,up,up,0.6576956000062637,1.3741829063033033,,experiment,cRDM,0.0,,,,666.1463476000063,190,26,male,True
196,0.0678357899170423,25,up,up,0.6894265000009909,1.1716387805639246,,experiment,cRDM,0.0,,,,668.2466263000097,190,26,male,True
197,0.0678357899170423,25,down,down,0.8295149999903515,1.427987902836828,,experiment,cRDM,0.0,,,,670.6295374000038,190,26,male,True
198,0.0678357899170423,25,down,up,0.6002811000216752,0.7073011849470177,,experiment,cRDM,0.0,,,,672.4128008999978,190,26,male,True
199,0.0678357899170423,25,up,up,0.8916664000134915,0.9099086506007256,,experiment,cRDM,0.0,,,,674.1794107999885,190,26,male,True
200,0.0678357899170423,25,up,up,0.766401600005338,1.2752951316603505,,experiment,cRDM,0.0,,,,676.6126506,190,26,male,True
201,0.0678357899170423,25,down,up,0.6341881999978796,1.0017494600012251,,experiment,cRDM,0.0,,,,678.6458637999895,190,26,male,True
202,0.0678357899170423,25,down,down,0.9766220000165048,1.6793674526065,,experiment,cRDM,0.0,,,,681.2124770999944,190,26,male,True
203,0.0678357899170423,25,up,up,0.785364200011827,1.948053019408449,,experiment,cRDM,0.0,,,,684.3956859000027,190,26,male,True
204,0.0678357899170423,25,down,down,0.7100360000040382,0.32490148551427,,experiment,cRDM,0.0,,,,685.7790328999981,190,26,male,True
205,0.0678357899170423,25,up,up,0.6308560000034049,1.6714766718918557,,experiment,cRDM,0.0,,,,688.4122158999962,190,26,male,True
206,0.0678357899170423,25,down,down,0.8949292999750469,0.7176753581294615,,experiment,cRDM,0.0,,,,690.0121488999866,190,26,male,True
207,0.0678357899170423,25,down,down,0.693037799996091,1.4442225052794258,,experiment,cRDM,0.0,,,,692.6120059000095,190,26,male,True
208,0.0678357899170423,25,up,up,0.701429900014773,1.0708337473686338,,experiment,cRDM,0.0,,,,694.6286409999884,190,26,male,True
209,0.0678357899170423,25,up,up,0.7447747999976855,0.7523486579360462,,experiment,cRDM,0.0,,,,696.3452916000097,190,26,male,True
210,0.0678357899170423,25,down,down,0.5628304000128992,1.700443162745707,,experiment,cRDM,0.0,,,,699.0451933000004,190,26,male,True
211,0.0678357899170423,25,up,up,0.5133281000016723,1.2368823388906522,,experiment,cRDM,0.0,,,,701.1117480999965,190,26,male,True
212,0.0678357899170423,25,down,up,0.7083308000001125,0.6792090561951415,,experiment,cRDM,0.0,,,,702.5617382999917,190,26,male,True
213,0.0678357899170423,25,up,up,0.5101020000001881,0.8657344876885555,,experiment,cRDM,0.0,,,,704.3949632000003,190,26,male,True
214,0.0678357899170423,25,down,down,0.550463799998397,1.7837390802739777,,experiment,cRDM,0.0,,,,706.9615798000013,190,26,male,True
215,0.0678357899170423,25,up,up,0.6000067999993917,1.5518238941093885,,experiment,cRDM,0.0,,,,709.3281127999944,190,26,male,True
216,0.0678357899170423,25,down,down,0.68710199999623,1.5402250196588283,,experiment,cRDM,0.0,,,,711.7279914999963,190,26,male,True
217,0.0678357899170423,25,up,up,0.5928534000122454,1.837871103532979,,experiment,cRDM,0.0,,,,714.5112361999927,190,26,male,True
218,0.0678357899170423,25,down,down,0.8907707000034861,1.0688558697301065,,experiment,cRDM,0.0,,,,716.4283068999939,190,26,male,True
219,0.0678357899170423,25,up,up,0.6030037000018638,0.9293244028100752,,experiment,cRDM,0.0,,,,718.5110745000129,190,26,male,True
220,0.0678357899170423,25,down,down,0.4573151000076905,0.4012360063994902,,experiment,cRDM,0.0,,,,719.7777208999905,190,26,male,True
221,0.0678357899170423,25,up,up,0.3838119000138249,0.7149107121169754,,experiment,cRDM,0.0,,,,721.2110066000023,190,26,male,True
222,0.0678357899170423,25,down,down,0.5858236000058241,1.8090215872234876,,experiment,cRDM,0.0,,,,723.6942432000069,190,26,male,True
223,0.0678357899170423,25,down,up,0.8475503999798093,0.9271252023559302,,experiment,cRDM,0.0,,,,725.4775039000087,190,26,male,True
224,0.0678357899170423,25,up,up,0.6479563000029884,1.245398504629557,,experiment,cRDM,0.0,,,,727.844079100003,190,26,male,True
225,0.0678357899170423,25,down,down,0.6256600999913644,1.0648146487328716,,experiment,cRDM,0.0,,,,729.8273340000014,190,26,male,True
226,0.0678357899170423,25,up,up,0.5484059999871533,1.5912456226336769,,experiment,cRDM,0.0,,,,732.3105989999895,190,26,male,True
227,0.0678357899170423,25,up,down,0.6622146999870893,1.1299968381815635,,experiment,cRDM,0.0,,,,734.243855800014,190,26,male,True
228,0.0678357899170423,25,down,down,0.6463611999934074,1.5684365028996954,,experiment,cRDM,0.0,,,,736.7437315999996,190,26,male,True
229,0.0678357899170423,25,down,up,0.7499833999900147,1.1218613237815125,,experiment,cRDM,0.0,,,,738.7770503000065,190,26,male,True
230,0.0678357899170423,25,up,down,0.6378356000059284,1.325855332092856,,experiment,cRDM,0.0,,,,741.127206300007,190,26,male,True
231,0.0678357899170423,25,down,down,0.7017954000039026,1.3355775151770677,,experiment,cRDM,0.0,,,,743.3602462999988,190,26,male,True
232,0.0678357899170423,25,up,up,0.5686139999888837,1.6755257859371406,,experiment,cRDM,0.0,,,,745.9934259000001,190,26,male,True
233,0.0678357899170423,25,up,down,0.7469525999913458,0.5320771387708707,,experiment,cRDM,0.0,,,,747.3601068000135,190,26,male,True
234,0.0678357899170423,25,up,up,1.125721499993233,0.3607195473027525,,experiment,cRDM,0.0,,,,748.7433544000087,190,26,male,True
235,0.0678357899170423,25,up,down,1.2344583999947645,0.4611633618671752,,experiment,cRDM,0.0,,,,750.5766008000064,190,26,male,True
236,0.0678357899170423,25,up,up,1.1961501000041608,0.6877407971307037,,experiment,cRDM,0.0,,,,752.7598840999999,190,26,male,True
237,0.0678357899170423,25,down,down,1.0346925999911036,1.7528209613136474,,experiment,cRDM,0.0,,,,755.9763759000052,190,26,male,True
238,0.0678357899170423,25,down,up,1.189797200000612,1.84184890269458,,experiment,cRDM,0.0,,,,759.126245099993,190,26,male,True
239,0.0678357899170423,25,down,up,0.8978581000119448,1.398927130944765,,experiment,cRDM,0.0,,,,761.9761689000006,190,26,male,True
240,0.0678357899170423,25,up,up,1.4452697999950033,0.7009046139080862,,experiment,cRDM,0.0,,,,763.8427478999947,190,26,male,True
241,0.0678357899170423,25,down,up,1.63601999997627,1.4168995838641725,,experiment,cRDM,0.0,,,,766.9759909000131,190,26,male,True
242,0.0678357899170423,25,down,down,1.6832051999808757,1.2403287800753136,,experiment,cRDM,0.0,,,,770.125852600002,190,26,male,True
243,0.0678357899170423,25,down,up,1.3833042999904137,1.1037739176897765,,experiment,cRDM,0.0,,,,773.1757588000037,190,26,male,True
244,0.0678357899170423,25,up,up,1.4396552999969572,1.0159879252687298,,experiment,cRDM,0.0,,,,775.8423832000117,190,26,male,True
245,0.0678357899170423,25,down,down,0.9385688999900594,1.9794274200427373,,experiment,cRDM,0.0,,,,779.5254742999969,190,26,male,True
246,0.0678357899170423,25,up,up,0.8962768000201322,1.6702829805816697,,experiment,cRDM,0.0,,,,782.4087829999917,190,26,male,True
247,0.0678357899170423,25,up,down,1.3736888999992516,1.0093309525497427,,experiment,cRDM,0.0,,,,784.5753513000091,190,26,male,True
248,0.0678357899170423,25,down,up,0.9741147000167985,0.620667788396879,,experiment,cRDM,0.0,,,,786.8419224999961,190,26,male,True
249,0.0678357899170423,25,up,down,1.6225026000174694,0.5754642846077682,,experiment,cRDM,0.0,,,,788.6585158999951,190,26,male,True
250,0.0678357899170423,25,down,up,0.96997440000996,1.2411304427719572,,experiment,cRDM,0.0,,,,791.7750738000032,190,26,male,True
251,0.0678357899170423,25,up,down,1.3767687999934424,1.7131417324884723,,experiment,cRDM,0.0,,,,794.7082670000091,190,26,male,True
252,0.0678357899170423,25,down,up,1.27549159998307,0.6393763119219974,,experiment,cRDM,0.0,,,,796.9915391000104,190,26,male,True
253,0.0678357899170423,25,up,up,1.032854999997653,0.8188161604168069,,experiment,cRDM,0.0,,,,799.3581715000037,190,26,male,True
254,0.0678357899170423,25,down,down,1.0340065000054892,0.9587448344744928,,experiment,cRDM,0.0,,,,801.6080214999965,190,26,male,True
255,0.0678357899170423,25,down,up,1.2294580999878235,0.3167629530177636,,experiment,cRDM,0.0,,,,803.2246098000032,190,26,male,True
256,0.0678357899170423,25,down,down,1.3124928000033833,0.8542177072876216,,experiment,cRDM,0.0,,,,805.5745618999936,190,26,male,True
257,0.0678357899170423,25,down,up,0.9301984000194352,0.7029467136196073,,experiment,cRDM,0.0,,,,807.857829399989,190,26,male,True
258,0.0678357899170423,25,down,up,1.0035689999931492,0.5616279778498131,,experiment,cRDM,0.0,,,,809.6244414999965,190,26,male,True
259,0.0678357899170423,25,up,up,1.1306903999939095,0.4377356985728131,,experiment,cRDM,0.0,,,,811.324337900005,190,26,male,True
260,0.0678357899170423,25,up,down,0.7397898999915924,1.2145985560021506,,experiment,cRDM,0.0,,,,813.9242384000099,190,26,male,True
261,0.0678357899170423,25,up,up,0.9561701999919024,0.6186953437797658,,experiment,cRDM,0.0,,,,815.5408588999999,190,26,male,True
262,0.0678357899170423,25,up,down,1.1188684000226203,0.9935037474079544,,experiment,cRDM,0.0,,,,817.7741171999951,190,26,male,True
263,93.0,25,M,down,0.8410675999766681,0.6946435811152762,,experiment,emotion,0.0,,,,823.0239630000142,190,26,male,True
264,84.0,25,M,down,0.7105295000073966,1.097156696019331,,experiment,emotion,0.0,,,,825.2404933999933,190,26,male,True
265,90.0,25,F,down,0.7235451000160538,1.758141290058944,,experiment,emotion,0.0,,,,828.0404833999928,190,26,male,True
266,93.0,25,F,up,1.0165935999830251,0.5497156820036011,,experiment,emotion,0.0,,,,829.5904266000143,190,26,male,True
267,90.0,25,M,down,0.8226605000090785,0.4149806055876676,,experiment,emotion,0.0,,,,831.2903661000018,190,26,male,True
268,87.0,25,F,down,0.86539960000664,1.03354012059557,,experiment,emotion,0.0,,,,833.4736018000112,190,26,male,True
269,84.0,25,M,down,0.7618122999847401,0.7301646969531412,,experiment,emotion,0.0,,,,835.3402310000092,190,26,male,True
270,87.0,25,M,down,0.8132449999975506,0.5430960650645117,,experiment,emotion,0.0,,,,836.906781800004,190,26,male,True
271,93.0,25,F,up,1.1403617000032682,1.017024930602838,,experiment,emotion,0.0,,,,839.0067097000137,190,26,male,True
272,87.0,25,F,down,0.7203938000020571,1.7797353801684028,,experiment,emotion,0.0,,,,842.2066130999883,190,26,male,True
273,90.0,25,F,up,1.2331091000232846,0.5088101468144415,,experiment,emotion,0.0,,,,843.6899154999992,190,26,male,True
274,93.0,25,F,up,1.5075526000000536,1.65779181568171,,experiment,emotion,0.0,,,,846.8564566000132,190,26,male,True
275,90.0,25,F,down,0.8801324999949429,1.4483481302542898,,experiment,emotion,0.0,,,,850.0729384000006,190,26,male,True
276,84.0,25,F,down,0.7697826999938115,1.272639162326747,,experiment,emotion,0.0,,,,852.5062404999917,190,26,male,True
277,87.0,25,M,down,0.841540299996268,1.2398728170202995,,experiment,emotion,0.0,,,,854.789481499989,190,26,male,True
278,84.0,25,M,down,1.133331699995324,1.1716884935331668,,experiment,emotion,0.0,,,,857.0727456999884,190,26,male,True
279,93.0,25,M,down,1.104404199984856,1.28763977074262,,experiment,emotion,0.0,,,,859.7726440000115,190,26,male,True
280,84.0,25,M,down,0.8648164999904111,1.6821533992504878,,experiment,emotion,0.0,,,,862.8392079999903,190,26,male,True
281,90.0,25,F,down,0.7815678000042681,1.0952791527375048,,experiment,emotion,0.0,,,,865.0724563999975,190,26,male,True
282,90.0,25,M,up,1.0243046999967191,1.021359914339493,,experiment,emotion,0.0,,,,867.1557049000112,190,26,male,True
283,87.0,25,M,up,0.9564483999856748,1.5467278963755446,,experiment,emotion,0.0,,,,870.0055326999864,190,26,male,True
284,87.0,25,F,down,0.9695484999974724,1.9610071914654224,,experiment,emotion,0.0,,,,873.2054744999914,190,26,male,True
285,84.0,25,M,up,1.7019532000122126,0.6901120448331588,,experiment,emotion,0.0,,,,875.122057200002,190,26,male,True
286,93.0,25,F,up,0.937518499995349,1.9895468518087127,,experiment,emotion,0.0,,,,879.0885374000063,190,26,male,True
287,90.0,25,F,down,0.794864299998153,1.16451762269878,,experiment,emotion,0.0,,,,881.4551783000061,190,26,male,True
288,84.0,25,M,up,1.4025780000083614,0.7328959669254467,,experiment,emotion,0.0,,,,883.2884400000039,190,26,male,True
289,93.0,25,M,down,0.7737007000250742,1.419159802888702,,experiment,emotion,0.0,,,,886.3883199999982,190,26,male,True
290,93.0,25,F,up,0.8751163000124507,0.7353870607411066,,experiment,emotion,0.0,,,,888.1549087000021,190,26,male,True
291,87.0,25,M,up,1.4125395999872126,1.471619702312936,,experiment,emotion,0.0,,,,890.7714939000143,190,26,male,True
292,84.0,25,F,down,0.9269815000006928,1.4770362436952102,,experiment,emotion,0.0,,,,893.9380540999991,190,26,male,True
293,87.0,25,F,down,0.7260808999999426,1.8567358468761357,,experiment,emotion,0.0,,,,896.9879222000018,190,26,male,True
294,90.0,25,F,down,1.0241556000255514,0.4669041755149091,,experiment,emotion,0.0,,,,898.4878870999964,190,26,male,True
295,84.0,25,M,down,0.7589606999827083,1.850739258492208,,experiment,emotion,0.0,,,,901.6210609000118,190,26,male,True
296,93.0,25,M,up,0.8296682000218425,0.6996938622049458,,experiment,emotion,0.0,,,,903.3543820999912,190,26,male,True
297,90.0,25,M,down,0.6504349000169896,0.8805093474410504,,experiment,emotion,0.0,,,,905.3375812000012,190,26,male,True
298,93.0,25,F,up,0.8887583000177983,0.6006144432307557,,experiment,emotion,0.0,,,,906.8542269000028,190,26,male,True
299,84.0,25,F,down,0.7802307000092696,1.9077607835796695,,experiment,emotion,0.0,,,,909.9207795000112,190,26,male,True
300,90.0,25,M,down,1.130625300022075,0.52555552033605,,experiment,emotion,0.0,,,,911.487405699998,190,26,male,True
301,87.0,25,F,down,0.6969919000111986,0.3518487351905561,,experiment,emotion,0.0,,,,913.2540210000006,190,26,male,True
302,87.0,25,M,down,0.845078000013018,0.8939357055038193,,experiment,emotion,0.0,,,,915.1039358999988,190,26,male,True
303,90.0,25,M,down,1.1122243000136225,1.926511270299777,,experiment,emotion,0.0,,,,918.1538276000064,190,26,male,True
304,93.0,25,M,down,0.7290182000142522,1.8451939685012064,,experiment,emotion,0.0,,,,921.3870396999991,190,26,male,True
305,87.0,25,F,down,0.8600116999878082,1.2056038815005383,,experiment,emotion,0.0,,,,923.5869444000128,190,26,male,True
306,84.0,25,F,down,0.8678090999892447,1.0346677392340384,,experiment,emotion,0.0,,,,925.7702088000078,190,26,male,True
307,84.0,25,M,down,0.724557299981825,1.49386321752928,,experiment,emotion,0.0,,,,928.4034597999998,190,26,male,True
308,87.0,25,F,down,1.2322876999969594,0.3965240086316716,,experiment,emotion,0.0,,,,929.7867247000104,190,26,male,True
309,93.0,25,F,down,0.7323969999852125,1.5000302626063693,,experiment,emotion,0.0,,,,932.7866024000105,190,26,male,True
310,90.0,25,M,down,1.3085300000093412,1.442770507914396,,experiment,emotion,0.0,,,,935.2364839999937,190,26,male,True
311,84.0,25,M,up,0.6646151999884751,1.8097378463611815,,experiment,emotion,0.0,,,,938.6364038999892,190,26,male,True
312,93.0,25,F,up,0.6300233000074513,0.6286136928962665,,experiment,emotion,0.0,,,,940.2030191000084,190,26,male,True
313,90.0,25,M,up,0.5634251000010408,0.6068440412136731,,experiment,emotion,0.0,,,,941.719587300002,190,26,male,True
314,90.0,25,F,down,1.0061424000014083,1.8882130519691176,,experiment,emotion,0.0,,,,944.452865900006,190,26,male,True
315,84.0,25,F,up,0.964660500001628,1.4534839979884482,,experiment,emotion,0.0,,,,947.1694032000088,190,26,male,True
316,87.0,25,F,down,0.8753116999869235,0.9379341144869592,,experiment,emotion,0.0,,,,949.3526767000149,190,26,male,True
317,93.0,25,M,down,0.8481949000270106,0.6443694603483472,,experiment,emotion,0.0,,,,951.1358342999883,190,26,male,True
318,87.0,25,M,down,0.8368456999887712,0.8198109007493763,,experiment,emotion,0.0,,,,953.0691949999892,190,26,male,True
319,87.0,25,F,down,1.306192399992142,0.5564901667905252,,experiment,emotion,0.0,,,,954.7358129000058,190,26,male,True
320,87.0,25,F,down,1.1026877999829594,1.9901462807651504,,experiment,emotion,0.0,,,,958.3023122999876,190,26,male,True
321,93.0,25,M,down,1.048792699992191,1.5224660126805072,,experiment,emotion,0.0,,,,961.2022021999874,190,26,male,True
322,90.0,25,M,up,0.9758734999923036,0.6809586991012448,,experiment,emotion,0.0,,,,963.2021326000104,190,26,male,True
323,84.0,25,M,down,0.9113016999908724,0.3575370484940882,,experiment,emotion,0.0,,,,964.8187086000108,190,26,male,True
324,84.0,25,M,down,0.9473636999900918,0.7088968111949185,,experiment,emotion,0.0,,,,966.7186447000132,190,26,male,True
325,90.0,25,M,down,0.8488047000137158,1.0034670365761085,,experiment,emotion,0.0,,,,968.9352032000024,190,26,male,True
326,93.0,25,F,down,0.7267715000198223,0.4435550943018883,,experiment,emotion,0.0,,,,970.4852347999986,190,26,male,True
327,93.0,25,F,down,0.811551100021461,0.6437457741915007,,experiment,emotion,0.0,,,,972.1184604000008,190,26,male,True
328,84.0,25,M,down,0.7992896000214387,1.353414082486352,,experiment,emotion,0.0,,,,974.551747999998,190,26,male,True
329,93.0,25,F,down,0.6046691999945324,0.696535249358579,,experiment,emotion,0.0,,,,976.3183344000136,190,26,male,True
330,87.0,25,F,down,0.6544069000228774,0.3481251870942716,,experiment,emotion,0.0,,,,977.5516287999926,190,26,male,True
331,90.0,25,F,down,0.7111758000100963,1.8509836429236608,,experiment,emotion,0.0,,,,980.3348299000064,190,26,male,True
332,87.0,25,M,down,0.737532300001476,0.6431607514868234,,experiment,emotion,0.0,,,,981.9514871000138,190,26,male,True
333,84.0,25,F,down,0.8722783999983221,1.1355534632805753,,experiment,emotion,0.0,,,,984.0847259000002,190,26,male,True
334,90.0,25,F,down,0.9533483000122942,1.0683588001016742,,experiment,emotion,0.0,,,,986.2846518000006,190,26,male,True
335,87.0,25,F,down,0.8391231999848969,1.4573088867233104,,experiment,emotion,0.0,,,,988.9678844999872,190,26,male,True
336,90.0,25,M,down,0.9235551000165289,0.3461461123146568,,experiment,emotion,0.0,,,,990.4344450999924,190,26,male,True
337,84.0,25,M,down,0.5627267000090797,1.415950444604381,,experiment,emotion,0.0,,,,993.034333699994,190,26,male,True
338,93.0,25,F,down,0.7526824999949895,0.4936295772778444,,experiment,emotion,0.0,,,,994.3843220999988,190,26,male,True
339,90.0,25,M,down,0.4764195999887306,0.996465065314038,,experiment,emotion,0.0,,,,996.4175889999896,190,26,male,True
340,93.0,25,F,down,0.9928227000054904,1.322364551685118,,experiment,emotion,0.0,,,,998.4841804000024,190,26,male,True
341,84.0,25,M,down,0.9612270000216084,0.9106569453250768,,experiment,emotion,0.0,,,,1000.650777200004,190,26,male,True
342,87.0,25,M,down,0.741325400013011,1.0549428336877988,,experiment,emotion,0.0,,,,1002.9507127999968,190,26,male,True
343,0.0678357899170423,25,up,up,1.2124263000150677,1.361559851623349,,experiment,cRDM,1.0,,,,1012.6835976000002,190,26,male,True
344,0.0678357899170423,25,up,up,0.8591927000088617,1.3930000516935666,,experiment,cRDM,1.0,,,,1015.5668575000018,190,26,male,True
345,0.0678357899170423,25,down,down,0.5415810999984387,1.2020196131193253,,experiment,cRDM,1.0,,,,1017.883426799992,190,26,male,True
346,0.0678357899170423,25,down,up,0.7410003999830224,1.464310126332916,,experiment,cRDM,1.0,,,,1020.1500210000086,190,26,male,True
347,0.0678357899170423,25,up,up,0.6070536999905016,0.342990400404795,,experiment,cRDM,1.0,,,,1021.4999433000048,190,26,male,True
348,0.0678357899170423,25,down,down,0.8845001999870874,1.6431360885527704,,experiment,cRDM,1.0,,,,1024.0164907000144,190,26,male,True
349,0.0678357899170423,25,up,up,0.6435350999818183,1.2035270053919962,,experiment,cRDM,1.0,,,,1026.3664393000072,190,26,male,True
350,0.0678357899170423,25,up,down,0.6866418000136036,0.8822799233231013,,experiment,cRDM,1.0,,,,1028.166362799995,190,26,male,True
351,0.0678357899170423,25,down,down,0.6806673000101,0.4500077834025472,,experiment,cRDM,1.0,,,,1029.566314800002,190,26,male,True
352,0.0678357899170423,25,down,up,0.8994155999971554,0.982082459450399,,experiment,cRDM,1.0,,,,1031.4995657000109,190,26,male,True
353,0.0678357899170423,25,down,down,0.6798401999985799,0.9507738479561147,,experiment,cRDM,1.0,,,,1033.6161601000058,190,26,male,True
354,0.0678357899170423,25,down,up,0.8088922000024468,0.8071609093907979,,experiment,cRDM,1.0,,,,1035.3660956000094,190,26,male,True
355,0.0678357899170423,25,down,down,0.6380316999857314,1.9194855784122928,,experiment,cRDM,1.0,,,,1038.3659886000096,190,26,male,True
356,0.0678357899170423,25,down,down,0.6317194000002928,1.4494827252542193,,experiment,cRDM,1.0,,,,1040.6992321000143,190,26,male,True
357,0.0678357899170423,25,up,down,0.7515357999945991,0.533549344279384,,experiment,cRDM,1.0,,,,1042.1325194000092,190,26,male,True
358,0.0678357899170423,25,up,up,0.7265883999934886,1.8292728460912544,,experiment,cRDM,1.0,,,,1044.982411600009,190,26,male,True
359,0.0678357899170423,25,up,up,0.7386320999939926,0.957159657020006,,experiment,cRDM,1.0,,,,1046.9323902000033,190,26,male,True
360,0.0678357899170423,25,up,up,0.7344318999967072,1.331036635583447,,experiment,cRDM,1.0,,,,1049.2655959000112,190,26,male,True
361,0.0678357899170423,25,down,down,0.61122369999066,0.6356763290366825,,experiment,cRDM,1.0,,,,1050.8988618000003,190,26,male,True
362,0.0678357899170423,25,up,up,0.57182909999392,0.5947453752708332,,experiment,cRDM,1.0,,,,1052.3821447000082,190,26,male,True
363,0.0678357899170423,25,up,down,0.7106352999981027,1.3504826079131385,,experiment,cRDM,1.0,,,,1054.565389700001,190,26,male,True
364,0.0678357899170423,25,down,down,0.6740172999852803,0.5460793060388686,,experiment,cRDM,1.0,,,,1056.081989600003,190,26,male,True
365,0.0678357899170423,25,up,up,0.6777404000167735,0.8873880865858899,,experiment,cRDM,1.0,,,,1057.9152512,190,26,male,True
366,0.0678357899170423,25,down,down,0.6504163999925368,1.0016260231081353,,experiment,cRDM,1.0,,,,1059.8485713000118,190,26,male,True
367,0.0678357899170423,25,down,up,0.7542239000031259,1.6294744621706554,,experiment,cRDM,1.0,,,,1062.3817682999943,190,26,male,True
368,0.0678357899170423,25,up,up,0.8460146999859717,0.8165090485617945,,experiment,cRDM,1.0,,,,1064.2150054000083,190,26,male,True
369,0.0678357899170423,25,up,up,0.7030670999956783,1.944870241234537,,experiment,cRDM,1.0,,,,1067.2649279999896,190,26,male,True
370,0.0678357899170423,25,down,up,0.7191086999955587,1.5706480321570038,,experiment,cRDM,1.0,,,,1069.8148880999945,190,26,male,True
371,0.0678357899170423,25,up,up,0.6558853999886196,0.6887721836981137,,experiment,cRDM,1.0,,,,1071.498108800006,190,26,male,True
372,0.0678357899170423,25,down,up,0.6813212999841198,1.4139555130831214,,experiment,cRDM,1.0,,,,1073.8146684000094,190,26,male,True
373,0.0678357899170423,25,down,up,0.8580423000094015,0.8358764498049045,,experiment,cRDM,1.0,,,,1075.597938999999,190,26,male,True
374,0.0678357899170423,25,down,up,0.8078426000138279,1.60599217783564,,experiment,cRDM,1.0,,,,1078.3311782999954,190,26,male,True
375,0.0678357899170423,25,up,down,1.1792413000075612,0.8884330799922602,,experiment,cRDM,1.0,,,,1080.2977812000026,190,26,male,True
376,0.0678357899170423,25,up,up,0.8930971999943722,1.1864077336077197,,experiment,cRDM,1.0,,,,1082.9309876000043,190,26,male,True
377,0.0678357899170423,25,up,up,0.7597561000147834,1.167419234725142,,experiment,cRDM,1.0,,,,1085.2642336999995,190,26,male,True
378,0.0678357899170423,25,down,down,1.2308368999802042,1.4267670528467784,,experiment,cRDM,1.0,,,,1087.7141492000085,190,26,male,True
379,0.0678357899170423,25,down,down,1.6809193999797571,0.9693441293130542,,experiment,cRDM,1.0,,,,1090.164082800009,190,26,male,True
380,0.0678357899170423,25,up,up,1.1063475999981165,1.1769767015508288,,experiment,cRDM,1.0,,,,1093.2806398000102,190,26,male,True
381,0.0678357899170423,25,down,up,0.9748204000061378,1.8518780056556017,,experiment,cRDM,1.0,,,,1096.497166999994,190,26,male,True
382,0.0678357899170423,25,up,up,0.8895449000119697,0.4020231074547886,,experiment,cRDM,1.0,,,,1098.1304466,190,26,male,True
383,0.0678357899170423,25,up,up,0.7183205999899656,1.7851652282550212,,experiment,cRDM,1.0,,,,1101.0636789000127,190,26,male,True
384,0.0678357899170423,25,up,up,0.7437799999897834,1.1362549924731613,,experiment,cRDM,1.0,,,,1103.1802645999996,190,26,male,True
385,0.0678357899170423,25,down,up,0.745538499992108,0.5240407843847644,,experiment,cRDM,1.0,,,,1104.7134577000106,190,26,male,True
386,0.0678357899170423,25,down,,,0.7046305448741096,,experiment,cRDM,1.0,,,,1106.430184900004,190,26,male,True
387,0.0678357899170423,25,up,up,1.002379599987762,1.9264125771549865,,experiment,cRDM,1.0,,,,1111.046643700014,190,26,male,True
388,0.0678357899170423,25,down,down,0.8161479999835137,1.6752480903285076,,experiment,cRDM,1.0,,,,1113.979865200003,190,26,male,True
389,0.0678357899170423,25,down,up,0.7099509999970905,1.1496951764346963,,experiment,cRDM,1.0,,,,1116.2131004999974,190,26,male,True
390,0.0678357899170423,25,up,down,0.8552845999947749,1.3920165802733573,,experiment,cRDM,1.0,,,,1118.579698799993,190,26,male,True
391,0.0678357899170423,25,up,up,0.9330512000015004,1.5686307203256251,,experiment,cRDM,1.0,,,,1121.2629312000065,190,26,male,True
392,0.0678357899170423,25,down,up,0.7394834999868181,1.71792066281805,,experiment,cRDM,1.0,,,,1124.1794941000117,190,26,male,True
393,0.0678357899170423,25,up,up,0.6173218000039924,1.5141323397572173,,experiment,cRDM,1.0,,,,1126.7126796999946,190,26,male,True
394,0.0678357899170423,25,down,up,0.7707365999813192,1.4826372683229294,,experiment,cRDM,1.0,,,,1129.07931619999,190,26,male,True
395,0.0678357899170423,25,down,down,1.0684394999989308,0.5059426056659256,,experiment,cRDM,1.0,,,,1130.6125685999868,190,26,male,True
396,0.0678357899170423,25,down,down,1.005170399992494,1.365227094742019,,experiment,cRDM,1.0,,,,1133.2958004999964,190,26,male,True
397,0.0678357899170423,25,up,up,0.8113027999934275,1.3278689934029495,,experiment,cRDM,1.0,,,,1135.8957062000118,190,26,male,True
398,0.0678357899170423,25,up,up,0.9303478000219912,1.1798681347134952,,experiment,cRDM,1.0,,,,1138.1456464999935,190,26,male,True
399,0.0678357899170423,25,down,down,0.8690088999865111,0.3002327592748426,,experiment,cRDM,1.0,,,,1139.6289680000043,190,26,male,True
400,0.0678357899170423,25,down,down,1.3134682000090834,0.3751920120307143,,experiment,cRDM,1.0,,,,1141.1455314999912,190,26,male,True
401,0.0678357899170423,25,up,up,0.8002477000118233,1.907172411902084,,experiment,cRDM,1.0,,,,1144.628736499988,190,26,male,True
402,0.0678357899170423,25,up,down,0.7673662999877706,1.4421992702227011,,experiment,cRDM,1.0,,,,1147.1285971000034,190,26,male,True
403,0.0678357899170423,25,up,up,0.8513672999979462,0.676394036268444,,experiment,cRDM,1.0,,,,1148.8285947999975,190,26,male,True
404,0.0678357899170423,25,up,down,0.6324058000172954,1.1832618911345594,,experiment,cRDM,1.0,,,,1151.1286346999989,190,26,male,True
405,0.0678357899170423,25,up,up,1.2074796999804676,0.5510915486062411,,experiment,cRDM,1.0,,,,1152.5784629000118,190,26,male,True
406,0.0678357899170423,25,down,down,0.7206196000042837,1.0841836027940666,,experiment,cRDM,1.0,,,,1155.1283546999912,190,26,male,True
407,0.0678357899170423,25,down,up,1.0466829000215512,0.4062977235352136,,experiment,cRDM,1.0,,,,1156.5282978999894,190,26,male,True
408,0.0678357899170423,25,up,up,0.8941040999779943,0.7013506047093125,,experiment,cRDM,1.0,,,,1158.5448622000113,190,26,male,True
409,0.0678357899170423,25,down,down,0.724806099984562,1.5145984454445611,,experiment,cRDM,1.0,,,,1161.228146700014,190,26,male,True
410,0.0678357899170423,25,down,up,0.72994680001284,0.3241430095860763,,experiment,cRDM,1.0,,,,1162.528077199997,190,26,male,True
411,0.0678357899170423,25,down,down,0.7533082999871112,1.319627959044491,,experiment,cRDM,1.0,,,,1164.8446674000006,190,26,male,True
412,0.0678357899170423,25,up,down,1.223053900001105,1.2215030717362618,,experiment,cRDM,1.0,,,,1167.077908100007,190,26,male,True
413,0.0678357899170423,25,down,down,0.6871574000106193,1.019907808745659,,experiment,cRDM,1.0,,,,1169.5778271000015,190,26,male,True
414,0.0678357899170423,25,down,down,0.6489010999794118,1.286136526643321,,experiment,cRDM,1.0,,,,1171.8110523000068,190,26,male,True
415,0.0678357899170423,25,down,up,0.907972199987853,0.9416420645624072,,experiment,cRDM,1.0,,,,1173.661004900001,190,26,male,True
416,0.0678357899170423,25,up,up,0.6940876999869943,1.0806634026366244,,experiment,cRDM,1.0,,,,1175.9109014999997,190,26,male,True
417,0.0678357899170423,25,up,down,0.7747466999862809,0.5837196160210353,,experiment,cRDM,1.0,,,,1177.444232899987,190,26,male,True
418,0.0678357899170423,25,down,up,1.1675122999877203,0.641874293049016,,experiment,cRDM,1.0,,,,1179.127462000004,190,26,male,True
419,0.0678357899170423,25,up,up,0.6466164999874309,1.5373392910503745,,experiment,cRDM,1.0,,,,1182.0773662000138,190,26,male,True
420,0.0678357899170423,25,down,up,1.0163765999895986,1.2202755724271968,,experiment,cRDM,1.0,,,,1184.210605500004,190,26,male,True
421,0.0678357899170423,25,up,up,0.6784581000101753,1.859991920637259,,experiment,cRDM,1.0,,,,1187.3604947999993,190,26,male,True
422,0.0678357899170423,25,up,up,0.7152950000017881,0.7333478677619543,,experiment,cRDM,1.0,,,,1189.0438205999965,190,26,male,True
423,93.0,25,M,down,1.1570315999852028,1.9721455597269528,,experiment,emotion,1.0,,,,1211.992961400014,190,26,male,True
424,84.0,25,M,down,0.616756000003079,0.9380955585322276,,experiment,emotion,1.0,,,,1214.3762311000028,190,26,male,True
425,90.0,25,F,down,0.932227800018154,1.8259422693768772,,experiment,emotion,1.0,,,,1217.0928015999962,190,26,male,True
426,93.0,25,F,up,0.521967400010908,0.7641431715935048,,experiment,emotion,1.0,,,,1219.0760619000066,190,26,male,True
427,90.0,25,M,down,0.8052888999809511,0.892990656342106,,experiment,emotion,1.0,,,,1220.742682000011,190,26,male,True
428,87.0,25,F,down,0.6759562999941409,0.590228327035049,,experiment,emotion,1.0,,,,1222.4259483999922,190,26,male,True
429,84.0,25,M,down,0.6715203000057954,1.9514907066020597,,experiment,emotion,1.0,,,,1225.342453899997,190,26,male,True
430,87.0,25,M,down,0.776974300009897,1.8258060534204208,,experiment,emotion,1.0,,,,1228.1090091000078,190,26,male,True
431,93.0,25,F,down,0.7663537000189535,1.7808445506793182,,experiment,emotion,1.0,,,,1230.9256358999992,190,26,male,True
432,87.0,25,F,down,0.7204227999900468,0.9590337712133736,,experiment,emotion,1.0,,,,1232.9255460000131,190,26,male,True
433,90.0,25,F,down,0.730805999977747,0.5236408455055472,,experiment,emotion,1.0,,,,1234.442169099988,190,26,male,True
434,93.0,25,F,down,0.826871500001289,1.307132062027772,,experiment,emotion,1.0,,,,1236.7420939999863,190,26,male,True
435,90.0,25,F,down,0.6983051999995951,1.2280028577021531,,experiment,emotion,1.0,,,,1239.0586617999943,190,26,male,True
436,84.0,25,F,down,0.6930456000263803,0.7381320283434136,,experiment,emotion,1.0,,,,1240.7919213999994,190,26,male,True
437,87.0,25,M,down,0.5724351000098977,0.4536112922589144,,experiment,emotion,1.0,,,,1242.2085213999962,190,26,male,True
438,84.0,25,M,down,0.6475068999861833,1.5125654016246113,,experiment,emotion,1.0,,,,1244.5584582999873,190,26,male,True
439,93.0,25,M,down,0.5656293999927584,1.781089208692101,,experiment,emotion,1.0,,,,1247.2583424999902,190,26,male,True
440,84.0,25,M,down,0.5763646000123117,1.1852796495732694,,experiment,emotion,1.0,,,,1249.2916151999962,190,26,male,True
441,90.0,25,F,up,1.110690399975283,0.6210984098871843,,experiment,emotion,1.0,,,,1250.7582322999951,190,26,male,True
442,90.0,25,M,down,0.674141099996632,0.7405048862381514,,experiment,emotion,1.0,,,,1252.874823799997,190,26,male,True
443,87.0,25,M,up,0.8253426000010222,1.5984778998703466,,experiment,emotion,1.0,,,,1255.4246505000046,190,26,male,True
444,87.0,25,F,down,0.8266787999891676,1.8226603948519076,,experiment,emotion,1.0,,,,1258.3412948999903,190,26,male,True
445,84.0,25,M,down,1.0134488000185229,0.4266797634449416,,experiment,emotion,1.0,,,,1259.874549500004,190,26,male,True
446,93.0,25,F,down,1.08652370001073,0.4165595050645661,,experiment,emotion,1.0,,,,1261.5744943000027,190,26,male,True
447,90.0,25,F,down,1.01420540001709,0.6252844304151735,,experiment,emotion,1.0,,,,1263.5577561999962,190,26,male,True
448,84.0,25,M,down,0.762934900005348,0.8752422169253244,,experiment,emotion,1.0,,,,1265.7410259000026,190,26,male,True
449,93.0,25,M,down,0.9994018999859692,1.5354796538891624,,experiment,emotion,1.0,,,,1268.3075609999942,190,26,male,True
450,93.0,25,F,up,0.8048207999963779,0.8500622720935391,,experiment,emotion,1.0,,,,1270.4241429000103,190,26,male,True
451,87.0,25,M,down,0.8651691999984905,0.8185603803477106,,experiment,emotion,1.0,,,,1272.3407660000084,190,26,male,True
452,84.0,25,F,down,0.8615914999973029,0.5806340434531161,,experiment,emotion,1.0,,,,1274.0573743999994,190,26,male,True
453,87.0,25,F,down,0.9507167999981904,1.43062502107645,,experiment,emotion,1.0,,,,1276.6072465000034,190,26,male,True
454,90.0,25,F,up,0.8904983999964315,1.948428480635528,,experiment,emotion,1.0,,,,1279.7904694000026,190,26,male,True
455,84.0,25,M,down,0.7115634999936447,1.3068446471204875,,experiment,emotion,1.0,,,,1282.2404233000125,190,26,male,True
456,93.0,25,M,up,0.8156191000016406,1.2238525033428995,,experiment,emotion,1.0,,,,1284.4903320999874,190,26,male,True
457,90.0,25,M,down,0.7634521999862045,0.8619260441205046,,experiment,emotion,1.0,,,,1286.4235000000044,190,26,male,True
458,93.0,25,F,up,0.9648048999952152,1.6716085726909098,,experiment,emotion,1.0,,,,1289.1401459999906,190,26,male,True
459,84.0,25,F,down,0.7359127999807242,1.667267413225621,,experiment,emotion,1.0,,,,1292.0400549999904,190,26,male,True
460,90.0,25,M,down,0.755658800015226,1.380514600207655,,experiment,emotion,1.0,,,,1294.423296299996,190,26,male,True
461,87.0,25,F,down,1.404784100013785,1.2145135090209094,,experiment,emotion,1.0,,,,1296.6732048999984,190,26,male,True
462,87.0,25,M,down,0.8988320999778807,0.8715943235497539,,experiment,emotion,1.0,,,,1299.2231206000142,190,26,male,True
463,90.0,25,M,down,0.7889509000233375,1.9440483172421157,,experiment,emotion,1.0,,,,1302.3230033,190,26,male,True
464,93.0,25,M,down,0.8114250999933574,1.9857076873434305,,experiment,emotion,1.0,,,,1305.389528700005,190,26,male,True
465,87.0,25,F,down,0.6831590000074357,0.9536770708028736,,experiment,emotion,1.0,,,,1307.422808000003,190,26,male,True
466,84.0,25,F,down,0.7656085999915376,0.4974445407703234,,experiment,emotion,1.0,,,,1308.8893843000114,190,26,male,True
467,84.0,25,M,down,0.643597000016598,1.0098386353375106,,experiment,emotion,1.0,,,,1310.9393531999958,190,26,male,True
468,87.0,25,F,up,0.9960779000248294,1.9061607151640887,,experiment,emotion,1.0,,,,1313.755900499993,190,26,male,True
469,93.0,25,F,down,0.7524820000107866,1.1610922321393295,,experiment,emotion,1.0,,,,1316.1724628999946,190,26,male,True
470,90.0,25,M,up,0.8175487999978941,1.4697529197532535,,experiment,emotion,1.0,,,,1318.672403900011,190,26,male,True
471,84.0,25,M,down,1.012275100016268,0.5933130776800752,,experiment,emotion,1.0,,,,1320.355679500004,190,26,male,True
472,93.0,25,F,down,0.9507555000018328,0.9831413442862456,,experiment,emotion,1.0,,,,1322.6222490000073,190,26,male,True
473,90.0,25,M,down,0.8164908000035211,1.6177779304253863,,experiment,emotion,1.0,,,,1325.4554587999885,190,26,male,True
474,90.0,25,F,down,0.7358636000135448,0.3756881612781841,,experiment,emotion,1.0,,,,1326.9220903000096,190,26,male,True
475,84.0,25,F,up,0.6826735999784432,0.7835341162026233,,experiment,emotion,1.0,,,,1328.7053170000145,190,26,male,True
476,87.0,25,F,down,0.7693358000251465,1.2187625422369528,,experiment,emotion,1.0,,,,1330.8885988999973,190,26,male,True
477,93.0,25,M,up,0.7707490000175312,0.93732926165817,,experiment,emotion,1.0,,,,1332.8551976000017,190,26,male,True
478,87.0,25,M,down,0.7898443999874871,1.4106119062984066,,experiment,emotion,1.0,,,,1335.3050833999878,190,26,male,True
479,87.0,25,F,up,0.8206214999954682,1.5390875530598958,,experiment,emotion,1.0,,,,1337.8883338999876,190,26,male,True
480,87.0,25,F,down,0.6936623000074178,0.5701760928877737,,experiment,emotion,1.0,,,,1339.5382830000017,190,26,male,True
481,93.0,25,M,down,0.7020582999975886,0.9596727249215592,,experiment,emotion,1.0,,,,1341.4548899999936,190,26,male,True
482,90.0,25,M,down,0.9219245999993292,1.444173130229827,,experiment,emotion,1.0,,,,1343.888112399989,190,26,male,True
483,84.0,25,M,down,0.837928799999645,1.112093870256769,,experiment,emotion,1.0,,,,1346.1880203000037,190,26,male,True
484,84.0,25,M,up,0.74736920002033,1.7050427618037487,,experiment,emotion,1.0,,,,1349.0045839000086,190,26,male,True
485,90.0,25,M,down,0.7514523999998346,1.081138140960916,,experiment,emotion,1.0,,,,1351.104518100008,190,26,male,True
486,93.0,25,F,down,0.9815094999794384,0.6666152175823342,,experiment,emotion,1.0,,,,1352.804468199989,190,26,male,True
487,93.0,25,F,up,0.8535992999968585,1.3433015528311654,,experiment,emotion,1.0,,,,1355.4043464999995,190,26,male,True
488,84.0,25,M,up,1.1801294999895615,0.8939411149340506,,experiment,emotion,1.0,,,,1357.4208522000115,190,26,male,True
489,93.0,25,F,up,0.8727498000080232,1.1946834153967016,,experiment,emotion,1.0,,,,1360.0542025000032,190,26,male,True
490,87.0,25,F,down,1.1034940000099596,0.7793795213120968,,experiment,emotion,1.0,,,,1361.9874566000071,190,26,male,True
491,90.0,25,F,down,1.3089039000042249,0.575852405979738,,experiment,emotion,1.0,,,,1363.9540443999867,190,26,male,True
492,87.0,25,M,down,1.1206755000166595,0.6129124297204319,,experiment,emotion,1.0,,,,1366.1372697000045,190,26,male,True
493,84.0,25,F,up,0.9690676000027452,1.261469228849824,,experiment,emotion,1.0,,,,1368.8038795999892,190,26,male,True
494,90.0,25,F,down,0.7694596000073943,0.7315839190929896,,experiment,emotion,1.0,,,,1370.7704846000124,190,26,male,True
495,87.0,25,F,down,0.792868400021689,0.6749372788098822,,experiment,emotion,1.0,,,,1372.4870846999984,190,26,male,True
496,90.0,25,M,down,0.6663023000000976,0.6619171838483124,,experiment,emotion,1.0,,,,1374.203638100007,190,26,male,True
497,84.0,25,M,down,1.038990399974864,0.3062293397804063,,experiment,emotion,1.0,,,,1375.4369751999911,190,26,male,True
498,93.0,25,F,down,0.939756599982502,0.6764728291721291,,experiment,emotion,1.0,,,,1377.4202146999887,190,26,male,True
499,90.0,25,M,down,0.8261625999875832,0.7255973463536354,,experiment,emotion,1.0,,,,1379.3368451000133,190,26,male,True
500,93.0,25,F,down,0.8406029999896418,0.9612619987371536,,experiment,emotion,1.0,,,,1381.4033355000138,190,26,male,True
501,84.0,25,M,down,0.8776711000245996,1.6746406220147063,,experiment,emotion,1.0,,,,1384.2032493999868,190,26,male,True
502,87.0,25,M,down,0.7447329999995418,1.207296792570933,,experiment,emotion,1.0,,,,1386.5532071999914,190,26,male,True
503,0.0678357899170423,25,up,up,1.075832300004549,1.982733420953776,,experiment,cRDM,2.0,,,,1397.9360661999965,190,26,male,True
504,0.0678357899170423,25,up,down,0.6429422000073828,0.4611034759490989,,experiment,cRDM,2.0,,,,1399.735999299999,190,26,male,True
505,0.0678357899170423,25,down,up,0.6366776000068057,1.9457885651900528,,experiment,cRDM,2.0,,,,1402.569234299997,190,26,male,True
506,0.0678357899170423,25,down,down,0.6714311999967322,0.7849324381685383,,experiment,cRDM,2.0,,,,1404.2525119000056,190,26,male,True
507,0.0678357899170423,25,up,up,0.7069001000199933,1.4800169300700632,,experiment,cRDM,2.0,,,,1406.6690760999918,190,26,male,True
508,0.0678357899170423,25,down,down,0.7235731999971904,0.3217447794572597,,experiment,cRDM,2.0,,,,1407.9523670999915,190,26,male,True
509,0.0678357899170423,25,up,up,0.5470384000218473,1.5731266899983551,,experiment,cRDM,2.0,,,,1410.518960699992,190,26,male,True
510,0.0678357899170423,25,up,up,0.6950866999977734,1.0455294097602523,,experiment,cRDM,2.0,,,,1412.3688510000063,190,26,male,True
511,0.0678357899170423,25,down,down,0.6875051000097301,1.913285118157424,,experiment,cRDM,2.0,,,,1415.2354305000044,190,26,male,True
512,0.0678357899170423,25,down,down,0.75960479999776,0.602869931616227,,experiment,cRDM,2.0,,,,1416.7853553000025,190,26,male,True
513,0.0678357899170423,25,down,up,1.1709675999882163,0.4522555330560194,,experiment,cRDM,2.0,,,,1418.2519724000013,190,26,male,True
514,0.0678357899170423,25,down,up,0.7637633999984246,1.3893578062605256,,experiment,cRDM,2.0,,,,1421.0851870999904,190,26,male,True
515,0.0678357899170423,25,down,down,0.6758373000193387,1.27949272171882,,experiment,cRDM,2.0,,,,1423.385108699993,190,26,male,True
516,0.0678357899170423,25,down,down,0.6762163000239525,1.5356478622663792,,experiment,cRDM,2.0,,,,1425.8517217999906,190,26,male,True
517,0.0678357899170423,25,up,up,0.8183423999871593,1.4158472112343237,,experiment,cRDM,2.0,,,,1428.2015974000096,190,26,male,True
518,0.0678357899170423,25,up,up,0.7560418000211939,0.5971412223220849,,experiment,cRDM,2.0,,,,1429.8848639999924,190,26,male,True
519,0.0678357899170423,25,up,up,0.6801426000020001,1.82156807101108,,experiment,cRDM,2.0,,,,1432.7347975999874,190,26,male,True
520,0.0678357899170423,25,up,up,0.7372073000005912,0.3028506019997579,,experiment,cRDM,2.0,,,,1433.9847202000092,190,26,male,True
521,0.0678357899170423,25,down,down,0.6116521999938414,1.6810179681970956,,experiment,cRDM,2.0,,,,1436.6512855000035,190,26,male,True
522,0.0678357899170423,25,up,up,0.7633945000125095,1.2069284719173012,,experiment,cRDM,2.0,,,,1438.7345625000016,190,26,male,True
523,0.0678357899170423,25,up,down,0.8188070000032894,1.6410859368287942,,experiment,cRDM,2.0,,,,1441.4011294000084,190,26,male,True
524,0.0678357899170423,25,down,down,0.7028634999878705,0.8143712561912559,,experiment,cRDM,2.0,,,,1443.301049600006,190,26,male,True
525,0.0678357899170423,25,up,up,0.6642904999898747,1.403256446812739,,experiment,cRDM,2.0,,,,1445.6676447000063,190,26,male,True
526,0.0678357899170423,25,down,down,0.5753346999990754,0.7177541856647593,,experiment,cRDM,2.0,,,,1447.317590199993,190,26,male,True
527,0.0678357899170423,25,down,up,0.6134768000047188,1.9217632983750157,,experiment,cRDM,2.0,,,,1450.067484900006,190,26,male,True
528,0.0678357899170423,25,up,up,0.707589800003916,1.7641301619572036,,experiment,cRDM,2.0,,,,1452.7173691999924,190,26,male,True
529,0.0678357899170423,25,up,up,0.7289541000209283,1.258629679542641,,experiment,cRDM,2.0,,,,1454.9339977999916,190,26,male,True
530,0.0678357899170423,25,down,down,0.7880244999832939,0.6491655268828393,,experiment,cRDM,2.0,,,,1456.5839245000095,190,26,male,True
531,0.0678357899170423,25,up,up,0.5871537999773864,0.5959389206345462,,experiment,cRDM,2.0,,,,1458.2338076999877,190,26,male,True
532,0.0678357899170423,25,down,down,0.791470099997241,0.4725939510964887,,experiment,cRDM,2.0,,,,1459.5504575000086,190,26,male,True
533,0.0678357899170423,25,down,up,0.6645625999954063,1.5391509977653195,,experiment,cRDM,2.0,,,,1462.1503729000106,190,26,male,True
534,0.0678357899170423,25,down,down,0.7106676000112202,1.8230460945779892,,experiment,cRDM,2.0,,,,1464.9002492,190,26,male,True
535,0.0678357899170423,25,up,up,0.5560091000224929,0.3008958577798605,,experiment,cRDM,2.0,,,,1466.1668897999916,190,26,male,True
536,0.0678357899170423,25,up,up,0.977521099994192,1.9061104968131235,,experiment,cRDM,2.0,,,,1468.883427599998,190,26,male,True
537,0.0678357899170423,25,up,up,0.6665504999982659,0.9703827333476898,,experiment,cRDM,2.0,,,,1471.083376900002,190,26,male,True
538,0.0678357899170423,25,down,down,0.8195848999894224,1.618568727705766,,experiment,cRDM,2.0,,,,1473.6333282999983,190,26,male,True
539,0.0678357899170423,25,down,up,0.7540631000010762,1.4395371736957374,,experiment,cRDM,2.0,,,,1476.1498664999965,190,26,male,True
540,0.0678357899170423,25,up,up,0.6768459999875631,0.959464338024186,,experiment,cRDM,2.0,,,,1478.133107600006,190,26,male,True
541,0.0678357899170423,25,down,down,0.6295065000012983,1.0497692815945372,,experiment,cRDM,2.0,,,,1480.1164222999942,190,26,male,True
542,0.0678357899170423,25,up,up,0.7243498000025284,1.0031536847967284,,experiment,cRDM,2.0,,,,1481.9996284999943,190,26,male,True
543,0.0678357899170423,25,up,up,0.6859862999990582,0.9103240093983312,,experiment,cRDM,2.0,,,,1483.8828857000044,190,26,male,True
544,0.0678357899170423,25,up,down,0.7655771000136156,1.4110710976305585,,experiment,cRDM,2.0,,,,1486.2494796999963,190,26,male,True
545,0.0678357899170423,25,down,down,0.6371220999862999,0.6671500989922646,,experiment,cRDM,2.0,,,,1487.9327926000117,190,26,male,True
546,0.0678357899170423,25,down,down,0.6832698000071105,1.897823219922052,,experiment,cRDM,2.0,,,,1490.7326510999992,190,26,male,True
547,0.0678357899170423,25,up,up,0.8403977999987546,0.6040452279623035,,experiment,cRDM,2.0,,,,1492.2825676999928,190,26,male,True
548,0.0678357899170423,25,down,down,0.7531133000156842,1.8846194976347443,,experiment,cRDM,2.0,,,,1495.265822699992,190,26,male,True
549,0.0678357899170423,25,down,down,0.7742202999943402,1.0274947249794188,,experiment,cRDM,2.0,,,,1497.3157369999972,190,26,male,True
550,0.0678357899170423,25,up,up,0.595662599982461,1.226783450199903,,experiment,cRDM,2.0,,,,1499.5823007000145,190,26,male,True
551,0.0678357899170423,25,up,up,0.8090319999901112,1.272443022741381,,experiment,cRDM,2.0,,,,1501.698893599998,190,26,male,True
552,0.0678357899170423,25,down,up,0.7224642000219319,1.889646602663824,,experiment,cRDM,2.0,,,,1504.665464199992,190,26,male,True
553,0.0678357899170423,25,up,up,0.668839999998454,0.3843457136206318,,experiment,cRDM,2.0,,,,1506.0320869999996,190,26,male,True
554,0.0678357899170423,25,down,down,1.075979199988069,1.7116404693153104,,experiment,cRDM,2.0,,,,1508.681971699989,190,26,male,True
555,0.0678357899170423,25,down,up,1.1186696000222582,0.9617804878258268,,experiment,cRDM,2.0,,,,1510.965255499992,190,26,male,True
556,0.0678357899170423,25,down,up,0.8374715999816544,1.983053733552426,,experiment,cRDM,2.0,,,,1514.348455600004,190,26,male,True
557,0.0678357899170423,25,up,up,0.7312123999872711,1.5771825904339007,,experiment,cRDM,2.0,,,,1517.0316828000068,190,26,male,True
558,0.0678357899170423,25,up,up,0.5927076000079978,1.9277230321886951,,experiment,cRDM,2.0,,,,1519.9482410000055,190,26,male,True
559,0.0678357899170423,25,down,down,0.5650678000238258,1.2146525585335783,,experiment,cRDM,2.0,,,,1522.0148549999867,190,26,male,True
560,0.0678357899170423,25,down,down,0.8955011999933049,0.6820112692539411,,experiment,cRDM,2.0,,,,1523.531438200007,190,26,male,True
561,0.0678357899170423,25,up,up,0.6265889999922365,1.686774270414278,,experiment,cRDM,2.0,,,,1526.3813059999957,190,26,male,True
562,0.0678357899170423,25,up,up,0.5633462000114378,1.8406052709284264,,experiment,cRDM,2.0,,,,1529.1146239000082,190,26,male,True
563,0.0678357899170423,25,up,up,0.7097236999834422,1.105880699344117,,experiment,cRDM,2.0,,,,1531.0311789000116,190,26,male,True
564,0.0678357899170423,25,up,up,0.5975328000204172,1.158164648070641,,experiment,cRDM,2.0,,,,1533.1644200999872,190,26,male,True
565,0.0678357899170423,25,up,up,0.6222751000022981,0.8781172687723395,,experiment,cRDM,2.0,,,,1534.8976771000016,190,26,male,True
566,0.0678357899170423,25,down,down,0.8346519999904558,1.478183599931291,,experiment,cRDM,2.0,,,,1537.2642676999967,190,26,male,True
567,0.0678357899170423,25,down,up,0.6890801999834366,1.2142723246154914,,experiment,cRDM,2.0,,,,1539.5808397000071,190,26,male,True
568,0.0678357899170423,25,up,up,0.6331783000205178,1.813552401395901,,experiment,cRDM,2.0,,,,1542.3307454999886,190,26,male,True
569,0.0678357899170423,25,down,down,0.5969387000077404,1.7454782555278157,,experiment,cRDM,2.0,,,,1544.963976500003,190,26,male,True
570,0.0678357899170423,25,down,up,0.6783220999932382,1.4018931743979617,,experiment,cRDM,2.0,,,,1547.2305632999924,190,26,male,True
571,0.0678357899170423,25,down,down,0.6120158999983687,0.3495740239690224,,experiment,cRDM,2.0,,,,1548.5138809999917,190,26,male,True
572,0.0678357899170423,25,up,up,1.1204629999992903,0.5334237434260205,,experiment,cRDM,2.0,,,,1549.9304581999895,190,26,male,True
573,0.0678357899170423,25,down,down,1.011562600004254,0.8755984105366115,,experiment,cRDM,2.0,,,,1552.1803519999958,190,26,male,True
574,0.0678357899170423,25,down,down,0.6261640000157058,1.8222041300630651,,experiment,cRDM,2.0,,,,1555.2969316999952,190,26,male,True
575,0.0678357899170423,25,down,down,0.7811104999855161,1.8025860098038684,,experiment,cRDM,2.0,,,,1557.9968063000124,190,26,male,True
576,0.0678357899170423,25,up,up,0.9984919000125956,1.2795460249001684,,experiment,cRDM,2.0,,,,1560.313457799988,190,26,male,True
577,0.0678357899170423,25,up,down,0.8359330999956001,1.3417299585600249,,experiment,cRDM,2.0,,,,1562.929990900011,190,26,male,True
578,0.0678357899170423,25,down,down,1.032980299991323,0.8873198479166025,,experiment,cRDM,2.0,,,,1564.929917900008,190,26,male,True
579,0.0678357899170423,25,up,down,0.7781535999965854,1.958243900590376,,experiment,cRDM,2.0,,,,1568.1797690000094,190,26,male,True
580,0.0678357899170423,25,down,down,0.6778670999919996,1.5419243744578202,,experiment,cRDM,2.0,,,,1570.7630429000128,190,26,male,True
581,0.0678357899170423,25,up,up,1.1672916999959853,0.3785966339929363,,experiment,cRDM,2.0,,,,1572.0796476000105,190,26,male,True
582,0.0678357899170423,25,up,up,0.7766138000006322,0.3272543219236348,,experiment,cRDM,2.0,,,,1573.846264599997,190,26,male,True
583,93.0,25,M,down,0.8486091999802738,1.574466340056944,,experiment,emotion,2.0,,,,1581.4793555999931,190,26,male,True
584,84.0,25,M,down,0.8409529999771621,1.37256799856005,,experiment,emotion,2.0,,,,1583.995939000015,190,26,male,True
585,90.0,25,F,down,0.7984008999774233,1.3436831262812767,,experiment,emotion,2.0,,,,1586.462519699999,190,26,male,True
586,93.0,25,F,up,0.8431113999977242,1.458962358298881,,experiment,emotion,2.0,,,,1588.9958246999886,190,26,male,True
587,90.0,25,M,down,0.9456506000133232,1.512770192337732,,experiment,emotion,2.0,,,,1591.6122800000012,190,26,male,True
588,87.0,25,F,down,0.5886591000016779,0.4202893768889528,,experiment,emotion,2.0,,,,1593.2622518000137,190,26,male,True
589,84.0,25,M,down,1.0647197999933269,0.3031669915465209,,experiment,emotion,2.0,,,,1594.4121895999997,190,26,male,True
590,87.0,25,M,down,0.6731978000025265,1.8304432850013168,,experiment,emotion,2.0,,,,1597.578759600001,190,26,male,True
591,93.0,25,F,down,0.65928389999317,1.965512070233344,,experiment,emotion,2.0,,,,1600.4786422000034,190,26,male,True
592,87.0,25,F,down,0.7887072000012267,0.489080037052568,,experiment,emotion,2.0,,,,1601.8952014000097,190,26,male,True
593,90.0,25,F,up,0.916809699992882,1.63798924373794,,experiment,emotion,2.0,,,,1604.59509789999,190,26,male,True
594,93.0,25,F,down,0.7994578000216279,0.4408569690446655,,experiment,emotion,2.0,,,,1606.2284540999972,190,26,male,True
595,90.0,25,F,down,0.8481269000039902,1.5198539872591734,,experiment,emotion,2.0,,,,1608.811710400012,190,26,male,True
596,84.0,25,F,down,0.7426424000004772,0.7883973195739296,,experiment,emotion,2.0,,,,1610.728297099995,190,26,male,True
597,87.0,25,M,down,1.2371178999892436,1.863149116125594,,experiment,emotion,2.0,,,,1613.5947957999888,190,26,male,True
598,84.0,25,M,up,0.8244580999889877,0.4149830643771793,,experiment,emotion,2.0,,,,1615.511456200009,190,26,male,True
599,93.0,25,M,up,0.7918218999984674,0.738236912257479,,experiment,emotion,2.0,,,,1617.3280637999997,190,26,male,True
600,84.0,25,M,up,0.7807197000074666,1.6201954130735652,,experiment,emotion,2.0,,,,1620.011266299989,190,26,male,True
601,90.0,25,F,down,0.8261179999972228,1.5553218621178395,,experiment,emotion,2.0,,,,1622.6278399000005,190,26,male,True
602,90.0,25,M,up,0.7477969999890774,1.1289499622943333,,experiment,emotion,2.0,,,,1624.8611048999885,190,26,male,True
603,87.0,25,M,up,0.8578544000047259,0.5221946996477338,,experiment,emotion,2.0,,,,1626.411062900006,190,26,male,True
604,87.0,25,F,up,0.8006003999907989,0.4128799362984567,,experiment,emotion,2.0,,,,1627.9443283999865,190,26,male,True
605,84.0,25,M,up,0.7894166000187397,1.823533519702832,,experiment,emotion,2.0,,,,1630.8275746,190,26,male,True
606,93.0,25,F,up,0.6371327000088058,1.5650135647035643,,experiment,emotion,2.0,,,,1633.4607715999882,190,26,male,True
607,90.0,25,F,down,1.0169072000135202,0.424460361108505,,experiment,emotion,2.0,,,,1634.7939972000022,190,26,male,True
608,84.0,25,M,down,0.7926314999931492,1.1886607967404057,,experiment,emotion,2.0,,,,1637.277306300006,190,26,male,True
609,93.0,25,M,down,0.8660137999977451,0.5488566585663913,,experiment,emotion,2.0,,,,1638.8938850999984,190,26,male,True
610,93.0,25,F,up,0.7938213000015821,1.7542439456957122,,experiment,emotion,2.0,,,,1641.7771194000088,190,26,male,True
611,87.0,25,M,down,0.7991987999994308,1.0407599804308263,,experiment,emotion,2.0,,,,1643.8936786999984,190,26,male,True
612,84.0,25,F,down,0.8722953000105917,0.7409673721819849,,experiment,emotion,2.0,,,,1645.6936411999925,190,26,male,True
613,87.0,25,F,down,1.038358599995263,1.866625710176608,,experiment,emotion,2.0,,,,1648.6935244000051,190,26,male,True
614,90.0,25,F,down,0.7754587999952491,0.6752848291771201,,experiment,emotion,2.0,,,,1650.693467200006,190,26,male,True
615,84.0,25,M,down,0.8141803999897093,1.2954085184174904,,experiment,emotion,2.0,,,,1653.0267292000062,190,26,male,True
616,93.0,25,M,up,0.7219097000197507,0.9596533825295428,,experiment,emotion,2.0,,,,1655.0599881999951,190,26,male,True
617,90.0,25,M,up,0.8190526999824215,1.5073861003517717,,experiment,emotion,2.0,,,,1657.55987669999,190,26,male,True
618,93.0,25,F,down,0.9168143999995664,1.542128703949785,,experiment,emotion,2.0,,,,1660.1930736000068,190,26,male,True
619,84.0,25,F,down,0.5930183999880683,1.698980160376925,,experiment,emotion,2.0,,,,1663.0929403000046,190,26,male,True
620,90.0,25,M,down,0.8733153000066523,1.801486457597005,,experiment,emotion,2.0,,,,1665.7595839000132,190,26,male,True
621,87.0,25,F,down,0.7547317999997176,0.3733572407604486,,experiment,emotion,2.0,,,,1667.2761862000043,190,26,male,True
622,87.0,25,M,up,0.7493969999777619,0.3627735268624494,,experiment,emotion,2.0,,,,1668.6595058999956,190,26,male,True
623,90.0,25,M,down,0.6514582000090741,0.623207348275231,,experiment,emotion,2.0,,,,1670.3094402000131,190,26,male,True
624,93.0,25,M,down,0.8708441999915522,1.6223852563066534,,experiment,emotion,2.0,,,,1672.8760573999898,190,26,male,True
625,87.0,25,F,down,0.97836360000656,1.8905439307875864,,experiment,emotion,2.0,,,,1675.892521200003,190,26,male,True
626,84.0,25,F,up,1.5481491000100505,1.3250588598579367,,experiment,emotion,2.0,,,,1678.4757676000008,190,26,male,True
627,84.0,25,M,up,0.6179123999900185,1.2259404174495758,,experiment,emotion,2.0,,,,1681.509034799994,190,26,male,True
628,87.0,25,F,up,0.7149443999805953,0.4052648487287883,,experiment,emotion,2.0,,,,1682.808974000014,190,26,male,True
629,93.0,25,F,down,0.8480184000218287,1.1529257706568743,,experiment,emotion,2.0,,,,1684.958892399998,190,26,male,True
630,90.0,25,M,up,0.7217952999926638,1.497667919964499,,experiment,emotion,2.0,,,,1687.5921040000103,190,26,male,True
631,84.0,25,M,down,0.7248677000170574,1.0958963550948226,,experiment,emotion,2.0,,,,1689.6920328999986,190,26,male,True
632,93.0,25,F,up,0.7712975000031292,0.8740215062758692,,experiment,emotion,2.0,,,,1691.558623799996,190,26,male,True
633,90.0,25,M,up,0.9497043000010308,1.1823378172409034,,experiment,emotion,2.0,,,,1693.7751925000048,190,26,male,True
634,90.0,25,F,up,0.8150641999964137,0.5050597713735439,,experiment,emotion,2.0,,,,1695.4918299000128,190,26,male,True
635,84.0,25,F,down,0.9678291000018362,1.2996640139781228,,experiment,emotion,2.0,,,,1697.8750497,190,26,male,True
636,87.0,25,F,down,0.8862740000186022,1.2909997929761858,,experiment,emotion,2.0,,,,1700.391606899997,190,26,male,True
637,93.0,25,M,down,0.7653889000066556,0.440589275183978,,experiment,emotion,2.0,,,,1701.9915196000077,190,26,male,True
638,87.0,25,M,down,0.8590899999835528,1.4538491907429052,,experiment,emotion,2.0,,,,1704.474810100015,190,26,male,True
639,87.0,25,F,up,0.9311392000236084,1.616081509301601,,experiment,emotion,2.0,,,,1707.2247423999945,190,26,male,True
640,87.0,25,F,down,0.8169172999914736,0.587959814572451,,experiment,emotion,2.0,,,,1709.0079976000125,190,26,male,True
641,93.0,25,M,up,0.8689625000115484,0.5026442454680288,,experiment,emotion,2.0,,,,1710.6079563999956,190,26,male,True
642,90.0,25,M,up,1.043751399993198,1.6874720092190176,,experiment,emotion,2.0,,,,1713.4411779000077,190,26,male,True
643,84.0,25,M,down,0.8304851000139024,1.8562875955019176,,experiment,emotion,2.0,,,,1716.6243955999962,190,26,male,True
644,84.0,25,M,down,0.9262657999934164,1.691470516866361,,experiment,emotion,2.0,,,,1719.4076272000093,190,26,male,True
645,90.0,25,M,up,0.779759600001853,1.930306556459492,,experiment,emotion,2.0,,,,1722.5241614000115,190,26,male,True
646,93.0,25,F,down,0.8614782000076957,1.9741013543992425,,experiment,emotion,2.0,,,,1725.5573701999965,190,26,male,True
647,93.0,25,F,up,1.1229014999989886,0.5944170318639941,,experiment,emotion,2.0,,,,1727.273982499988,190,26,male,True
648,84.0,25,M,up,1.084656899998663,0.901226232410278,,experiment,emotion,2.0,,,,1729.5572348000132,190,26,male,True
649,93.0,25,F,down,0.7823981000110507,1.722992711331836,,experiment,emotion,2.0,,,,1732.6404955000037,190,26,male,True
650,87.0,25,F,down,1.2925732999865431,0.3296610304703531,,experiment,emotion,2.0,,,,1734.0403719999886,190,26,male,True
651,90.0,25,F,up,0.8415849999873899,1.6213772995805702,,experiment,emotion,2.0,,,,1737.2403058999917,190,26,male,True
652,87.0,25,M,up,0.6767213999992236,0.642320939216466,,experiment,emotion,2.0,,,,1738.9902271000028,190,26,male,True
653,84.0,25,F,up,0.6978139000129886,1.455518230293281,,experiment,emotion,2.0,,,,1741.390102800011,190,26,male,True
654,90.0,25,F,down,1.7128735999867786,0.4279366654805175,,experiment,emotion,2.0,,,,1742.790020199987,190,26,male,True
655,87.0,25,F,down,0.8635407999972813,0.3579743081966889,,experiment,emotion,2.0,,,,1745.123346700013,190,26,male,True
656,90.0,25,M,down,0.681935100001283,0.4956609261426353,,experiment,emotion,2.0,,,,1746.7399627999985,190,26,male,True
657,84.0,25,M,up,0.6980365999916103,1.9504489519707449,,experiment,emotion,2.0,,,,1749.6398502000084,190,26,male,True
658,93.0,25,F,up,0.6338526000035927,1.8918164836390128,,experiment,emotion,2.0,,,,1752.5230669000011,190,26,male,True
659,90.0,25,M,down,0.9369371000211686,1.1515619040125846,,experiment,emotion,2.0,,,,1754.572964799998,190,26,male,True
660,93.0,25,F,up,0.7546046999923419,0.5230987117496451,,experiment,emotion,2.0,,,,1756.3062800999903,190,26,male,True
661,84.0,25,M,up,0.9771458999894094,1.534560204501236,,experiment,emotion,2.0,,,,1758.8728139000011,190,26,male,True
662,87.0,25,M,down,0.8688029000186361,0.7688872216668763,,experiment,emotion,2.0,,,,1760.9061127000025,190,26,male,True
663,0.0678357899170423,25,up,up,0.9930256999796256,0.3807093025859263,,experiment,cRDM,3.0,,,,1774.3888558000035,190,26,male,True
664,0.0678357899170423,25,up,up,0.6511059000040404,1.7962300283333903,,experiment,cRDM,3.0,,,,1777.4387497999996,190,26,male,True
665,0.0678357899170423,25,down,down,0.5295345000049565,1.0003210153788709,,experiment,cRDM,3.0,,,,1779.3553518000117,190,26,male,True
666,0.0678357899170423,25,down,up,0.8819831000000704,1.0228084481413209,,experiment,cRDM,3.0,,,,1781.171924299997,190,26,male,True
667,0.0678357899170423,25,up,up,0.7726805999991484,1.1826657328120531,,experiment,cRDM,3.0,,,,1783.505220799998,190,26,male,True
668,0.0678357899170423,25,down,down,0.8471655999892391,1.1246179549338775,,experiment,cRDM,3.0,,,,1785.6717463000095,190,26,male,True
669,0.0678357899170423,25,up,up,0.6756094000011217,1.4096242689480658,,experiment,cRDM,3.0,,,,1788.188318200002,190,26,male,True
670,0.0678357899170423,25,up,up,0.6500201000017114,1.125068542852894,,experiment,cRDM,3.0,,,,1790.254943900014,190,26,male,True
671,0.0678357899170423,25,down,down,0.6349547000136226,1.0949819595560173,,experiment,cRDM,3.0,,,,1792.254900400003,190,26,male,True
672,0.0678357899170423,25,down,up,0.576124199986225,1.9055804045033704,,experiment,cRDM,3.0,,,,1795.0547581000135,190,26,male,True
673,0.0678357899170423,25,down,up,0.6321697999956086,1.358398760351788,,experiment,cRDM,3.0,,,,1797.2546913000117,190,26,male,True
674,0.0678357899170423,25,down,down,0.5965864000027068,0.9665527252069392,,experiment,cRDM,3.0,,,,1799.1212868999864,190,26,male,True
675,0.0678357899170423,25,down,up,0.6480065000068862,1.0581943536428835,,experiment,cRDM,3.0,,,,1801.037877499999,190,26,male,True
676,0.0678357899170423,25,down,down,0.6004314000019804,1.9121618897613175,,experiment,cRDM,3.0,,,,1803.854446399986,190,26,male,True
677,0.0678357899170423,25,up,up,1.0204711999977008,0.7866680254180558,,experiment,cRDM,3.0,,,,1805.5044097999928,190,26,male,True
678,0.0678357899170423,25,up,up,0.5808843999984674,0.3329497325988529,,experiment,cRDM,3.0,,,,1807.1209875000056,190,26,male,True
679,0.0678357899170423,25,up,up,0.6902824999997392,0.6662491686375696,,experiment,cRDM,3.0,,,,1808.637598100002,190,26,male,True
680,0.0678357899170423,25,up,up,0.6390744999807794,1.6944996540657589,,experiment,cRDM,3.0,,,,1811.2708096000133,190,26,male,True
681,0.0678357899170423,25,down,up,0.7261363000143319,1.9317519690209315,,experiment,cRDM,3.0,,,,1814.1207259999935,190,26,male,True
682,0.0678357899170423,25,up,up,0.6618075000005774,0.4029217498528276,,experiment,cRDM,3.0,,,,1815.504059800005,190,26,male,True
683,0.0678357899170423,25,up,up,0.6996304000203963,1.699344375098632,,experiment,cRDM,3.0,,,,1818.137252399989,190,26,male,True
684,0.0678357899170423,25,down,up,0.6320789000019431,1.7884271005325008,,experiment,cRDM,3.0,,,,1820.9038639999928,190,26,male,True
685,0.0678357899170423,25,up,up,1.1655492999998387,0.4311460876750003,,experiment,cRDM,3.0,,,,1822.2203452000103,190,26,male,True
686,0.0678357899170423,25,down,down,0.6722043000045232,0.9003706185437297,,experiment,cRDM,3.0,,,,1824.553660000005,190,26,male,True
687,0.0678357899170423,25,down,down,0.6466213999956381,1.4405970349857788,,experiment,cRDM,3.0,,,,1826.920265599998,190,26,male,True
688,0.0678357899170423,25,up,up,0.8371121999807656,1.955422665759976,,experiment,cRDM,3.0,,,,1829.786807900004,190,26,male,True
689,0.0678357899170423,25,up,up,0.6468953999865334,1.7705454948663877,,experiment,cRDM,3.0,,,,1832.670010400005,190,26,male,True
690,0.0678357899170423,25,down,down,0.7125025999848731,0.6280976402654818,,experiment,cRDM,3.0,,,,1834.2033507000012,190,26,male,True
691,0.0678357899170423,25,up,down,1.0969741999870166,1.1003108445156995,,experiment,cRDM,3.0,,,,1836.2698951000057,190,26,male,True
692,0.0678357899170423,25,down,down,0.822413099987898,1.5477415566237402,,experiment,cRDM,3.0,,,,1839.186518900009,190,26,male,True
693,0.0678357899170423,25,down,up,0.7064887000015005,1.3615799919808054,,experiment,cRDM,3.0,,,,1841.636383800011,190,26,male,True
694,0.0678357899170423,25,down,down,0.6364949000126217,0.5874274622159754,,experiment,cRDM,3.0,,,,1843.1863836999985,190,26,male,True
695,0.0678357899170423,25,up,up,0.6670028000080492,1.9181271304443637,,experiment,cRDM,3.0,,,,1846.002870199998,190,26,male,True
696,0.0678357899170423,25,up,up,0.6860610000148881,0.6224916944750996,,experiment,cRDM,3.0,,,,1847.5528185000005,190,26,male,True
697,0.0678357899170423,25,up,up,1.1894366999913473,0.7245259503176567,,experiment,cRDM,3.0,,,,1849.219438500004,190,26,male,True
698,0.0678357899170423,25,down,down,0.6341911000199616,1.2237621116552493,,experiment,cRDM,3.0,,,,1851.9026602999947,190,26,male,True
699,0.0678357899170423,25,down,down,0.6983002000197303,1.9056642594405604,,experiment,cRDM,3.0,,,,1854.702558399993,190,26,male,True
700,0.0678357899170423,25,up,up,0.5700675999978557,1.1764132006905283,,experiment,cRDM,3.0,,,,1856.8358280000105,190,26,male,True
701,0.0678357899170423,25,down,down,0.7828464999911375,1.3094782722003044,,experiment,cRDM,3.0,,,,1858.96902650001,190,26,male,True
702,0.0678357899170423,25,up,up,0.5962237000057939,1.320778261072023,,experiment,cRDM,3.0,,,,1861.3356517000063,190,26,male,True
703,0.0678357899170423,25,up,up,0.9046302000060678,0.4571197065346555,,experiment,cRDM,3.0,,,,1862.6522605000064,190,26,male,True
704,0.0678357899170423,25,up,up,0.6124133999983314,0.9094040516394986,,experiment,cRDM,3.0,,,,1864.735520099988,190,26,male,True
705,0.0678357899170423,25,down,down,0.695411900000181,1.431617399080066,,experiment,cRDM,3.0,,,,1867.035458700004,190,26,male,True
706,0.0678357899170423,25,down,down,0.9625522999849636,1.485976489029648,,experiment,cRDM,3.0,,,,1869.4853307000008,190,26,male,True
707,0.0678357899170423,25,up,up,0.5402751000074204,1.7995800056880278,,experiment,cRDM,3.0,,,,1872.5185845000087,190,26,male,True
708,0.0678357899170423,25,down,down,0.6653389999992214,0.5082873358764801,,experiment,cRDM,3.0,,,,1873.8185391000009,190,26,male,True
709,0.0678357899170423,25,down,down,0.5964000999811105,0.4782442472620994,,experiment,cRDM,3.0,,,,1875.218480600015,190,26,male,True
710,0.0678357899170423,25,up,up,0.6188256999885198,1.570146010251703,,experiment,cRDM,3.0,,,,1877.6350564000024,190,26,male,True
711,0.0678357899170423,25,up,up,0.6205424999934621,0.7086577138031671,,experiment,cRDM,3.0,,,,1879.2183266000063,190,26,male,True
712,0.0678357899170423,25,down,up,0.5059874000144191,1.381162385979831,,experiment,cRDM,3.0,,,,1881.4848902999947,190,26,male,True
713,0.0678357899170423,25,up,up,0.6266875000146683,0.6068825029236171,,experiment,cRDM,3.0,,,,1882.868183999992,190,26,male,True
714,0.0678357899170423,25,down,down,0.7871204999973997,1.0867536508983568,,experiment,cRDM,3.0,,,,1884.8347760000036,190,26,male,True
715,0.0678357899170423,25,down,up,0.761178699991433,1.1011835163466157,,experiment,cRDM,3.0,,,,1886.9846842999975,190,26,male,True
716,0.0678357899170423,25,down,up,0.6660455999954138,1.1054704888455928,,experiment,cRDM,3.0,,,,1889.1179630999975,190,26,male,True
717,0.0678357899170423,25,up,up,0.736652999999933,1.961535113624995,,experiment,cRDM,3.0,,,,1892.0012100999884,190,26,male,True
718,0.0678357899170423,25,up,up,0.6610875999904238,0.5699217527113218,,experiment,cRDM,3.0,,,,1893.5677793000068,190,26,male,True
719,0.0678357899170423,25,down,up,0.7194564999954309,0.6985086271673594,,experiment,cRDM,3.0,,,,1895.184398000012,190,26,male,True
720,0.0678357899170423,25,down,down,0.7448981999768876,1.6766483476517131,,experiment,cRDM,3.0,,,,1897.8509676000103,190,26,male,True
721,0.0678357899170423,25,up,down,0.7176312000083271,0.8109468061810865,,experiment,cRDM,3.0,,,,1899.684222300013,190,26,male,True
722,0.0678357899170423,25,up,up,0.7527407000015955,1.9620949168825517,,experiment,cRDM,3.0,,,,1902.6341288000112,190,26,male,True
723,0.0678357899170423,25,up,up,0.9751035000081174,1.055399728944265,,experiment,cRDM,3.0,,,,1904.7007627999992,190,26,male,True
724,0.0678357899170423,25,up,up,0.6898750999826007,0.3934234724551677,,experiment,cRDM,3.0,,,,1906.333989600011,190,26,male,True
725,0.0678357899170423,25,up,up,0.6869459000008646,0.4513975498021562,,experiment,cRDM,3.0,,,,1907.7339280000012,190,26,male,True
726,0.0678357899170423,25,down,down,0.7580182999954559,0.6527793836044808,,experiment,cRDM,3.0,,,,1909.3338812,190,26,male,True
727,0.0678357899170423,25,down,up,0.6807663000072353,1.867790142907316,,experiment,cRDM,3.0,,,,1912.217102900002,190,26,male,True
728,0.0678357899170423,25,up,up,0.6778351000102703,1.5458109640074302,,experiment,cRDM,3.0,,,,1914.7170296999973,190,26,male,True
729,0.0678357899170423,25,down,down,0.9605464999913238,0.7435794292987934,,experiment,cRDM,3.0,,,,1916.4003273000128,190,26,male,True
730,0.0678357899170423,25,down,down,0.6527044999820646,1.2656784190173225,,experiment,cRDM,3.0,,,,1918.9001818000104,190,26,male,True
731,0.0678357899170423,25,down,down,0.6488563000166323,0.923982635091924,,experiment,cRDM,3.0,,,,1920.750145099999,190,26,male,True
732,0.0678357899170423,25,up,down,0.7311778999865055,1.897835426872322,,experiment,cRDM,3.0,,,,1923.5666790000105,190,26,male,True
733,0.0678357899170423,25,down,up,0.9319617000001016,1.6298522873981365,,experiment,cRDM,3.0,,,,1926.199953600008,190,26,male,True
734,0.0678357899170423,25,down,down,0.8787038000009488,1.1464351827956205,,experiment,cRDM,3.0,,,,1928.5331531999984,190,26,male,True
735,0.0678357899170423,25,down,up,1.139442899991991,1.7482552477880702,,experiment,cRDM,3.0,,,,1931.4163955000115,190,26,male,True
736,0.0678357899170423,25,up,up,0.6461739000224043,0.7244837360019636,,experiment,cRDM,3.0,,,,1933.549647900014,190,26,male,True
737,0.0678357899170423,25,up,up,0.626009100000374,1.5126879919513387,,experiment,cRDM,3.0,,,,1935.9828748000143,190,26,male,True
738,0.0678357899170423,25,down,down,0.5653146000113338,0.3572857078504645,,experiment,cRDM,3.0,,,,1937.249529299996,190,26,male,True
