,stimLvl,stimTime,rand,response,rt,precedingITI,trialNumber,trialType,stimuli,block,estIntens,estThres,estSlope,trialStart,subject,age,gender,headRest
0,0.9,100,down,,,1.7150762767298977,,introTrial,cRDM,,,,,319.0806733999998,1016,26,female,True
1,150.0,100,F,,,1.2039892370203515,,introTrial,emotion,,,,,324.26382920000106,1016,26,female,True
2,200.0,25,M,up,0.6443275999990874,0.8876641362813913,,tutorial,emotion,,,,,352.3961406000017,1016,26,female,True
3,200.0,25,M,up,0.6863588000014715,0.7301360344557328,,tutorial,emotion,,,,,354.0460684999998,1016,26,female,True
4,200.0,25,M,up,0.4857237999967765,0.3335289529046874,,tutorial,emotion,,,,,355.36270109999896,1016,26,female,True
5,0.0,25,F,down,0.4294736999981978,1.070009130488894,,tutorial,emotion,,,,,357.2459577000009,1016,26,female,True
6,0.0,25,M,down,0.3835363999969559,0.6328934133510526,,tutorial,emotion,,,,,358.57926640000005,1016,26,female,True
7,200.0,25,F,up,1.0362821999988228,1.8544698669620332,,tutorial,emotion,,,,,361.1291794999997,1016,26,female,True
8,0.0,25,F,down,0.3334614999985206,1.1974009625648483,,tutorial,emotion,,,,,363.6290915999998,1016,26,female,True
9,200.0,25,M,up,0.4002687000029254,0.6324693029097546,,tutorial,emotion,,,,,364.96228770000016,1016,26,female,True
10,0.0,25,F,down,0.8361162000001059,1.2536198772748064,,tutorial,emotion,,,,,366.9122849000014,1016,26,female,True
11,0.0,25,F,down,0.7312867000000551,1.3353336677514385,,tutorial,emotion,,,,,369.36217860000033,1016,26,female,True
12,0.9,25,up,up,0.7464791999991576,0.7605803431482716,,tutorial,cRDM,,,,,377.4118877000001,1016,26,female,True
13,0.9,25,up,up,0.8319001000018034,1.4425133984560528,,tutorial,cRDM,,,,,379.87850660000186,1016,26,female,True
14,0.9,25,down,down,0.3837942999998631,0.6152244985867512,,tutorial,cRDM,,,,,381.611757900002,1016,26,female,True
15,0.9,25,down,down,0.3838424999994458,1.16109112312365,,tutorial,cRDM,,,,,383.478372900001,1016,26,female,True
16,0.9,25,up,up,0.6070601999999781,0.8771306108653512,,tutorial,cRDM,,,,,385.0615700999988,1016,26,female,True
17,0.9,25,down,down,1.047165899999527,0.7404257583209951,,tutorial,cRDM,,,,,386.6782114000016,1016,26,female,True
18,0.9,25,up,up,0.5352979999988747,1.568177840216797,,tutorial,cRDM,,,,,389.5781257000017,1016,26,female,True
19,0.9,25,up,down,1.7088909999984023,0.3541482949918311,,tutorial,cRDM,,,,,390.744729500002,1016,26,female,True
20,0.9,25,down,down,0.940434500000265,0.3962639467758191,,tutorial,cRDM,,,,,393.1279955999999,1016,26,female,True
21,0.9,25,down,down,0.8568947999992815,1.0197488560987664,,tutorial,cRDM,,,,,395.3614912000012,1016,26,female,True
22,100.0,25,M,down,0.4682615999990958,0.4688877517430259,,psi_staircase_training,emotion,,100.0,100.0,25.00050000000001,406.0441720999988,1016,26,female,True
23,145.0,25,M,up,0.3835132000021986,0.8851237598389623,,psi_staircase_training,emotion,,145.25719053245996,145.25719053245996,25.00050000000028,407.7440869999991,1016,26,female,True
24,121.0,25,F,down,0.4002298999985214,1.2873289728007915,,psi_staircase_training,emotion,,120.36392901436103,120.36392901436103,25.71326925488699,409.81069840000055,1016,26,female,True
25,137.0,25,F,up,0.5138756999986072,1.709356586659314,,psi_staircase_training,emotion,,137.8359832966118,137.8359832966118,25.292325986285498,412.3106085,1016,26,female,True
26,127.0,25,M,up,0.7302925000003597,1.7342362451319508,,psi_staircase_training,emotion,,126.46069055808248,126.46069055808248,23.64975108561129,414.9271668000001,1016,26,female,True
27,113.0,25,F,up,0.6063066000024264,1.0544498346351785,,psi_staircase_training,emotion,,117.51644698116752,117.51644698116752,24.57617413513076,417.0771246000004,1016,26,female,True
28,94.0,25,M,up,0.5597758000003523,0.7130764226828401,,psi_staircase_training,emotion,,106.52678028801836,106.52678028801836,30.115701177201284,418.76063129999966,1016,26,female,True
29,78.0,25,F,up,0.7165029999996477,1.785891612755451,,psi_staircase_training,emotion,,93.61561347624938,93.61561347624938,35.11755585279455,421.4769425999984,1016,26,female,True
30,64.0,25,F,down,0.7668737000021792,0.837493111859164,,psi_staircase_training,emotion,,80.35838940514174,80.35838940514174,38.13964601809598,423.3935485000002,1016,26,female,True
31,73.0,25,M,down,0.7433402999995451,1.2312285781196133,,psi_staircase_training,emotion,,87.38897362763403,87.38897362763403,37.35806654241887,425.7600966999999,1016,26,female,True
32,78.0,25,F,down,0.9736799000020256,1.6865138936879531,,psi_staircase_training,emotion,,92.57905880240048,92.57905880240048,36.43170589082099,428.5267061000013,1016,26,female,True
33,81.0,25,F,up,1.2495385000001988,1.0962002511709583,,psi_staircase_training,emotion,,96.74950919618831,96.74950919618831,35.60259829749526,430.9599010999991,1016,26,female,True
34,70.0,25,F,down,0.85887410000214,0.4651117180187953,,psi_staircase_training,emotion,,89.90503647966648,89.90503647966648,37.09138798281382,433.0265174999986,1016,26,female,True
35,108.0,25,M,up,0.6396858999978576,1.3731125717693655,,psi_staircase_training,emotion,,92.90006589981068,92.90006589981068,36.3290348682557,435.60975139999937,1016,26,female,True
36,66.0,25,M,down,0.6764990000010584,1.927349406786512,,psi_staircase_training,emotion,,89.95227605122813,89.95227605122813,35.73545238456805,438.5429784000007,1016,26,female,True
37,112.0,25,F,up,0.5555641999999352,0.8186328825836895,,psi_staircase_training,emotion,,92.14398429089508,92.14398429089508,34.87932700879046,440.39291589999993,1016,26,female,True
38,65.0,25,F,down,0.556902699998318,0.3018992522158003,,psi_staircase_training,emotion,,89.98039922559887,89.98039922559887,34.10569874047296,441.6095568000019,1016,26,female,True
39,113.0,25,M,up,0.4196026000026904,1.9223906364830308,,psi_staircase_training,emotion,,91.7244119364874,91.7244119364874,33.17483914373286,444.4427471000017,1016,26,female,True
40,64.0,25,M,down,0.5197423000026902,1.0306857335434458,,psi_staircase_training,emotion,,89.97724270711964,89.97724270711964,32.28857342350685,446.24268890000167,1016,26,female,True
41,113.0,25,M,up,0.400190800002747,0.5855718021203757,,psi_staircase_training,emotion,,91.35995270210664,91.35995270210664,31.30303222460506,447.6759894999996,1016,26,female,True
42,64.0,25,M,down,0.3164940999995451,1.6417584827809923,,psi_staircase_training,emotion,,89.89243243965656,89.89243243965656,30.331369385748587,450.0762421,1016,26,female,True
43,111.0,25,F,up,0.5398848000004364,0.8453409408033887,,psi_staircase_training,emotion,,91.01631450668822,91.01631450668822,29.312237632075508,451.6925144000015,1016,26,female,True
44,64.0,25,F,down,0.6500001999993401,1.1639774825030351,,psi_staircase_training,emotion,,89.6798920839157,89.6798920839157,28.274254493417985,453.7424314000018,1016,26,female,True
45,108.0,25,F,up,0.4331089000006614,0.4856367430889222,,psi_staircase_training,emotion,,90.583267195205,90.583267195205,27.248077327866994,455.2423696000005,1016,26,female,True
46,105.0,25,M,up,0.6091362000006484,1.3481466296325149,,psi_staircase_training,emotion,,89.29703453704296,89.29703453704296,26.15641389280973,457.3923012000014,1016,26,female,True
47,100.0,25,M,up,0.6128850000022794,0.4647118664444597,,psi_staircase_training,emotion,,88.04517497559047,88.04517497559047,25.07784187773559,458.8255519999984,1016,26,female,True
48,89.0,25,F,up,0.5170292000002519,1.440093252516199,,psi_staircase_training,emotion,,86.68857447197027,86.68857447197027,24.01866395734797,461.2254838000008,1016,26,female,True
49,88.0,25,F,up,0.5566890000009153,0.9143076242573268,,psi_staircase_training,emotion,,84.74805947983876,84.74805947983876,23.273670506137897,463.0087444000019,1016,26,female,True
50,87.0,25,M,up,0.7010459999983141,0.6890755921521025,,psi_staircase_training,emotion,,82.93631952853607,82.93631952853607,22.17529582172185,464.6253493000004,1016,26,female,True
51,87.0,25,M,up,0.6150672000003397,1.657870528191152,,psi_staircase_training,emotion,,81.27459984928943,81.27459984928943,20.67692171722026,467.3252773999993,1016,26,female,True
52,0.29,25,up,down,1.3504026000009617,1.383012571031938,,psi_staircase_training,cRDM,,0.25,0.2569312402994632,0.105,473.1250519999994,1016,26,female,True
53,0.39,25,up,down,1.7414578999996593,1.2847023934008066,,psi_staircase_training,cRDM,,0.3546095744690496,0.3616109212953642,0.1060620300265678,476.0249404999995,1016,26,female,True
54,0.45,25,down,down,0.7572653000024729,0.9676029871632514,,psi_staircase_training,cRDM,,0.4150689485921841,0.4216473382772667,0.0996547352408428,479.0081730999991,1016,26,female,True
55,0.44,25,down,down,1.2575947000004817,0.5414966949363608,,psi_staircase_training,cRDM,,0.4054457120615716,0.4121127131824852,0.1009970925045164,480.5748323000007,1016,26,female,True
56,0.43,25,up,up,0.5621495000013965,1.1332761866909504,,psi_staircase_training,cRDM,,0.3958107273700079,0.4025120380008885,0.1015168405425151,483.2413258999986,1016,26,female,True
57,0.43,25,down,down,0.61761480000132,1.9793066060664335,,psi_staircase_training,cRDM,,0.3860412409781549,0.3927592277984972,0.1017694648662767,486.0578491999986,1016,26,female,True
58,0.41,25,up,up,0.5232570000007399,0.6865163850605647,,psi_staircase_training,cRDM,,0.3773036922633061,0.383925807255019,0.1003171213359467,487.64117709999846,1016,26,female,True
59,0.38,25,down,down,0.4165259000001242,1.6169472619797274,,psi_staircase_training,cRDM,,0.3662921284843751,0.3730622515054828,0.1025592659471578,490.05806139999913,1016,26,female,True
60,0.37,25,down,up,0.3671437000011792,1.3733172152711006,,psi_staircase_training,cRDM,,0.351183834749024,0.3585332264236614,0.1113344931781815,492.14102999999886,1016,26,female,True
61,0.43,25,up,up,0.80044640000051,0.9157344316098897,,psi_staircase_training,cRDM,,0.3921695855442608,0.3982752268111683,0.0924931621653544,493.7409756999986,1016,26,female,True
62,0.42,25,down,down,0.3335555000012391,1.6337256542079908,,psi_staircase_training,cRDM,,0.3868979967949348,0.3927098287609732,0.0880423026858958,496.4577863999984,1016,26,female,True
63,0.42,25,down,down,0.5500671000008879,1.8003314756920137,,psi_staircase_training,cRDM,,0.3815626847117032,0.38714582259832,0.084577860926298,498.9573578999989,1016,26,female,True
64,0.4,25,down,down,0.7917813999993086,1.2530650213051286,,psi_staircase_training,cRDM,,0.3771463081328215,0.3824591194174687,0.0804827362472421,501.0407091999987,1016,26,female,True
65,0.38,25,up,up,0.6397900999982085,0.5385782537391232,,psi_staircase_training,cRDM,,0.369799574197367,0.3752707105811327,0.0828811721244001,502.6406327000004,1016,26,female,True
66,0.37,25,up,up,0.8702359999988403,0.3025733947047274,,psi_staircase_training,cRDM,,0.3587894347691671,0.364947836981791,0.0932924273849784,503.8572029999996,1016,26,female,True
67,0.37,25,down,down,0.3340514000010444,1.8293434315008843,,psi_staircase_training,cRDM,,0.3459564027994788,0.3528902441333644,0.1050394025603704,506.8404695999998,1016,26,female,True
68,0.36,25,down,down,0.5297159000001557,1.1358073689275268,,psi_staircase_training,cRDM,,0.332625508559828,0.3402156046216185,0.1149808767342438,508.67377639999904,1016,26,female,True
69,0.36,25,up,up,0.9100233999997728,0.8551508775917216,,psi_staircase_training,cRDM,,0.3187029038852541,0.3268859247776938,0.1239629787143156,510.340355700002,1016,26,female,True
70,0.35,25,up,up,0.8105083000009472,1.144056234627965,,psi_staircase_training,cRDM,,0.3054035797687548,0.314020201051125,0.1305315059873096,512.6569325000019,1016,26,female,True
71,0.35,25,up,down,1.6859070999998949,1.1957119557435767,,psi_staircase_training,cRDM,,0.2924799723845612,0.3014275952012513,0.1355457833174838,514.9235171,1016,26,female,True
72,0.37,25,up,up,0.561395699998684,1.3590150477409788,,psi_staircase_training,cRDM,,0.3358546451824286,0.3440565408141663,0.1242489084383868,518.2400841000017,1016,26,female,True
73,0.37,25,down,down,0.5696959999986575,0.5297624402638519,,psi_staircase_training,cRDM,,0.3256405960168475,0.3342177185911349,0.1299331478047185,519.6066844999987,1016,26,female,True
74,0.34,25,down,down,0.7424858999984281,0.5399873111531494,,psi_staircase_training,cRDM,,0.3161388421048942,0.3249719307837075,0.1338107281242615,520.9899608000014,1016,26,female,True
75,0.34,25,down,up,0.5559017000014137,1.4114761360923829,,psi_staircase_training,cRDM,,0.3052266636604464,0.3144590387700783,0.1398594399600341,523.4065420000006,1016,26,female,True
76,0.38,25,up,up,0.6092231999973592,1.2556884802101027,,psi_staircase_training,cRDM,,0.3375288301529023,0.3458469566101708,0.1260096664201394,525.4731653000017,1016,26,female,True
77,0.38,25,up,up,0.5553561000015179,1.4769349662800404,,psi_staircase_training,cRDM,,0.3306729610673731,0.3390596138190122,0.1270477578147589,527.8230538999996,1016,26,female,True
78,0.34,25,down,down,0.8844638999980816,1.9623685488457456,,psi_staircase_training,cRDM,,0.3245692888866999,0.3329479220326749,0.1269262703812911,530.6229473999992,1016,26,female,True
79,0.33,25,down,down,0.7275188999992679,1.231998160549111,,psi_staircase_training,cRDM,,0.3153755780438865,0.3242345472501022,0.1342027871584084,533.0228650999998,1016,26,female,True
80,0.33,25,up,up,0.8496646999992663,0.9542241290917516,,psi_staircase_training,cRDM,,0.3061124057541347,0.3153887344841913,0.1405252847360324,534.9728060999987,1016,26,female,True
81,0.33,25,up,up,0.7863708000004408,0.8148161402473346,,psi_staircase_training,cRDM,,0.2971843819346275,0.3067821080115929,0.145394070114609,536.9060504000008,1016,26,female,True
82,100.0,25,M,down,0.9866779999974824,0.569288140851963,,psi_staircase,emotion,,100.0,100.0,25.00050000000001,545.4057441000004,1016,26,female,True
83,145.0,25,M,up,0.5674975000001723,1.6304854042267638,,psi_staircase,emotion,,145.25719053245996,145.25719053245996,25.00050000000028,548.388954500002,1016,26,female,True
84,121.0,25,F,up,0.567196400003013,0.8111068021790038,,psi_staircase,emotion,,120.36392901436103,120.36392901436103,25.71326925488699,550.122248300002,1016,26,female,True
85,97.0,25,F,down,0.6995543999983056,1.145059034317878,,psi_staircase,emotion,,102.3887610608496,102.3887610608496,26.14633372628729,552.1888098999989,1016,26,female,True
86,113.0,25,M,up,0.4660915000022214,1.4946035386782006,,psi_staircase,emotion,,114.01123255420406,114.01123255420406,23.00305641778335,554.755363799999,1016,26,female,True
87,105.0,25,F,down,1.2841167000005953,1.022333310023344,,psi_staircase,emotion,,104.94359593877375,104.94359593877375,22.15060322358215,556.6053159000003,1016,26,female,True
88,116.0,25,M,up,0.6909378000018478,1.6810451410241547,,psi_staircase,emotion,,111.58377353439042,111.58377353439042,20.59785325106301,559.9385127999994,1016,26,female,True
89,108.0,25,F,up,0.5923790999986522,1.5927561443935525,,psi_staircase,emotion,,107.51987113577816,107.51987113577816,17.54703484605283,562.6051004000001,1016,26,female,True
90,97.0,25,F,up,0.589739399998507,1.3923372477874203,,psi_staircase,emotion,,103.10949253511676,103.10949253511676,18.870841324427943,564.921706699999,1016,26,female,True
91,82.0,25,M,down,0.7374526999992668,0.7718544662968976,,psi_staircase,emotion,,95.19123733822003,95.19123733822003,28.515774664503944,566.6549612999988,1016,26,female,True
92,84.0,25,F,down,0.7508448000007775,1.4402444607941485,,psi_staircase,emotion,,99.13673746206686,99.13673746206686,25.843852024199727,569.171542600001,1016,26,female,True
93,86.0,25,F,down,0.6726285000004282,0.5366693535904103,,psi_staircase,emotion,,101.75390166850072,101.75390166850072,23.47782745309572,570.8048030999998,1016,26,female,True
94,119.0,25,F,down,1.3037686000025133,0.8530065293130811,,psi_staircase,emotion,,103.55799943882715,103.55799943882715,21.39352534861857,572.7046788000007,1016,26,female,True
95,130.0,25,M,up,0.6898073000011209,0.7937933718028334,,psi_staircase,emotion,,108.72978075665492,108.72978075665492,28.621825125535068,575.1546257000009,1016,26,female,True
96,129.0,25,M,up,0.655841200001305,1.3034315222120243,,psi_staircase,emotion,,106.99667231108,106.99667231108,27.061423815278204,577.5045675000001,1016,26,female,True
97,85.0,25,F,down,0.7442636999985552,1.908046635823056,,psi_staircase,emotion,,105.66561786675248,105.66561786675248,25.62640207490071,580.4211099999993,1016,26,female,True
98,127.0,25,F,up,0.535679299999174,0.7785857037376163,,psi_staircase,emotion,,106.93994629842088,106.93994629842088,24.1198364047538,582.2877186000005,1016,26,female,True
99,86.0,25,M,down,0.6651146000003791,0.7140947373966733,,psi_staircase,emotion,,105.87087146478972,105.87087146478972,22.711150301122508,583.9043173999999,1016,26,female,True
100,126.0,25,M,down,0.5393808999979228,1.5567676130365051,,psi_staircase,emotion,,106.84684736482592,106.84684736482592,21.30793696078986,586.5042248999998,1016,26,female,True
101,135.0,25,M,up,0.5115875999981654,1.2038254861893405,,psi_staircase,emotion,,110.66628637184652,110.66628637184652,27.208766760031487,588.6208102000019,1016,26,female,True
102,86.0,25,M,down,0.606634200001281,1.7600018736567526,,psi_staircase,emotion,,109.6925066304642,109.6925066304642,26.00572455225265,591.2207765999992,1016,26,female,True
103,134.0,25,F,up,0.4691725000011502,0.3517075253506438,,psi_staircase,emotion,,110.52706798704492,110.52706798704492,24.876299719156812,592.537316599999,1016,26,female,True
104,87.0,25,F,down,0.4166627999984484,1.045019147334335,,psi_staircase,emotion,,109.72855989787196,109.72855989787196,23.741193143881063,594.4207443000014,1016,26,female,True
105,132.0,25,F,up,0.4532008999995014,0.6963256247464935,,psi_staircase,emotion,,110.41800135871364,110.41800135871364,22.69238410215313,595.887180400001,1016,26,female,True
106,88.0,25,M,down,0.4167927000016789,0.5484338479448564,,psi_staircase,emotion,,109.72826064966132,109.72826064966132,21.65014163379453,597.237153099999,1016,26,female,True
107,131.0,25,M,up,0.3501953999984835,1.0806577843104637,,psi_staircase,emotion,,110.30491663083244,110.30491663083244,20.71217692765517,599.0870891999984,1016,26,female,True
108,90.0,25,F,down,0.865397400000802,1.3759104078861302,,psi_staircase,emotion,,109.72746205559696,109.72746205559696,19.800329288749044,601.2370107999996,1016,26,female,True
109,129.0,25,F,up,0.7987919000006514,0.8997839379412815,,psi_staircase,emotion,,110.24759470771306,110.24759470771306,18.97392646930752,603.3535975999985,1016,26,female,True
110,92.0,25,M,down,1.1521429999993416,1.362685666398412,,psi_staircase,emotion,,109.7246862178182,109.7246862178182,18.18130917573507,605.8702072999986,1016,26,female,True
111,127.0,25,M,up,0.4448363999981666,1.605868090382482,,psi_staircase,emotion,,110.2085249722396,110.2085249722396,17.46567758318871,608.953667400001,1016,26,female,True
112,94.0,25,F,down,0.7444596999994246,1.7150236850718814,,psi_staircase,emotion,,109.71902072017376,109.71902072017376,16.784077722243186,611.4699824999989,1016,26,female,True
113,125.0,25,M,down,0.752878100000089,0.6217871975032903,,psi_staircase,emotion,,110.18402578494408,110.18402578494408,16.169036366006534,613.1865801999993,1016,26,female,True
114,133.0,25,F,up,0.5839285999973072,0.4461798525166374,,psi_staircase,emotion,,112.32885551728542,112.32885551728542,18.817712337497916,614.7365103000011,1016,26,female,True
115,94.0,25,M,up,0.9729810999997426,1.426270170427282,,psi_staircase,emotion,,111.95366269677214,111.95366269677214,18.17253183828798,617.0864330000004,1016,26,female,True
116,87.0,25,F,down,0.6043687999990652,0.569094098254093,,psi_staircase,emotion,,109.87971991533402,109.87971991533402,21.23572446311303,619.0030514999999,1016,26,female,True
117,133.0,25,M,up,0.5447768999983964,0.6365726442997888,,psi_staircase,emotion,,110.24823017807378,110.24823017807378,20.573327806542977,620.5696441,1016,26,female,True
118,88.0,25,F,down,0.7310460000007879,0.966305667824868,,psi_staircase,emotion,,109.8921129649604,109.8921129649604,19.94628213937984,622.4195728000013,1016,26,female,True
119,131.0,25,M,up,0.441339599998173,1.9093398151580288,,psi_staircase,emotion,,110.2261648305592,110.2261648305592,19.371878495698457,625.4361331,1016,26,female,True
120,90.0,25,M,up,0.8929958999979135,1.1777276055777928,,psi_staircase,emotion,,109.8830840108302,109.8830840108302,18.82123150407147,627.4193960000011,1016,26,female,True
121,84.0,25,F,down,0.7105086000010488,1.206734864493438,,psi_staircase,emotion,,108.01880483176878,108.01880483176878,21.682823044377606,629.885959700001,1016,26,female,True
122,132.0,25,F,up,0.5658302000010735,1.41290198793634,,psi_staircase,emotion,,108.33810255421126,108.33810255421126,21.100241295086526,632.3525728999994,1016,26,female,True
123,85.0,25,F,up,1.1019518000030075,1.9616754525059183,,psi_staircase,emotion,,108.02922499228016,108.02922499228016,20.55496963827409,635.2524655999987,1016,26,female,True
124,79.0,25,M,down,0.5333610999987286,0.3179668782364213,,psi_staircase,emotion,,106.18425420629804,106.18425420629804,23.759486445868777,637.0190548999999,1016,26,female,True
125,132.0,25,M,up,0.6397660999973596,0.799778437208974,,psi_staircase,emotion,,106.49226517556887,106.49226517556887,23.16894141694464,638.6856341999992,1016,26,female,True
126,80.0,25,F,down,0.658201199999894,1.1382995645775271,,psi_staircase,emotion,,106.18967370035712,106.18967370035712,22.613025288348386,640.8522408999997,1016,26,female,True
127,131.0,25,F,up,0.5326478999995743,0.5146242679034837,,psi_staircase,emotion,,106.47157011845576,106.47157011845576,22.086894666889982,642.4188242000018,1016,26,female,True
128,82.0,25,F,down,0.601464000003034,0.5126510623967476,,psi_staircase,emotion,,106.18784896235272,106.18784896235272,21.590081558108757,643.8353637,1016,26,female,True
129,130.0,25,M,up,0.5670288000001165,1.369989217640726,,psi_staircase,emotion,,106.46430337427874,106.46430337427874,21.11478527946295,646.1853632999992,1016,26,female,True
130,83.0,25,M,down,0.5437506999987818,0.6470744783877058,,psi_staircase,emotion,,106.19512816499972,106.19512816499972,20.67179801679661,647.7686433999988,1016,26,female,True
131,128.0,25,M,up,0.5055621999999858,1.68860578987655,,psi_staircase,emotion,,106.45485836536288,106.45485836536288,20.251090054957483,650.351875100001,1016,26,female,True
132,0.29,25,up,up,0.526421599999594,0.9444360149596472,,psi_staircase,cRDM,,0.25,0.2569312402994632,0.105,655.4350187999989,1016,26,female,True
133,0.25,25,up,down,0.8188347000032081,1.191653345593496,,psi_staircase,cRDM,,0.2191026665318312,0.2260132002683492,0.1046863203387393,657.4016197000019,1016,26,female,True
134,0.36,25,down,up,0.705539200000203,0.4006365357011642,,psi_staircase,cRDM,,0.3202997408361979,0.3276103223604739,0.1107465658214764,658.8849086000009,1016,26,female,True
135,0.43,25,down,down,0.7460283000000345,1.8975328881916915,,psi_staircase,cRDM,,0.3923744910111199,0.399460699682156,0.1073475854698633,661.7514698999985,1016,26,female,True
136,0.42,25,up,up,0.6674449000020104,1.173949771403486,,psi_staircase,cRDM,,0.3798855818941703,0.3870986840618792,0.1092698701656739,663.9180349000017,1016,26,female,True
137,0.41,25,down,down,0.4174770999998145,1.3620931960399023,,psi_staircase,cRDM,,0.367671626369661,0.3749288789433721,0.1099386960077944,666.2179289000014,1016,26,female,True
138,0.4,25,up,up,0.4236316999995324,1.9360403809111124,,psi_staircase,cRDM,,0.3556959873710901,0.3629517119809007,0.1099155491823169,668.8348212000019,1016,26,female,True
139,0.38,25,down,down,0.532990299998346,1.072169376684866,,psi_staircase,cRDM,,0.3437947038291127,0.3510426890304228,0.1097983064007317,670.5844644999997,1016,26,female,True
140,0.35,25,down,down,0.5167019000000437,0.6870348101592576,,psi_staircase,cRDM,,0.330039618891669,0.3374693330025544,0.1125512820127412,672.067751999999,1016,26,female,True
141,0.34,25,up,up,0.5648574999977427,1.8128505032439677,,psi_staircase,cRDM,,0.313043440250402,0.320950160439769,0.1197773535492376,674.6676551000019,1016,26,female,True
142,0.34,25,down,down,0.3672846000008576,0.7910596502723621,,psi_staircase,cRDM,,0.2957406964025296,0.3040092821723287,0.1252591842611678,676.2842393999999,1016,26,female,True
143,0.33,25,down,down,0.6788304000001517,1.1886911788049208,,psi_staircase,cRDM,,0.2794897370800733,0.2879603364124301,0.1283194481031546,678.167545100001,1016,26,female,True
144,0.31,25,down,down,0.754764499997691,1.2401606208815332,,psi_staircase,cRDM,,0.2642713272860947,0.272828372604199,0.1296290013881831,680.3506906000002,1016,26,female,True
145,0.3,25,up,up,0.6034090999964974,1.3706572780846336,,psi_staircase,cRDM,,0.2496035247995341,0.2581888069392501,0.1300567554612104,682.7340359000009,1016,26,female,True
146,0.3,25,up,up,0.720178899999155,1.627930980595105,,psi_staircase,cRDM,,0.2360060733606511,0.2445641054733937,0.1296439501466364,685.217270000001,1016,26,female,True
147,0.24,25,down,down,0.4492847000001347,0.7346701016790127,,psi_staircase,cRDM,,0.2241936577110703,0.2326473379382222,0.1280631438964365,686.9341256000007,1016,26,female,True
148,0.24,25,down,down,0.7433454999991227,1.002493504958302,,psi_staircase,cRDM,,0.2078440445291967,0.216675524290917,0.1337863549547458,688.6671549999992,1016,26,female,True
149,0.23,25,up,up,0.7100350000000617,0.3374799880175653,,psi_staircase,cRDM,,0.1921900686922554,0.201262102395892,0.1374304594454193,690.0004178999989,1016,26,female,True
150,0.22,25,up,up,1.1329848000023048,0.528638040644174,,psi_staircase,cRDM,,0.1772173094672362,0.186428179736701,0.1395336673536903,691.5003945999997,1016,26,female,True
151,0.2,25,up,down,1.5421208999978262,0.7614935908177047,,psi_staircase,cRDM,,0.1631968409085677,0.1724469904389282,0.1401287011738816,693.6502985000006,1016,26,female,True
152,0.24,25,up,down,1.3672757000022102,1.633156522596628,,psi_staircase,cRDM,,0.2100599514481431,0.2194198885220256,0.1417918511400854,697.1001810999987,1016,26,female,True
153,0.31,25,down,down,0.6527663000015309,1.4894352935008086,,psi_staircase,cRDM,,0.2482365744038103,0.2570473279456018,0.1334723775136964,700.2167287000011,1016,26,female,True
154,0.3,25,down,down,0.9462514000006196,0.5385602041849418,,psi_staircase,cRDM,,0.2405955028500107,0.2492311375770094,0.1308195369312301,701.6833417999987,1016,26,female,True
155,0.25,25,down,down,0.6422656999966421,1.447261802891068,,psi_staircase,cRDM,,0.2336594904475879,0.2421116352845975,0.1280398845722797,704.3331714000014,1016,26,female,True
156,0.24,25,up,up,0.643030600000202,1.012453691880192,,psi_staircase,cRDM,,0.2230922631968461,0.2319434833478563,0.1340853982407795,706.2334324000003,1016,26,female,True
157,0.23,25,up,up,0.7010799000017869,1.2964546180262946,,psi_staircase,cRDM,,0.2124066741422088,0.2216491842809635,0.1400129735286187,708.4333418999995,1016,26,female,True
158,0.23,25,down,down,0.6512373000005027,1.428299396148961,,psi_staircase,cRDM,,0.2017969274201551,0.2113885032505619,0.145300901235628,710.8332599999994,1016,26,female,True
159,0.23,25,down,down,0.7358116999967024,0.3948140246426348,,psi_staircase,cRDM,,0.1917606969449792,0.2016090763282289,0.1491911678954912,712.1496361999998,1016,26,female,True
160,0.23,25,up,up,0.7822969000008015,1.724659140411567,,psi_staircase,cRDM,,0.1824147720392885,0.1924425599726811,0.1519089928375099,714.8661816999993,1016,26,female,True
161,0.22,25,up,up,1.0027597999978752,1.536721242764333,,psi_staircase,cRDM,,0.1737956471170391,0.1839404679167183,0.1536819007773848,717.4326985000007,1016,26,female,True
162,0.19,25,down,down,0.7620999999999185,1.4987537875607475,,psi_staircase,cRDM,,0.1654427975755829,0.1756901678985218,0.1552354033940941,720.1993536000009,1016,26,female,True
163,0.18,25,up,up,0.9392159999988507,0.9803647153465812,,psi_staircase,cRDM,,0.1565578864781535,0.1669663159585044,0.1576752569841611,722.1992680000003,1016,26,female,True
164,0.18,25,down,down,0.5889939999979106,1.684707434738441,,psi_staircase,cRDM,,0.147920809247861,0.1584621195625263,0.1596882426837171,725.0824852000005,1016,26,female,True
165,0.17,25,up,up,0.6414411999976437,1.5583048934426016,,psi_staircase,cRDM,,0.1398076051867422,0.1504387974158086,0.1610498461780959,727.4990671000014,1016,26,female,True
166,0.17,25,down,down,0.6197919000005641,1.5611195671500984,,psi_staircase,cRDM,,0.1319576543684285,0.1426562818336155,0.1620714093452544,729.9656275999987,1016,26,female,True
167,0.15,25,up,up,0.7021679000026779,1.0899346418000222,,psi_staircase,cRDM,,0.1246226468941263,0.1353538511898105,0.1625649093617627,731.9322400000019,1016,26,female,True
168,0.14,25,down,down,1.218277100000705,0.5849747468072655,,psi_staircase,cRDM,,0.1172827658215954,0.1280446982439876,0.1630304037271198,733.4821674999985,1016,26,female,True
169,0.14,25,up,up,2.1400122999984887,0.3547946123562548,,psi_staircase,cRDM,,0.1101877853349586,0.1209618561635448,0.1632142860620708,735.3154183000006,1016,26,female,True
170,0.13,25,up,down,0.6367810999981884,1.7818744518074796,,psi_staircase,cRDM,,0.1035635726038786,0.1143125156135093,0.1628336296605715,739.4986347000013,1016,26,female,True
171,0.17,25,down,down,0.6508648000017274,0.4417733388744297,,psi_staircase,cRDM,,0.1246952103541294,0.1355948686587964,0.165116786108058,740.8485838999986,1016,26,female,True
172,0.17,25,down,down,0.504911700001685,1.129083556386645,,psi_staircase,cRDM,,0.1187245807499901,0.1296401238990167,0.1653574225000614,742.8985251000013,1016,26,female,True
173,0.17,25,down,down,0.8113911000000371,1.443325896256425,,psi_staircase,cRDM,,0.1131719753989077,0.124083210624305,0.1652921626098339,745.1150570999998,1016,26,female,True
174,0.17,25,up,down,0.5810668999984046,0.5749089684543036,,psi_staircase,cRDM,,0.1080223365803375,0.1189102253539569,0.1649384917903596,746.7483787000019,1016,26,female,True
175,0.17,25,up,down,0.6172044000013557,1.4046322576189487,,psi_staircase,cRDM,,0.127728996308529,0.1387890636343812,0.1675467909119252,748.9982583000019,1016,26,female,True
176,0.19,25,down,down,0.6592057999987446,0.7778188759771991,,psi_staircase,cRDM,,0.147332684753745,0.1582441229380768,0.1652952371949292,750.6482350000006,1016,26,female,True
177,0.19,25,down,down,0.4909336000018811,0.6039918848897083,,psi_staircase,cRDM,,0.1417860351180034,0.152746427106579,0.1660368287750108,752.1814746000018,1016,26,female,True
178,0.15,25,down,down,0.3338074999992386,1.446063714170862,,psi_staircase,cRDM,,0.1365356722170163,0.1475336729598843,0.1666065564182734,754.3814081000019,1016,26,female,True
179,0.15,25,up,up,0.6301081999990856,1.634272051382092,,psi_staircase,cRDM,,0.1307139610658851,0.1418093680285907,0.1680821441401049,756.6813356999992,1016,26,female,True
180,0.15,25,up,down,0.9045159999986936,0.311106137192263,,psi_staircase,cRDM,,0.1251401493237953,0.1363199339189317,0.1693603643463676,757.8979359000004,1016,26,female,True
181,0.15,25,up,up,0.6339765000011539,1.658798154617644,,psi_staircase,cRDM,,0.141927806233509,0.1528788386640688,0.1658950426661467,760.7144832000013,1016,26,female,True
182,113.0,25,F,up,0.8241917999985162,1.0146807574779635,,experiment,emotion,0.0,,,,767.7142310000017,1016,26,female,True
183,98.0,25,M,up,1.784916800002975,0.4730766230559949,,experiment,emotion,0.0,,,,769.297512000001,1016,26,female,True
184,108.0,25,F,up,0.6810224000000744,0.9604560637053484,,experiment,emotion,0.0,,,,772.3474348999989,1016,26,female,True
185,113.0,25,M,up,0.6317937999992864,1.0690424560938092,,experiment,emotion,0.0,,,,774.3806818000012,1016,26,female,True
186,108.0,25,F,up,0.5638489000011759,1.5022642947377722,,experiment,emotion,0.0,,,,776.7805780000017,1016,26,female,True
187,103.0,25,F,up,1.314657699997042,0.7593825856037295,,experiment,emotion,0.0,,,,778.4138362000012,1016,26,female,True
188,98.0,25,M,up,1.1979934000009962,0.9822667539511668,,experiment,emotion,0.0,,,,780.9804331999985,1016,26,female,True
189,103.0,25,F,up,1.0884879999975965,1.759308100619346,,experiment,emotion,0.0,,,,784.1969597999996,1016,26,female,True
190,113.0,25,M,down,1.1503048999984458,1.7725761239810107,,experiment,emotion,0.0,,,,787.3301148999999,1016,26,female,True
191,103.0,25,M,up,0.7784218999986479,1.8167301243015253,,experiment,emotion,0.0,,,,790.580071299999,1016,26,female,True
192,108.0,25,F,up,0.6841315999990911,1.797415862618989,,experiment,emotion,0.0,,,,793.4633276999994,1016,26,female,True
193,113.0,25,M,up,0.681187800000771,1.1443945918196647,,experiment,emotion,0.0,,,,795.5632422999988,1016,26,female,True
194,108.0,25,M,,,0.7555606625158369,,experiment,emotion,0.0,,,,797.2631572999999,1016,26,female,True
195,98.0,25,M,up,1.1970243999967352,0.4646285257813182,,experiment,emotion,0.0,,,,800.4463839000018,1016,26,female,True
196,103.0,25,F,up,0.5961128999988432,1.181308061548139,,experiment,emotion,0.0,,,,803.0962992999994,1016,26,female,True
197,98.0,25,F,up,0.5275765999977011,0.7955330019026814,,experiment,emotion,0.0,,,,804.7628779000006,1016,26,female,True
198,113.0,25,M,up,0.6126139000007242,1.4893154211484558,,experiment,emotion,0.0,,,,807.0628111000005,1016,26,female,True
199,98.0,25,M,up,0.9920568999987154,0.6362418549002,,experiment,emotion,0.0,,,,808.5794065000009,1016,26,female,True
200,108.0,25,F,up,0.7098566000022402,0.8319549496114986,,experiment,emotion,0.0,,,,810.7126577999989,1016,26,female,True
201,108.0,25,F,up,0.5235461000011128,1.2000942675537576,,experiment,emotion,0.0,,,,812.8959309999991,1016,26,female,True
202,103.0,25,M,up,0.8679236000025412,0.6265831952237195,,experiment,emotion,0.0,,,,814.312525100002,1016,26,female,True
203,103.0,25,F,down,0.7929686000024958,0.8301993433747634,,experiment,emotion,0.0,,,,816.2624781000013,1016,26,female,True
204,98.0,25,M,down,0.7143277000031958,0.5179664908836972,,experiment,emotion,0.0,,,,817.829091399999,1016,26,female,True
205,113.0,25,F,down,0.6681270000008226,1.8386369381122587,,experiment,emotion,0.0,,,,820.662299399999,1016,26,female,True
206,108.0,25,F,down,1.3646636999983457,1.541555829209463,,experiment,emotion,0.0,,,,823.1287902000004,1016,26,female,True
207,98.0,25,M,down,2.0129941000013787,1.8939043961411155,,experiment,emotion,0.0,,,,826.6454249000017,1016,26,female,True
208,113.0,25,M,down,0.7402256999994279,1.3665679100363963,,experiment,emotion,0.0,,,,830.2952608000014,1016,26,female,True
209,113.0,25,F,down,0.6832190999994054,1.755322700484112,,experiment,emotion,0.0,,,,833.045213100002,1016,26,female,True
210,103.0,25,M,down,0.4502675000003364,0.6613736415867393,,experiment,emotion,0.0,,,,834.6951396000004,1016,26,female,True
211,98.0,25,F,down,0.8607387000010931,1.6416509383742914,,experiment,emotion,0.0,,,,837.0617239999992,1016,26,female,True
212,103.0,25,M,down,0.5208344999991823,1.4245504290904445,,experiment,emotion,0.0,,,,839.6115935999987,1016,26,female,True
213,108.0,25,F,down,1.5523479000003135,0.6011726955598633,,experiment,emotion,0.0,,,,841.0280902000013,1016,26,female,True
214,98.0,25,M,down,0.6159974999973201,0.5550725889418071,,experiment,emotion,0.0,,,,843.4114613999991,1016,26,female,True
215,113.0,25,F,down,0.8503163999994285,1.064681455180786,,experiment,emotion,0.0,,,,845.3780598000012,1016,26,female,True
216,108.0,25,M,down,0.7924397999995563,1.1679489706422386,,experiment,emotion,0.0,,,,847.6779865999997,1016,26,female,True
217,113.0,25,F,down,0.5195777000008093,1.238663517445073,,experiment,emotion,0.0,,,,849.9778886999993,1016,26,female,True
218,98.0,25,M,down,1.282271899999614,0.4408388607336748,,experiment,emotion,0.0,,,,851.2111928999984,1016,26,female,True
219,108.0,25,F,down,1.00735700000223,1.2037987982507576,,experiment,emotion,0.0,,,,853.9610713000002,1016,26,female,True
220,103.0,25,M,down,0.6450757999991765,0.4238647576141505,,experiment,emotion,0.0,,,,855.6943620999991,1016,26,female,True
221,103.0,25,F,down,0.6939034999995783,1.9234536366295492,,experiment,emotion,0.0,,,,858.5275359000007,1016,26,female,True
222,108.0,25,F,down,0.662223699997412,0.7162891495188894,,experiment,emotion,0.0,,,,860.1941929999994,1016,26,female,True
223,113.0,25,M,down,0.7680290999996942,1.497860641522202,,experiment,emotion,0.0,,,,862.6274114000007,1016,26,female,True
224,103.0,25,F,down,0.932729099997232,1.155971253589595,,experiment,emotion,0.0,,,,864.8106969,1016,26,female,True
225,98.0,25,M,down,0.8207994000003964,0.7554014241354589,,experiment,emotion,0.0,,,,866.8106069999994,1016,26,female,True
226,98.0,25,M,down,0.720981300000858,1.3657160569519324,,experiment,emotion,0.0,,,,869.2605360000016,1016,26,female,True
227,103.0,25,F,down,0.622683199999301,1.7271766609585626,,experiment,emotion,0.0,,,,871.9937434999993,1016,26,female,True
228,113.0,25,F,down,0.6920595999981742,0.3296943314626944,,experiment,emotion,0.0,,,,873.2103873999986,1016,26,female,True
229,108.0,25,M,up,1.2837837000006402,0.6255876770046545,,experiment,emotion,0.0,,,,874.7936431000016,1016,26,female,True
230,98.0,25,F,down,1.2222050999989733,1.0071345019576698,,experiment,emotion,0.0,,,,877.3602422000004,1016,26,female,True
231,113.0,25,M,down,0.7446181999985129,0.9982209048113824,,experiment,emotion,0.0,,,,879.8768117,1016,26,female,True
232,108.0,25,M,up,1.2497519000025932,0.6466820924391875,,experiment,emotion,0.0,,,,881.5267163999997,1016,26,female,True
233,108.0,25,M,down,0.7934162999990804,0.4101370202768943,,experiment,emotion,0.0,,,,883.4600180999987,1016,26,female,True
234,98.0,25,M,down,0.8365312999994785,1.7904153208245548,,experiment,emotion,0.0,,,,886.3099026000018,1016,26,female,True
235,103.0,25,M,down,0.6369797000006656,0.903952264267827,,experiment,emotion,0.0,,,,888.3764859000003,1016,26,female,True
236,113.0,25,F,down,1.5947044000022288,1.426127835764341,,experiment,emotion,0.0,,,,890.7097205999999,1016,26,female,True
237,103.0,25,F,down,0.6402503000026627,1.9697961487447195,,experiment,emotion,0.0,,,,894.5261797999992,1016,26,female,True
238,103.0,25,F,down,0.6525798999973631,0.9508248648968424,,experiment,emotion,0.0,,,,896.3928764000011,1016,26,female,True
239,103.0,25,M,down,0.6290016000020842,1.843640288091948,,experiment,emotion,0.0,,,,899.1594318999996,1016,26,female,True
240,113.0,25,F,down,1.4084153000003423,0.9191735385481604,,experiment,emotion,0.0,,,,900.9760142999984,1016,26,female,True
241,108.0,25,F,down,1.307433599999058,0.6301757179417605,,experiment,emotion,0.0,,,,903.3259553999995,1016,26,female,True
242,98.0,25,F,down,0.5675964000001841,0.8892739345823137,,experiment,emotion,0.0,,,,905.825859200002,1016,26,female,True
243,98.0,25,M,down,0.3835281000028772,1.7206973570272166,,experiment,emotion,0.0,,,,908.3757495999998,1016,26,female,True
244,108.0,25,F,down,0.4580662999978813,1.5778077991420425,,experiment,emotion,0.0,,,,910.6423711999996,1016,26,female,True
245,113.0,25,M,up,0.7159538000014436,0.9077789687027376,,experiment,emotion,0.0,,,,912.2755830999996,1016,26,female,True
246,113.0,25,M,up,0.6375406000006478,0.4556313079436588,,experiment,emotion,0.0,,,,913.7089133000007,1016,26,female,True
247,98.0,25,F,up,0.7602618999990227,1.0717831734021344,,experiment,emotion,0.0,,,,915.6921407000008,1016,26,female,True
248,113.0,25,M,up,0.7190675999991072,0.8369839759641555,,experiment,emotion,0.0,,,,917.575431199999,1016,26,female,True
249,103.0,25,F,up,0.6235148000014306,1.0953777361530863,,experiment,emotion,0.0,,,,919.6919916000006,1016,26,female,True
250,108.0,25,M,up,0.5218670000031125,1.82742393060058,,experiment,emotion,0.0,,,,922.4085641999992,1016,26,female,True
251,103.0,25,F,up,0.7119272999989334,1.5614500139835357,,experiment,emotion,0.0,,,,924.7584750999996,1016,26,female,True
252,98.0,25,M,down,0.6570241999979771,1.3180188942382225,,experiment,emotion,0.0,,,,927.0584111999996,1016,26,female,True
253,108.0,25,F,down,0.702448000000004,0.624421318006493,,experiment,emotion,0.0,,,,928.6249664999996,1016,26,female,True
254,103.0,25,F,down,1.0311793000000762,1.5518003815635573,,experiment,emotion,0.0,,,,931.1582622999996,1016,26,female,True
255,108.0,25,F,down,0.7478871000021172,1.024798097972807,,experiment,emotion,0.0,,,,933.4915007999988,1016,26,female,True
256,98.0,25,F,down,0.757394000000204,0.8442530567724937,,experiment,emotion,0.0,,,,935.3581077000016,1016,26,female,True
257,113.0,25,F,up,1.1627511000006052,1.1822121785984152,,experiment,emotion,0.0,,,,937.5746827000004,1016,26,female,True
258,108.0,25,M,up,0.9718853999984276,1.3864653970165863,,experiment,emotion,0.0,,,,940.3745855000016,1016,26,female,True
259,113.0,25,M,up,0.6222748000000138,1.069567848093807,,experiment,emotion,0.0,,,,942.6911646000008,1016,26,female,True
260,98.0,25,M,down,0.6960481999994954,1.4295100335248212,,experiment,emotion,0.0,,,,945.0243873,1016,26,female,True
261,103.0,25,M,down,0.7841158999981417,0.9868855801145496,,experiment,emotion,0.0,,,,947.0243195000004,1016,26,female,True
262,0.1363573439450392,25,up,up,0.4599459000019124,1.663103526003909,,experiment,cRDM,0.0,,,,952.2074943000008,1016,26,female,True
263,0.1363573439450392,25,up,up,0.5753930000028049,1.1884395191094912,,experiment,cRDM,0.0,,,,954.1240737000008,1016,26,female,True
264,0.1363573439450392,25,down,down,0.4524467999981425,1.6616471783864986,,experiment,cRDM,0.0,,,,956.6239815000008,1016,26,female,True
265,0.1363573439450392,25,down,down,0.7962110000007669,1.3705165336092806,,experiment,cRDM,0.0,,,,958.7072198999996,1016,26,female,True
266,0.1363573439450392,25,up,up,0.5896467999991728,1.6564903507702562,,experiment,cRDM,0.0,,,,961.4237958000012,1016,26,female,True
267,0.1363573439450392,25,down,down,0.3171502000004693,1.7362312311685306,,experiment,cRDM,0.0,,,,964.0237444000012,1016,26,female,True
268,0.1363573439450392,25,up,up,0.2671408999995037,1.0996462944541847,,experiment,cRDM,0.0,,,,965.8069747000008,1016,26,female,True
269,0.1363573439450392,25,up,down,0.350577000001067,0.711937025066246,,experiment,cRDM,0.0,,,,967.2068992999992,1016,26,female,True
270,0.1363573439450392,25,down,down,0.461011999999755,0.7345689389015323,,experiment,cRDM,0.0,,,,968.6234182000009,1016,26,female,True
271,0.1363573439450392,25,down,down,0.5602996000015992,1.04599525979943,,experiment,cRDM,0.0,,,,970.3901415,1016,26,female,True
272,0.1363573439450392,25,down,down,0.6602329000015743,0.6168671702767312,,experiment,cRDM,0.0,,,,971.8232051000014,1016,26,female,True
273,0.1363573439450392,25,down,down,0.5558116000029258,1.0670918143586887,,experiment,cRDM,0.0,,,,973.8066724000018,1016,26,female,True
274,0.1363573439450392,25,down,up,0.70785160000014,1.6280054279910143,,experiment,cRDM,0.0,,,,976.2565920000015,1016,26,female,True
275,0.1363573439450392,25,down,down,0.4636104000019259,1.6583032096693449,,experiment,cRDM,0.0,,,,978.8898253000008,1016,26,female,True
276,0.1363573439450392,25,up,down,0.7356810999990557,1.0898320949537332,,experiment,cRDM,0.0,,,,980.6897691000012,1016,26,female,True
277,0.1363573439450392,25,up,up,0.4831156000000192,1.62265206878886,,experiment,cRDM,0.0,,,,983.3063126999988,1016,26,female,True
278,0.1363573439450392,25,up,up,0.5754981000027328,1.6147514327336063,,experiment,cRDM,0.0,,,,985.6729387000014,1016,26,female,True
279,0.1363573439450392,25,up,down,1.0659673000009209,1.48206594845613,,experiment,cRDM,0.0,,,,987.989493600002,1016,26,female,True
280,0.1363573439450392,25,down,down,0.6883894999991753,1.950145404606604,,experiment,cRDM,0.0,,,,991.2560543,1016,26,female,True
281,0.1363573439450392,25,up,up,0.957477400002972,1.357370094679314,,experiment,cRDM,0.0,,,,993.5559638000012,1016,26,female,True
282,0.1363573439450392,25,up,up,0.6856005000008736,1.6214037983098006,,experiment,cRDM,0.0,,,,996.4058399999994,1016,26,female,True
283,0.1363573439450392,25,down,down,0.4700363000010839,1.4045450695909634,,experiment,cRDM,0.0,,,,998.7724350999996,1016,26,female,True
284,0.1363573439450392,25,up,down,0.63773609999771,1.2392334590386016,,experiment,cRDM,0.0,,,,1000.7557014000012,1016,26,female,True
285,0.1363573439450392,25,down,down,0.5981112000008579,0.719203556628387,,experiment,cRDM,0.0,,,,1002.372323399999,1016,26,female,True
286,0.1363573439450392,25,down,down,0.607568600000377,0.6942868454710398,,experiment,cRDM,0.0,,,,1003.938840400002,1016,26,female,True
287,0.1363573439450392,25,up,up,0.6732628000027034,1.0147904280315,,experiment,cRDM,0.0,,,,1005.822160300002,1016,26,female,True
288,0.1363573439450392,25,up,down,0.5700127000018256,1.7474188184589732,,experiment,cRDM,0.0,,,,1008.5054275000002,1016,26,female,True
289,0.1363573439450392,25,down,down,0.6763533000012103,0.4389323863812174,,experiment,cRDM,0.0,,,,1009.772035500002,1016,26,female,True
290,0.1363573439450392,25,up,down,0.6751645999975153,1.987633486964812,,experiment,cRDM,0.0,,,,1012.7052613999986,1016,26,female,True
291,0.1363573439450392,25,down,down,0.4216369000023405,1.9360854985379703,,experiment,cRDM,0.0,,,,1015.5718078999998,1016,26,female,True
292,0.1363573439450392,25,down,down,0.4276739000015368,0.8159951226776228,,experiment,cRDM,0.0,,,,1017.0717732000012,1016,26,female,True
293,0.1363573439450392,25,down,down,0.4917564999996102,0.5008946419311837,,experiment,cRDM,0.0,,,,1018.2717185,1016,26,female,True
294,0.1363573439450392,25,up,down,0.300449700000172,1.566506427516454,,experiment,cRDM,0.0,,,,1020.5883154000004,1016,26,female,True
295,0.1363573439450392,25,up,down,0.3004956999975547,1.8968702732914824,,experiment,cRDM,0.0,,,,1023.1548914000014,1016,26,female,True
296,0.1363573439450392,25,up,down,0.5333637000003364,0.3063163916341498,,experiment,cRDM,0.0,,,,1024.1380949999984,1016,26,female,True
297,0.1363573439450392,25,down,down,0.4002742999982729,1.8693167855190864,,experiment,cRDM,0.0,,,,1026.8047211000012,1016,26,female,True
298,0.1363573439450392,25,down,down,0.4001921000017319,1.1531342856312805,,experiment,cRDM,0.0,,,,1028.637971600001,1016,26,female,True
299,0.1363573439450392,25,up,down,0.3337658999989799,1.7345720692337272,,experiment,cRDM,0.0,,,,1031.0379514000017,1016,26,female,True
300,0.1363573439450392,25,down,down,0.5012087000031897,1.0384158370091925,,experiment,cRDM,0.0,,,,1032.7712474,1016,26,female,True
301,0.1363573439450392,25,up,up,0.7430262000016228,1.1631517537058682,,experiment,cRDM,0.0,,,,1034.7044437000004,1016,26,female,True
302,0.1363573439450392,25,up,down,0.4870575000022654,1.5892748216509458,,experiment,cRDM,0.0,,,,1037.3043767000015,1016,26,female,True
303,0.1363573439450392,25,up,down,0.9531272999993234,1.3076087911720011,,experiment,cRDM,0.0,,,,1039.3543142999988,1016,26,female,True
304,0.1363573439450392,25,down,down,0.7442520000004151,1.1923026409480597,,experiment,cRDM,0.0,,,,1041.7542078000006,1016,26,female,True
305,0.1363573439450392,25,down,down,0.6897589000000153,1.3655562526184482,,experiment,cRDM,0.0,,,,1044.1206848000002,1016,26,female,True
306,0.1363573439450392,25,up,down,1.874061200000142,1.3169384573722105,,experiment,cRDM,0.0,,,,1046.3873743000004,1016,26,female,True
307,0.1363573439450392,25,down,down,0.5492874000010488,1.953713521915796,,experiment,cRDM,0.0,,,,1050.487181299999,1016,26,female,True
308,0.1363573439450392,25,down,down,1.1992600999983551,0.341512813969234,,experiment,cRDM,0.0,,,,1051.6372082000016,1016,26,female,True
309,0.1363573439450392,25,up,up,0.6457622000016272,0.9984225189416424,,experiment,cRDM,0.0,,,,1054.1037203000014,1016,26,female,True
310,0.1363573439450392,25,up,up,0.6447460999988834,0.5615752565630042,,experiment,cRDM,0.0,,,,1055.553676399999,1016,26,female,True
311,0.1363573439450392,25,down,down,0.4820379999982833,1.9864647398597264,,experiment,cRDM,0.0,,,,1058.453557500001,1016,26,female,True
312,0.1363573439450392,25,up,up,0.5823012000000745,1.672924794339203,,experiment,cRDM,0.0,,,,1060.8701464000003,1016,26,female,True
313,0.1363573439450392,25,down,down,0.4697258999985934,1.9944059639545424,,experiment,cRDM,0.0,,,,1063.6867174,1016,26,female,True
314,0.1363573439450392,25,down,down,0.5134610999994038,1.1928161673929838,,experiment,cRDM,0.0,,,,1065.6199811000006,1016,26,female,True
315,0.1363573439450392,25,down,down,0.536847300001682,0.8959297789783052,,experiment,cRDM,0.0,,,,1067.2865997000008,1016,26,female,True
316,0.1363573439450392,25,up,up,0.9412561999997706,1.572902458672175,,experiment,cRDM,0.0,,,,1069.6531842000004,1016,26,female,True
317,0.1363573439450392,25,up,up,0.5600206999988586,1.4863875218630769,,experiment,cRDM,0.0,,,,1072.3364355000012,1016,26,female,True
318,0.1363573439450392,25,down,down,0.444165900000371,1.2724361558161723,,experiment,cRDM,0.0,,,,1074.4363110000013,1016,26,female,True
319,0.1363573439450392,25,down,down,0.553997499999241,0.5788652036563873,,experiment,cRDM,0.0,,,,1075.7195113000016,1016,26,female,True
320,0.1363573439450392,25,up,up,0.6762080999978934,1.1612808174510858,,experiment,cRDM,0.0,,,,1077.6862327000017,1016,26,female,True
321,0.1363573439450392,25,up,up,0.7901010999994469,1.2050982216823738,,experiment,cRDM,0.0,,,,1079.8193389000007,1016,26,female,True
322,0.1363573439450392,25,up,up,1.0247186999986295,0.728475470389031,,experiment,cRDM,0.0,,,,1081.6027173000002,1016,26,female,True
323,0.1363573439450392,25,up,down,1.2611333999993803,1.5850356972542097,,experiment,cRDM,0.0,,,,1084.4693058000012,1016,26,female,True
324,0.1363573439450392,25,up,up,0.548003100000642,1.0231614000585918,,experiment,cRDM,0.0,,,,1087.0025233000017,1016,26,female,True
325,0.1363573439450392,25,down,down,0.5383336999984749,1.7003607788895108,,experiment,cRDM,0.0,,,,1089.5191120000018,1016,26,female,True
326,0.1363573439450392,25,down,down,0.7994290999995428,1.3967430453684004,,experiment,cRDM,0.0,,,,1091.7190597000008,1016,26,female,True
327,0.1363573439450392,25,up,up,0.5581400000010035,1.077536858196916,,experiment,cRDM,0.0,,,,1093.8523042000015,1016,26,female,True
328,0.1363573439450392,25,down,down,1.474222799999552,0.6207097019164753,,experiment,cRDM,0.0,,,,1095.3022238000012,1016,26,female,True
329,0.1363573439450392,25,down,down,0.5676682999983313,0.6872599020783847,,experiment,cRDM,0.0,,,,1097.7187588000015,1016,26,female,True
330,0.1363573439450392,25,down,down,0.5277267999990727,1.9187601160911711,,experiment,cRDM,0.0,,,,1100.4687009000008,1016,26,female,True
331,0.1363573439450392,25,up,up,0.4544993000017712,1.0299555846364563,,experiment,cRDM,0.0,,,,1102.3019642,1016,26,female,True
332,0.1363573439450392,25,down,down,0.660572199998569,1.4752693055065933,,experiment,cRDM,0.0,,,,1104.5018889999992,1016,26,female,True
333,0.1363573439450392,25,down,down,0.6085462999981246,0.924429932945317,,experiment,cRDM,0.0,,,,1106.3518465000016,1016,26,female,True
334,0.1363573439450392,25,down,down,0.5550651999983529,1.10734665551505,,experiment,cRDM,0.0,,,,1108.3184002000016,1016,26,female,True
335,0.1363573439450392,25,up,up,0.7177615000000515,0.9756957782301778,,experiment,cRDM,0.0,,,,1110.1016853,1016,26,female,True
336,0.1363573439450392,25,up,,,0.7518275962671922,,experiment,cRDM,0.0,,,,1111.834904700001,1016,26,female,True
337,0.1363573439450392,25,down,down,0.5389482999999018,0.6307286912781065,,experiment,cRDM,0.0,,,,1115.151512700002,1016,26,female,True
338,0.1363573439450392,25,up,up,0.4533316000015475,0.6768745013687458,,experiment,cRDM,0.0,,,,1116.6181127000018,1016,26,female,True
339,0.1363573439450392,25,down,down,0.4167378999991342,1.466066195214916,,experiment,cRDM,0.0,,,,1118.801365899999,1016,26,female,True
340,0.1363573439450392,25,up,up,0.3838308999984292,0.9033675704257992,,experiment,cRDM,0.0,,,,1120.3846563000006,1016,26,female,True
341,0.1363573439450392,25,up,down,0.4245929999997315,0.3411622919615978,,experiment,cRDM,0.0,,,,1121.417900200002,1016,26,female,True
342,113.0,25,M,up,0.7586986000023899,0.8301789178746521,,experiment,emotion,1.0,,,,1126.917722099999,1016,26,female,True
343,98.0,25,M,up,0.7058202000007441,1.036013897137874,,experiment,emotion,1.0,,,,1129.0176272999995,1016,26,female,True
344,108.0,25,F,up,0.6665042999993602,0.8294756499428784,,experiment,emotion,1.0,,,,1130.8509451999998,1016,26,female,True
345,113.0,25,F,up,0.7655971999993199,0.7947447776969014,,experiment,emotion,1.0,,,,1132.600852800002,1016,26,female,True
346,108.0,25,M,up,0.6223255000004428,0.7418554774053128,,experiment,emotion,1.0,,,,1134.3841353999996,1016,26,female,True
347,103.0,25,F,up,0.6487581000001228,1.6352002914347836,,experiment,emotion,1.0,,,,1136.9506879,1016,26,female,True
348,98.0,25,M,down,0.657163899999432,1.2445581874817278,,experiment,emotion,1.0,,,,1139.1173039999994,1016,26,female,True
349,103.0,25,M,up,0.5515190999976767,0.7370490404134264,,experiment,emotion,1.0,,,,1140.7839018999985,1016,26,female,True
350,113.0,25,F,up,0.6263375999988057,1.3157385093394292,,experiment,emotion,1.0,,,,1142.9171371000011,1016,26,female,True
351,103.0,25,F,down,0.7506863999988127,0.5835133749853054,,experiment,emotion,1.0,,,,1144.3837558000014,1016,26,female,True
352,108.0,25,F,up,0.5367208999996365,1.286312226054788,,experiment,emotion,1.0,,,,1146.6836914999983,1016,26,female,True
353,113.0,25,F,up,0.6165064999986498,1.017087379306603,,experiment,emotion,1.0,,,,1148.5169338999983,1016,26,female,True
354,108.0,25,F,up,0.5798695999983465,0.8270887925639081,,experiment,emotion,1.0,,,,1150.2335662000005,1016,26,female,True
355,98.0,25,F,up,0.5073364000018046,1.2634375000352822,,experiment,emotion,1.0,,,,1152.3501098999986,1016,26,female,True
356,103.0,25,M,up,0.5243243999975675,0.7485460639935155,,experiment,emotion,1.0,,,,1153.8834113000012,1016,26,female,True
357,98.0,25,M,down,0.8254406999985804,0.3813737826497716,,experiment,emotion,1.0,,,,1155.0500318000013,1016,26,female,True
358,113.0,25,M,up,0.6271450999993249,1.036327115929787,,experiment,emotion,1.0,,,,1157.1833002999992,1016,26,female,True
359,98.0,25,M,down,0.6716051000003063,1.7141558438618196,,experiment,emotion,1.0,,,,1159.7998374000017,1016,26,female,True
360,108.0,25,F,down,0.6176236999999674,0.5647291419893071,,experiment,emotion,1.0,,,,1161.299821799999,1016,26,female,True
361,108.0,25,M,down,0.5757268999986991,0.8186913322446909,,experiment,emotion,1.0,,,,1162.9996984999998,1016,26,female,True
362,103.0,25,M,down,0.8201220000009926,1.1218353723170147,,experiment,emotion,1.0,,,,1165.0163008000018,1016,26,female,True
363,103.0,25,F,down,0.6942068999996991,1.7729404879502415,,experiment,emotion,1.0,,,,1167.8662460000014,1016,26,female,True
364,98.0,25,M,down,0.5812689999984286,1.556589149011056,,experiment,emotion,1.0,,,,1170.4161681000005,1016,26,female,True
365,113.0,25,F,down,0.6297057000010682,1.0359240759080697,,experiment,emotion,1.0,,,,1172.3327473999998,1016,26,female,True
366,108.0,25,F,down,0.7361572000008891,1.9532590941010128,,experiment,emotion,1.0,,,,1175.1992820000014,1016,26,female,True
367,98.0,25,M,down,0.4195909999980358,1.3626315176461317,,experiment,emotion,1.0,,,,1177.5658651000012,1016,26,female,True
368,113.0,25,M,down,0.56367020000107,1.0624621022455687,,experiment,emotion,1.0,,,,1179.3157519000015,1016,26,female,True
369,113.0,25,F,down,0.6950708999975177,1.0361524150880783,,experiment,emotion,1.0,,,,1181.182375700002,1016,26,female,True
370,103.0,25,M,down,0.3668541999977606,1.0419050896395583,,experiment,emotion,1.0,,,,1183.1989839999987,1016,26,female,True
371,98.0,25,F,down,0.7081569999972999,0.4008963160258998,,experiment,emotion,1.0,,,,1184.2822858,1016,26,female,True
372,103.0,25,F,down,0.5825578999974823,1.3052430271609092,,experiment,emotion,1.0,,,,1186.5488850000002,1016,26,female,True
373,108.0,25,F,down,0.6030499999978929,0.9979409958131356,,experiment,emotion,1.0,,,,1188.4153920999995,1016,26,female,True
374,98.0,25,M,down,0.7460633000009693,1.5692592430481629,,experiment,emotion,1.0,,,,1190.8653894000015,1016,26,female,True
375,113.0,25,M,down,0.781480300000112,1.2373198699154395,,experiment,emotion,1.0,,,,1193.1319664000002,1016,26,female,True
376,108.0,25,M,down,1.2652846999990288,0.3357282147390575,,experiment,emotion,1.0,,,,1194.5152309000005,1016,26,female,True
377,113.0,25,F,down,0.6586088999974891,1.0783876100666598,,experiment,emotion,1.0,,,,1197.131818400001,1016,26,female,True
378,98.0,25,F,up,0.6154123000014806,1.7027579021438364,,experiment,emotion,1.0,,,,1199.765059199999,1016,26,female,True
379,108.0,25,M,up,0.7198483000029228,1.222965122892159,,experiment,emotion,1.0,,,,1201.8816522000016,1016,26,female,True
380,103.0,25,F,up,0.6572964999977557,1.537522952048667,,experiment,emotion,1.0,,,,1204.4482462999986,1016,26,female,True
381,103.0,25,M,up,0.5393086000003677,1.258871160432733,,experiment,emotion,1.0,,,,1206.6481384,1016,26,female,True
382,108.0,25,M,down,0.6853493000016897,0.5966714215947576,,experiment,emotion,1.0,,,,1208.0480934000009,1016,26,female,True
383,113.0,25,M,down,1.12384480000037,1.8025219587078731,,experiment,emotion,1.0,,,,1210.814611599999,1016,26,female,True
384,103.0,25,F,down,0.7205176999996183,1.5958631683174456,,experiment,emotion,1.0,,,,1213.7978939999994,1016,26,female,True
385,98.0,25,F,down,0.6525863999995636,0.3193490429463651,,experiment,emotion,1.0,,,,1215.1478580000005,1016,26,female,True
386,98.0,25,M,down,0.9769546000025002,0.4029972296656633,,experiment,emotion,1.0,,,,1216.4644469999985,1016,26,female,True
387,103.0,25,F,down,0.5725490000004356,0.926621328689768,,experiment,emotion,1.0,,,,1218.6309502000004,1016,26,female,True
388,113.0,25,F,down,0.6041621000003943,1.389482314677611,,experiment,emotion,1.0,,,,1220.864293900002,1016,26,female,True
389,108.0,25,M,down,0.5835843000022578,1.1699252408691485,,experiment,emotion,1.0,,,,1222.9308714,1016,26,female,True
390,98.0,25,M,down,0.9166569000008168,0.702938146781159,,experiment,emotion,1.0,,,,1224.4808317999996,1016,26,female,True
391,113.0,25,F,down,0.8887457000018912,1.8633477040133213,,experiment,emotion,1.0,,,,1227.5307018999993,1016,26,female,True
392,108.0,25,M,down,0.874163899999985,0.7527592350066826,,experiment,emotion,1.0,,,,1229.4473134,1016,26,female,True
393,108.0,25,F,down,0.7179140999978699,0.3554455479985247,,experiment,emotion,1.0,,,,1230.9305879999993,1016,26,female,True
394,98.0,25,F,down,0.6112408000008145,0.494597858957413,,experiment,emotion,1.0,,,,1232.3972009999998,1016,26,female,True
395,103.0,25,F,down,0.6370097999970312,1.7402816007775233,,experiment,emotion,1.0,,,,1235.0304402000002,1016,26,female,True
396,113.0,25,M,down,0.6940952000004472,1.9401722937175132,,experiment,emotion,1.0,,,,1237.8803556999992,1016,26,female,True
397,103.0,25,M,down,0.6125075999989349,0.5578811186810853,,experiment,emotion,1.0,,,,1239.3969241999985,1016,26,female,True
398,103.0,25,F,down,0.9339983999998368,1.6414066609930285,,experiment,emotion,1.0,,,,1241.9134691,1016,26,female,True
399,103.0,25,F,down,0.7891234999988228,1.497685804335254,,experiment,emotion,1.0,,,,1244.6133269999991,1016,26,female,True
400,113.0,25,M,down,0.5383930999996664,1.2013761743331974,,experiment,emotion,1.0,,,,1246.8800116999992,1016,26,female,True
401,108.0,25,M,down,0.7271755000001576,1.1513081337749127,,experiment,emotion,1.0,,,,1248.8632717,1016,26,female,True
402,98.0,25,M,down,0.6069631999998819,1.953408944769237,,experiment,emotion,1.0,,,,1251.846486800001,1016,26,female,True
403,98.0,25,M,down,0.7407679999996617,1.568261940228851,,experiment,emotion,1.0,,,,1254.2797317000004,1016,26,female,True
404,108.0,25,M,up,1.2736097999986669,1.82691696361844,,experiment,emotion,1.0,,,,1257.1128419999986,1016,26,female,True
405,113.0,25,F,down,0.7642732999993314,1.6331623713092716,,experiment,emotion,1.0,,,,1260.2961552999986,1016,26,female,True
406,113.0,25,F,down,0.6906717999991088,1.2407187992282775,,experiment,emotion,1.0,,,,1262.5627687000017,1016,26,female,True
407,98.0,25,M,down,0.7144577999970352,1.6134264610875984,,experiment,emotion,1.0,,,,1265.1460054000015,1016,26,female,True
408,113.0,25,F,up,1.5954950999985158,0.7267320729775468,,experiment,emotion,1.0,,,,1266.8459379000014,1016,26,female,True
409,103.0,25,F,down,0.6659784000003128,1.5210431791999517,,experiment,emotion,1.0,,,,1270.262466600001,1016,26,female,True
410,108.0,25,F,down,0.7696770999973523,1.8648157532355365,,experiment,emotion,1.0,,,,1273.0957677000006,1016,26,female,True
411,103.0,25,M,down,0.5458005999971647,0.8585058801352206,,experiment,emotion,1.0,,,,1274.9956299000005,1016,26,female,True
412,98.0,25,F,down,0.6755512999989151,1.2754386493575618,,experiment,emotion,1.0,,,,1277.0788979999998,1016,26,female,True
413,108.0,25,F,down,0.752651100003277,0.7444125942514492,,experiment,emotion,1.0,,,,1278.7788216000008,1016,26,female,True
414,103.0,25,F,down,0.8680894000026456,1.1968392112294628,,experiment,emotion,1.0,,,,1280.995401100001,1016,26,female,True
415,108.0,25,M,down,0.7759909000014886,1.6943931191810606,,experiment,emotion,1.0,,,,1283.8286350000017,1016,26,female,True
416,98.0,25,M,down,0.5948602999997092,1.75326466397559,,experiment,emotion,1.0,,,,1286.6285702999994,1016,26,female,True
417,113.0,25,F,down,0.5373570999981894,1.7653445615329308,,experiment,emotion,1.0,,,,1289.2950945000011,1016,26,female,True
418,108.0,25,M,down,0.6674459999994724,0.6872456740739001,,experiment,emotion,1.0,,,,1290.795032500002,1016,26,female,True
419,113.0,25,F,down,0.6794546000019182,0.8929162615355826,,experiment,emotion,1.0,,,,1292.644975700001,1016,26,female,True
420,98.0,25,M,down,0.6126218999997946,1.4917406842629886,,experiment,emotion,1.0,,,,1295.0948911999983,1016,26,female,True
421,103.0,25,M,down,0.9553145999998378,0.5193940492763639,,experiment,emotion,1.0,,,,1296.5281886000012,1016,26,female,True
422,0.1363573439450392,25,up,up,0.4764549999999872,0.8500003856481568,,experiment,cRDM,1.0,,,,1301.2780055000003,1016,26,female,True
423,0.1363573439450392,25,up,down,0.3171014999970794,1.471779523961651,,experiment,cRDM,1.0,,,,1303.4779124999986,1016,26,female,True
424,0.1363573439450392,25,down,down,0.5349412000032316,1.3963586336836071,,experiment,cRDM,1.0,,,,1305.544538099999,1016,26,female,True
425,0.1363573439450392,25,down,down,0.524655500001245,1.3847429028039449,,experiment,cRDM,1.0,,,,1307.7277907999996,1016,26,female,True
426,0.1363573439450392,25,up,up,0.7337634000032267,1.4663242455495815,,experiment,cRDM,1.0,,,,1309.9776915000002,1016,26,female,True
427,0.1363573439450392,25,down,down,0.4167785999998159,1.9055654807996325,,experiment,cRDM,1.0,,,,1312.877584599999,1016,26,female,True
428,0.1363573439450392,25,up,up,0.475705900000321,0.4573721227156342,,experiment,cRDM,1.0,,,,1314.0107573999994,1016,26,female,True
429,0.1363573439450392,25,up,up,0.6253470999981801,1.0073700440486577,,experiment,cRDM,1.0,,,,1315.7441356000018,1016,26,female,True
430,0.1363573439450392,25,down,down,0.3837854000012157,0.957535713998972,,experiment,cRDM,1.0,,,,1317.5940800999997,1016,26,female,True
431,0.1363573439450392,25,down,down,0.4779194000002462,1.491588412669528,,experiment,cRDM,1.0,,,,1319.7606347,1016,26,female,True
432,0.1363573439450392,25,down,down,0.6778489000025729,0.5633018822429745,,experiment,cRDM,1.0,,,,1321.0606160999996,1016,26,female,True
433,0.1363573439450392,25,down,down,0.7119070999979158,0.346956778116942,,experiment,cRDM,1.0,,,,1322.3605592999993,1016,26,female,True
434,0.1363573439450392,25,down,down,0.496968299998116,1.5260244479902787,,experiment,cRDM,1.0,,,,1324.8604928999994,1016,26,female,True
435,0.1363573439450392,25,down,down,1.3143732999997155,0.4141977544659231,,experiment,cRDM,1.0,,,,1326.0270931000014,1016,26,female,True
436,0.1363573439450392,25,up,up,0.4794220999974641,1.7352071880474358,,experiment,cRDM,1.0,,,,1329.326997,1016,26,female,True
437,0.1363573439450392,25,up,up,0.7422531000011077,1.7936826769208023,,experiment,cRDM,1.0,,,,1331.8602095999995,1016,26,female,True
438,0.1363573439450392,25,up,down,0.7636793999990914,1.8600901232943696,,experiment,cRDM,1.0,,,,1334.7268016000016,1016,26,female,True
439,0.1363573439450392,25,up,up,0.6264031999999133,1.5586289460401015,,experiment,cRDM,1.0,,,,1337.310050600001,1016,26,female,True
440,0.1363573439450392,25,down,down,0.5358478000016476,1.4235283897021622,,experiment,cRDM,1.0,,,,1339.626594199999,1016,26,female,True
441,0.1363573439450392,25,up,up,0.5539516000026197,1.597640604525138,,experiment,cRDM,1.0,,,,1342.0265062,1016,26,female,True
442,0.1363573439450392,25,up,up,0.6170423000003211,1.437419599997022,,experiment,cRDM,1.0,,,,1344.2764180000013,1016,26,female,True
443,0.1363573439450392,25,down,down,0.6217470999981742,0.5970625005101533,,experiment,cRDM,1.0,,,,1345.7597074000005,1016,26,female,True
444,0.1363573439450392,25,up,up,0.5158703999986756,1.3123533550591675,,experiment,cRDM,1.0,,,,1347.959642599999,1016,26,female,True
445,0.1363573439450392,25,down,down,0.5639219000004232,1.4686051912574418,,experiment,cRDM,1.0,,,,1350.209541799999,1016,26,female,True
446,0.1363573439450392,25,down,down,0.5160590000014054,1.876172003351956,,experiment,cRDM,1.0,,,,1352.909399799999,1016,26,female,True
447,0.1363573439450392,25,up,up,0.5427731000017957,1.652779974699907,,experiment,cRDM,1.0,,,,1355.3426839999993,1016,26,female,True
448,0.1363573439450392,25,up,up,1.1474895999999717,0.7232785751116135,,experiment,cRDM,1.0,,,,1356.8759606999993,1016,26,female,True
449,0.1363573439450392,25,down,down,0.4002420999968308,1.7685427030785417,,experiment,cRDM,1.0,,,,1360.0591735000016,1016,26,female,True
450,0.1363573439450392,25,up,up,0.3171317999986058,1.9998452750500737,,experiment,cRDM,1.0,,,,1362.7424271000018,1016,26,female,True
451,0.1363573439450392,25,down,down,0.3171438999997917,1.4674212606098365,,experiment,cRDM,1.0,,,,1364.8923123999994,1016,26,female,True
452,0.1363573439450392,25,down,down,0.5282145999990462,1.2834984156926617,,experiment,cRDM,1.0,,,,1366.8422838000006,1016,26,female,True
453,0.1363573439450392,25,down,down,0.5676007000001846,1.1242849727734057,,experiment,cRDM,1.0,,,,1368.7588571999986,1016,26,female,True
454,0.1363573439450392,25,up,up,0.4460115000001678,1.2832829196003603,,experiment,cRDM,1.0,,,,1370.8754685999993,1016,26,female,True
455,0.1363573439450392,25,up,down,0.4998636999989685,1.775801182347447,,experiment,cRDM,1.0,,,,1373.3586811999994,1016,26,female,True
456,0.1363573439450392,25,up,down,0.8081153999992239,0.8611942267536379,,experiment,cRDM,1.0,,,,1374.975323300001,1016,26,female,True
457,0.1363573439450392,25,down,down,0.6009660999989137,0.7688495607564197,,experiment,cRDM,1.0,,,,1376.8085112000008,1016,26,female,True
458,0.1363573439450392,25,down,down,0.4756166000006487,0.4175694250127499,,experiment,cRDM,1.0,,,,1378.091851600002,1016,26,female,True
459,0.1363573439450392,25,up,up,0.6040462999990268,1.0248630089525723,,experiment,cRDM,1.0,,,,1379.8584468000008,1016,26,female,True
460,0.1363573439450392,25,down,down,0.3504771999978402,1.81406285225,,experiment,cRDM,1.0,,,,1382.5416769000003,1016,26,female,True
461,0.1363573439450392,25,up,,,0.8320315075551772,,experiment,cRDM,1.0,,,,1384.0583002999992,1016,26,female,True
462,0.1363573439450392,25,up,down,1.2606145999998262,1.485524431101262,,experiment,cRDM,1.0,,,,1388.2248437000017,1016,26,female,True
463,0.1363573439450392,25,up,up,0.7487283000009484,0.87140347468325,,experiment,cRDM,1.0,,,,1390.6247484000014,1016,26,female,True
464,0.1363573439450392,25,down,down,0.7094885000005888,1.262334886899923,,experiment,cRDM,1.0,,,,1392.9079659000015,1016,26,female,True
465,0.1363573439450392,25,down,up,1.1552345999989484,0.7606649303774276,,experiment,cRDM,1.0,,,,1394.6412377000015,1016,26,female,True
466,0.1363573439450392,25,up,up,2.0303667999978643,1.2900053439441026,,experiment,cRDM,1.0,,,,1397.3411213,1016,26,female,True
467,0.1363573439450392,25,down,down,0.549861300001794,0.4865040730372773,,experiment,cRDM,1.0,,,,1400.1075797000012,1016,26,female,True
468,0.1363573439450392,25,down,down,0.6324712999994517,0.477456514188024,,experiment,cRDM,1.0,,,,1401.3909841999994,1016,26,female,True
469,0.1363573439450392,25,up,up,0.5809558000000834,1.4161805045324931,,experiment,cRDM,1.0,,,,1403.7075127999997,1016,26,female,True
470,0.1363573439450392,25,up,up,0.786291300002631,1.307677224476119,,experiment,cRDM,1.0,,,,1405.8741689000017,1016,26,female,True
471,0.1363573439450392,25,down,down,0.5130989999997837,1.8898130705999547,,experiment,cRDM,1.0,,,,1408.8073865000006,1016,26,female,True
472,0.1363573439450392,25,up,up,0.643176500001573,1.1768676487020864,,experiment,cRDM,1.0,,,,1410.7573386000004,1016,26,female,True
473,0.1363573439450392,25,down,down,0.5112266999967687,0.8871508412692597,,experiment,cRDM,1.0,,,,1412.5572573999998,1016,26,female,True
474,0.1363573439450392,25,down,down,0.6196496000011393,0.4449343986355455,,experiment,cRDM,1.0,,,,1413.773881699999,1016,26,female,True
475,0.1363573439450392,25,down,down,0.4936598000022059,1.1295689323819975,,experiment,cRDM,1.0,,,,1415.7738028999993,1016,26,female,True
476,0.1363573439450392,25,up,up,0.594760199997836,1.9315818575571315,,experiment,cRDM,1.0,,,,1418.4736986999997,1016,26,female,True
477,0.1363573439450392,25,up,up,0.5868401000006997,1.0342270086717793,,experiment,cRDM,1.0,,,,1420.3736204999989,1016,26,female,True
478,0.1363573439450392,25,down,down,0.4603398999970522,1.7171392240468446,,experiment,cRDM,1.0,,,,1422.940203099999,1016,26,female,True
479,0.1363573439450392,25,down,down,0.6966551000004984,1.593513941471195,,experiment,cRDM,1.0,,,,1425.256791200001,1016,26,female,True
480,0.1363573439450392,25,up,up,0.550115400001232,1.61251734010848,,experiment,cRDM,1.0,,,,1427.8233813000006,1016,26,female,True
481,0.1363573439450392,25,up,up,0.7474903000002087,1.1091981488187628,,experiment,cRDM,1.0,,,,1429.7399662999997,1016,26,female,True
482,0.1363573439450392,25,up,up,0.6335476000022027,0.3749562886673735,,experiment,cRDM,1.0,,,,1431.139911000002,1016,26,female,True
483,0.1363573439450392,25,up,up,0.5062450999976136,0.6924401619329199,,experiment,cRDM,1.0,,,,1432.7232154000012,1016,26,female,True
484,0.1363573439450392,25,up,up,0.4968116999989433,1.3957551155489918,,experiment,cRDM,1.0,,,,1434.8897480999983,1016,26,female,True
485,0.1363573439450392,25,down,down,0.917439100001502,0.5748736514153923,,experiment,cRDM,1.0,,,,1436.223058200001,1016,26,female,True
486,0.1363573439450392,25,down,up,0.5498312000017904,1.1742391557559928,,experiment,cRDM,1.0,,,,1438.5896629000017,1016,26,female,True
487,0.1363573439450392,25,up,up,0.5116698999991058,1.2816451375800129,,experiment,cRDM,1.0,,,,1440.6728597,1016,26,female,True
488,0.1363573439450392,25,down,down,0.5326664999993227,0.3763955741970255,,experiment,cRDM,1.0,,,,1441.8228469999997,1016,26,female,True
489,0.1363573439450392,25,down,down,0.5291215999968699,0.9715572906526012,,experiment,cRDM,1.0,,,,1443.589398,1016,26,female,True
490,0.1363573439450392,25,down,down,0.514780299999984,1.5814820704231412,,experiment,cRDM,1.0,,,,1445.9726888000005,1016,26,female,True
491,0.1363573439450392,25,up,up,0.445881299998291,1.9644219409465675,,experiment,cRDM,1.0,,,,1448.7225841,1016,26,female,True
492,0.1363573439450392,25,down,down,0.4366762999998173,1.92456115028218,,experiment,cRDM,1.0,,,,1451.3558225999986,1016,26,female,True
493,0.1363573439450392,25,down,down,0.4627190999999584,1.3647360166373093,,experiment,cRDM,1.0,,,,1453.4057768999992,1016,26,female,True
494,0.1363573439450392,25,down,down,0.3838289000013901,1.808169951412212,,experiment,cRDM,1.0,,,,1455.938986199999,1016,26,female,True
495,0.1363573439450392,25,up,up,0.5325059999995574,0.32977969251682,,experiment,cRDM,1.0,,,,1456.9389554000009,1016,26,female,True
496,0.1363573439450392,25,up,up,0.5227496000006795,1.2511640830123028,,experiment,cRDM,1.0,,,,1458.9887146,1016,26,female,True
497,0.1363573439450392,25,down,down,0.4663447000020824,0.5990830771163547,,experiment,cRDM,1.0,,,,1460.3721459000008,1016,26,female,True
498,0.1363573439450392,25,up,up,0.4473775000005844,1.7188740686588897,,experiment,cRDM,1.0,,,,1462.8220714000015,1016,26,female,True
499,0.1363573439450392,25,down,down,0.5060984999981883,0.3126389700639642,,experiment,cRDM,1.0,,,,1463.8553637000005,1016,26,female,True
500,0.1363573439450392,25,up,up,0.4761413000014727,1.8828738296768897,,experiment,cRDM,1.0,,,,1466.5053021999993,1016,26,female,True
501,0.1363573439450392,25,up,,,1.446571979175293,,experiment,cRDM,1.0,,,,1468.6884566000008,1016,26,female,True
502,113.0,25,M,down,1.376142200002505,1.1104166822276913,,experiment,emotion,2.0,,,,1475.138297900001,1016,26,female,True
503,98.0,25,M,down,0.6329895999988366,1.531559721613076,,experiment,emotion,2.0,,,,1478.3714772999992,1016,26,female,True
504,108.0,25,F,down,0.6338565000005474,1.1027571083014245,,experiment,emotion,2.0,,,,1480.4046296000015,1016,26,female,True
505,113.0,25,F,up,0.8344237000019348,0.6223196156516275,,experiment,emotion,2.0,,,,1481.9380378999997,1016,26,female,True
506,108.0,25,M,down,0.7328409999972791,1.4174227167345057,,experiment,emotion,2.0,,,,1484.454619799999,1016,26,female,True
507,103.0,25,F,down,0.7469468000017514,1.5130592683656137,,experiment,emotion,2.0,,,,1487.0045213000012,1016,26,female,True
508,98.0,25,M,down,0.7167623999994248,1.2557951516096415,,experiment,emotion,2.0,,,,1489.2877536999986,1016,26,female,True
509,103.0,25,M,down,0.5897919000017282,0.6290136475126387,,experiment,emotion,2.0,,,,1490.8876863000005,1016,26,female,True
510,113.0,25,F,down,0.573874399997294,0.8427796289727363,,experiment,emotion,2.0,,,,1492.587630099999,1016,26,female,True
511,103.0,25,F,down,0.9632333000008656,1.9062091183197076,,experiment,emotion,2.0,,,,1495.3542310000012,1016,26,female,True
512,108.0,25,F,up,0.8065566000004765,0.6959113722352818,,experiment,emotion,2.0,,,,1497.3208900999998,1016,26,female,True
513,113.0,25,F,down,0.6640823999987333,1.744654074287499,,experiment,emotion,2.0,,,,1500.1373664999992,1016,26,female,True
514,108.0,25,F,down,0.9018299999988812,1.542411760476306,,experiment,emotion,2.0,,,,1502.6206232000004,1016,26,female,True
515,98.0,25,F,down,0.9009729000026708,0.8447202744855216,,experiment,emotion,2.0,,,,1504.670532,1016,26,female,True
516,103.0,25,M,up,1.1026219000013953,1.6136908525273388,,experiment,emotion,2.0,,,,1507.503796699999,1016,26,female,True
517,98.0,25,M,down,0.6847997000004398,0.5267586689939848,,experiment,emotion,2.0,,,,1509.4036763000004,1016,26,female,True
518,113.0,25,M,up,0.7801918000004662,1.5703753063961812,,experiment,emotion,2.0,,,,1511.9202843999992,1016,26,female,True
519,98.0,25,M,up,1.2209975000005215,1.0133992765735098,,experiment,emotion,2.0,,,,1514.0034707999985,1016,26,female,True
520,108.0,25,F,down,0.6693617999990238,1.651250906827854,,experiment,emotion,2.0,,,,1517.1701018999993,1016,26,female,True
521,108.0,25,M,down,0.6518238999997266,1.326123491455095,,experiment,emotion,2.0,,,,1519.4366555000015,1016,26,female,True
522,103.0,25,M,down,0.662866300001042,0.9981290842677892,,experiment,emotion,2.0,,,,1521.386604899999,1016,26,female,True
523,103.0,25,F,down,0.750449999999546,1.8724076349451693,,experiment,emotion,2.0,,,,1524.2030207999996,1016,26,female,True
524,98.0,25,M,down,0.7060482999986561,0.99838846289229,,experiment,emotion,2.0,,,,1526.2364190000008,1016,26,female,True
525,113.0,25,F,down,1.667777799997566,0.9152303516714976,,experiment,emotion,2.0,,,,1528.1696747999997,1016,26,female,True
526,108.0,25,F,down,0.6035424000001512,0.4516738226237107,,experiment,emotion,2.0,,,,1530.5529233999987,1016,26,female,True
527,98.0,25,M,down,2.073371499998757,1.9699550282394045,,experiment,emotion,2.0,,,,1533.3861347999991,1016,26,female,True
528,113.0,25,M,down,0.662124300000869,1.734382770963756,,experiment,emotion,2.0,,,,1537.4693613000018,1016,26,female,True
529,113.0,25,F,up,0.908659600001556,1.0813297833216375,,experiment,emotion,2.0,,,,1539.485914199999,1016,26,female,True
530,103.0,25,M,down,0.3669595999999728,1.411955551207142,,experiment,emotion,2.0,,,,1542.102385999999,1016,26,female,True
531,98.0,25,F,down,0.5101047999996808,0.4108163835089606,,experiment,emotion,2.0,,,,1543.2023590999995,1016,26,female,True
532,103.0,25,F,down,0.6194394000012835,1.3921321326605338,,experiment,emotion,2.0,,,,1545.3690572999983,1016,26,female,True
533,108.0,25,F,down,0.5807791000006546,0.6287002037323486,,experiment,emotion,2.0,,,,1546.9356528999997,1016,26,female,True
534,98.0,25,M,down,0.5435705999989295,1.7646583857159677,,experiment,emotion,2.0,,,,1549.568906200002,1016,26,female,True
535,113.0,25,M,down,0.4477413999993587,1.7680220093166472,,experiment,emotion,2.0,,,,1552.168785400001,1016,26,female,True
536,108.0,25,M,down,0.3668284999985189,1.1225127016488268,,experiment,emotion,2.0,,,,1554.0187361999997,1016,26,female,True
537,113.0,25,F,down,0.490137799999502,1.2081764743110444,,experiment,emotion,2.0,,,,1555.9353176000004,1016,26,female,True
538,98.0,25,F,down,0.5842900999996345,1.9469437415337625,,experiment,emotion,2.0,,,,1558.635207700001,1016,26,female,True
539,108.0,25,M,down,0.5414206000023114,1.9485004606869007,,experiment,emotion,2.0,,,,1561.4350962999997,1016,26,female,True
540,103.0,25,F,,,0.7733018565062394,,experiment,emotion,2.0,,,,1563.0684121000013,1016,26,female,True
541,103.0,25,M,down,0.6024953000014648,0.880071372825983,,experiment,emotion,2.0,,,,1566.6349336999992,1016,26,female,True
542,108.0,25,M,down,0.672967400001653,0.8599975113166174,,experiment,emotion,2.0,,,,1568.351538400002,1016,26,female,True
543,113.0,25,M,up,1.0230265999998664,1.6578580301944237,,experiment,emotion,2.0,,,,1571.0014416000013,1016,26,female,True
544,103.0,25,F,up,0.6971032000001287,1.0619492528627037,,experiment,emotion,2.0,,,,1573.351365300001,1016,26,female,True
545,98.0,25,F,down,0.8411744000004546,0.5374733003858101,,experiment,emotion,2.0,,,,1574.9012957000014,1016,26,female,True
546,98.0,25,M,down,0.5502578000014182,0.4817702097373481,,experiment,emotion,2.0,,,,1576.5012406999997,1016,26,female,True
547,103.0,25,F,down,0.4475984999990032,0.6310737808212219,,experiment,emotion,2.0,,,,1577.9678400000012,1016,26,female,True
548,113.0,25,F,down,1.2136752999977034,1.5935033504847689,,experiment,emotion,2.0,,,,1580.2677937000008,1016,26,female,True
549,108.0,25,M,down,0.9548178000004556,1.3354755927883233,,experiment,emotion,2.0,,,,1583.1176532999998,1016,26,female,True
550,98.0,25,M,down,0.6002735000001849,0.5312368855598493,,experiment,emotion,2.0,,,,1584.8841734000016,1016,26,female,True
551,113.0,25,F,down,0.4389879000009387,1.7309900989638147,,experiment,emotion,2.0,,,,1587.4674818999993,1016,26,female,True
552,108.0,25,M,down,0.6443497000000207,0.8441480251347662,,experiment,emotion,2.0,,,,1589.034120700002,1016,26,female,True
553,108.0,25,F,down,1.7401286999993315,1.564352744063765,,experiment,emotion,2.0,,,,1591.5173403000008,1016,26,female,True
554,98.0,25,F,down,0.6796074000012595,1.859301414404143,,experiment,emotion,2.0,,,,1595.3838665000003,1016,26,female,True
555,103.0,25,F,down,0.558036099999299,1.385572814364506,,experiment,emotion,2.0,,,,1597.750458300001,1016,26,female,True
556,113.0,25,M,down,0.4564412999970955,1.1153479787869425,,experiment,emotion,2.0,,,,1599.7170525,1016,26,female,True
557,103.0,25,M,down,1.4354953000001842,1.7671833574636933,,experiment,emotion,2.0,,,,1602.2169560000002,1016,26,female,True
558,103.0,25,F,down,0.6996595000018715,1.8945598314237373,,experiment,emotion,2.0,,,,1605.8168374000015,1016,26,female,True
559,103.0,25,F,down,0.4990670999977737,0.8873874804693966,,experiment,emotion,2.0,,,,1607.683401000002,1016,26,female,True
560,113.0,25,M,down,0.4001699000000371,0.4470402849227516,,experiment,emotion,2.0,,,,1608.900064100002,1016,26,female,True
561,108.0,25,M,down,0.6448503999999957,1.6843762328306442,,experiment,emotion,2.0,,,,1611.3166222,1016,26,female,True
562,98.0,25,M,down,0.4302599999973608,1.86850543105614,,experiment,emotion,2.0,,,,1614.1332251999993,1016,26,female,True
563,98.0,25,M,down,0.3501494000011007,0.8960181099158322,,experiment,emotion,2.0,,,,1615.7164637999997,1016,26,female,True
564,108.0,25,M,down,0.3835107000013522,0.5808713363055251,,experiment,emotion,2.0,,,,1616.9830653999998,1016,26,female,True
565,113.0,25,F,down,0.3502062000006845,0.3235575849581807,,experiment,emotion,2.0,,,,1617.983024000001,1016,26,female,True
566,113.0,25,F,down,0.4394919999976991,1.2609820070097275,,experiment,emotion,2.0,,,,1619.9329856000004,1016,26,female,True
567,98.0,25,M,down,0.3668638999988616,1.4791219378885496,,experiment,emotion,2.0,,,,1622.1328839999987,1016,26,female,True
568,113.0,25,F,down,0.4852557999984128,0.3467311313899914,,experiment,emotion,2.0,,,,1623.1661827999997,1016,26,female,True
569,103.0,25,F,down,0.3169658000006166,1.8189100481170355,,experiment,emotion,2.0,,,,1625.782672199999,1016,26,female,True
570,108.0,25,F,down,0.3001732000011543,0.8239505660693576,,experiment,emotion,2.0,,,,1627.2993850999992,1016,26,female,True
571,103.0,25,M,down,0.3335424999968381,1.9682159819334728,,experiment,emotion,2.0,,,,1629.965909300001,1016,26,female,True
572,98.0,25,F,down,0.3834935000013502,0.3007846207430314,,experiment,emotion,2.0,,,,1630.9492346000006,1016,26,female,True
573,108.0,25,F,down,0.3168657999995048,1.21146790666123,,experiment,emotion,2.0,,,,1632.849157100001,1016,26,female,True
574,103.0,25,F,down,0.4002075999997032,1.7877762440718978,,experiment,emotion,2.0,,,,1635.3157457000016,1016,26,female,True
575,108.0,25,M,down,0.3334943000008934,1.904688086687932,,experiment,emotion,2.0,,,,1637.8989753999997,1016,26,female,True
576,98.0,25,M,down,0.33358170000065,0.3542474228393461,,experiment,emotion,2.0,,,,1638.9322907999997,1016,26,female,True
577,113.0,25,F,down,0.4549967999992077,1.613213815136644,,experiment,emotion,2.0,,,,1641.2655169999998,1016,26,female,True
578,108.0,25,M,down,0.3668458000029204,0.7577725988247649,,experiment,emotion,2.0,,,,1642.7321464999986,1016,26,female,True
579,113.0,25,F,down,0.3502168000013625,1.2155452217869886,,experiment,emotion,2.0,,,,1644.6487173999994,1016,26,female,True
580,98.0,25,M,down,0.3001494000018283,1.3664520826587574,,experiment,emotion,2.0,,,,1646.6986695000014,1016,26,female,True
581,103.0,25,M,down,0.3335288999987824,1.646012992477404,,experiment,emotion,2.0,,,,1649.0485694000015,1016,26,female,True
582,0.1363573439450392,25,up,up,0.4771228999998129,0.5204494141686699,,experiment,cRDM,2.0,,,,1664.4313493000009,1016,26,female,True
583,0.1363573439450392,25,up,down,0.4218551000012667,0.8363696950620134,,experiment,cRDM,2.0,,,,1666.0146449999993,1016,26,female,True
584,0.1363573439450392,25,down,down,0.4167720000004919,1.9169478806192168,,experiment,cRDM,2.0,,,,1668.614547199999,1016,26,female,True
585,0.1363573439450392,25,down,down,0.5059885000009672,1.412172237019649,,experiment,cRDM,2.0,,,,1670.7144706,1016,26,female,True
586,0.1363573439450392,25,up,up,0.523464600002626,0.8597438075128208,,experiment,cRDM,2.0,,,,1672.3310401000017,1016,26,female,True
587,0.1363573439450392,25,down,down,0.4204009000022779,0.3569968548814136,,experiment,cRDM,2.0,,,,1673.4810007000017,1016,26,female,True
588,0.1363573439450392,25,up,up,0.3671547000012651,0.7749037452242502,,experiment,cRDM,2.0,,,,1674.9309771000007,1016,26,female,True
589,0.1363573439450392,25,up,down,0.4518803999999363,1.1045041251434162,,experiment,cRDM,2.0,,,,1676.7308728999997,1016,26,female,True
590,0.1363573439450392,25,down,down,0.3838108999989345,1.5278461039381148,,experiment,cRDM,2.0,,,,1678.9807961000006,1016,26,female,True
591,0.1363573439450392,25,down,down,0.691142800002126,0.8385891303401778,,experiment,cRDM,2.0,,,,1680.4973279000003,1016,26,female,True
592,0.1363573439450392,25,down,down,0.5481942000005802,1.360810677167584,,experiment,cRDM,2.0,,,,1682.7972818999988,1016,26,female,True
593,0.1363573439450392,25,down,down,0.5645559000004141,0.751062456047469,,experiment,cRDM,2.0,,,,1684.3639608000012,1016,26,female,True
594,0.1363573439450392,25,down,down,0.4167734000002383,0.966581428566005,,experiment,cRDM,2.0,,,,1686.1472111000005,1016,26,female,True
595,0.1363573439450392,25,down,down,0.3839140000018233,0.4590164192897337,,experiment,cRDM,2.0,,,,1687.297079,1016,26,female,True
596,0.1363573439450392,25,up,up,0.6143572999972093,0.3742300506692733,,experiment,cRDM,2.0,,,,1688.3471384000004,1016,26,female,True
597,0.1363573439450392,25,up,down,0.3338337000022875,0.990188410941051,,experiment,cRDM,2.0,,,,1690.2137527999985,1016,26,female,True
598,0.1363573439450392,25,up,up,0.88186929999938,1.5655134794577743,,experiment,cRDM,2.0,,,,1692.4636566000008,1016,26,female,True
599,0.1363573439450392,25,up,up,0.4772404000032111,1.2335280281680077,,experiment,cRDM,2.0,,,,1694.8302387000003,1016,26,female,True
600,0.1363573439450392,25,down,down,0.5373461000017414,1.2125417547469404,,experiment,cRDM,2.0,,,,1696.7801599999984,1016,26,female,True
601,0.1363573439450392,25,up,up,0.4002216000008047,1.8444677776636864,,experiment,cRDM,2.0,,,,1699.4134188999997,1016,26,female,True
602,0.1363573439450392,25,up,up,0.5201082000021415,0.5205796488008969,,experiment,cRDM,2.0,,,,1700.6133821000003,1016,26,female,True
603,0.1363573439450392,25,down,down,0.4976337000007333,1.9451045549180936,,experiment,cRDM,2.0,,,,1703.3299109,1016,26,female,True
604,0.1363573439450392,25,up,up,0.5462794000013673,0.8769385254260083,,experiment,cRDM,2.0,,,,1704.9631958999998,1016,26,female,True
605,0.1363573439450392,25,down,down,0.3338395999999193,0.7940066438368143,,experiment,cRDM,2.0,,,,1706.5797867,1016,26,female,True
606,0.1363573439450392,25,down,down,0.4284247000032337,1.7978790010429264,,experiment,cRDM,2.0,,,,1709.0630468000018,1016,26,female,True
607,0.1363573439450392,25,up,up,0.4857960000008461,0.3736621269774132,,experiment,cRDM,2.0,,,,1710.1296637000014,1016,26,female,True
608,0.1363573439450392,25,up,up,0.5862434000009671,1.2608216997210022,,experiment,cRDM,2.0,,,,1712.1462501999997,1016,26,female,True
609,0.1363573439450392,25,down,down,0.6309748999992735,1.5193331158980483,,experiment,cRDM,2.0,,,,1714.5295017999997,1016,26,female,True
610,0.1363573439450392,25,up,up,0.5620396000012988,0.7032927800971596,,experiment,cRDM,2.0,,,,1716.1294597999986,1016,26,female,True
611,0.1363573439450392,25,down,down,0.5591254999999364,0.7217131798397544,,experiment,cRDM,2.0,,,,1717.6793717,1016,26,female,True
612,0.1363573439450392,25,down,down,0.5427721000014571,0.7783646119618935,,experiment,cRDM,2.0,,,,1719.2626517999995,1016,26,female,True
613,0.1363573439450392,25,down,down,0.6242740999987291,1.5681832146091794,,experiment,cRDM,2.0,,,,1721.6292297,1016,26,female,True
614,0.1363573439450392,25,up,up,0.4967918999973335,1.9784760725661288,,experiment,cRDM,2.0,,,,1724.4956884999992,1016,26,female,True
615,0.1363573439450392,25,up,up,0.6297207999996317,0.984809722972537,,experiment,cRDM,2.0,,,,1726.2457372999995,1016,26,female,True
616,0.1363573439450392,25,up,up,0.5381197999995493,1.5775884761258712,,experiment,cRDM,2.0,,,,1728.712351099999,1016,26,female,True
617,0.1363573439450392,25,down,down,0.574115499999607,0.6834350265696065,,experiment,cRDM,2.0,,,,1730.19542,1016,26,female,True
618,0.1363573439450392,25,down,down,0.5622619000023406,1.774698135273861,,experiment,cRDM,2.0,,,,1732.812202000001,1016,26,female,True
619,0.1363573439450392,25,up,up,0.6383552000006603,0.8780037081477801,,experiment,cRDM,2.0,,,,1734.5121278000006,1016,26,female,True
620,0.1363573439450392,25,down,up,1.1461409000003189,1.3394539308559446,,experiment,cRDM,2.0,,,,1736.7453551,1016,26,female,True
621,0.1363573439450392,25,up,up,0.4385403000014776,1.5691218899748287,,experiment,cRDM,2.0,,,,1739.7119246000002,1016,26,female,True
622,0.1363573439450392,25,up,up,0.4167256999971869,1.6432186460907567,,experiment,cRDM,2.0,,,,1742.0618632000003,1016,26,female,True
623,0.1363573439450392,25,up,up,0.416807500001596,1.4978806302763972,,experiment,cRDM,2.0,,,,1744.2450823,1016,26,female,True
624,0.1363573439450392,25,down,down,0.6231274000019766,0.7593049756366009,,experiment,cRDM,2.0,,,,1745.678377700002,1016,26,female,True
625,0.1363573439450392,25,down,down,0.4735384999985399,1.7370204259866269,,experiment,cRDM,2.0,,,,1748.2949597000006,1016,26,female,True
626,0.1363573439450392,25,up,up,0.6199692999980471,1.7922058717430176,,experiment,cRDM,2.0,,,,1750.8115117999987,1016,26,female,True
627,0.1363573439450392,25,down,down,0.4168988000019453,1.774730457790388,,experiment,cRDM,2.0,,,,1753.4780237999985,1016,26,female,True
628,0.1363573439450392,25,down,up,0.8227683999975852,1.3411750750875284,,experiment,cRDM,2.0,,,,1755.494710300001,1016,26,female,True
629,0.1363573439450392,25,up,up,0.9081896999996388,1.7157532411358765,,experiment,cRDM,2.0,,,,1758.3112919000014,1016,26,female,True
630,0.1363573439450392,25,up,down,0.4754051999989315,1.811581009123817,,experiment,cRDM,2.0,,,,1761.3111363999997,1016,26,female,True
631,0.1363573439450392,25,down,down,0.590765900000406,1.7814473765545218,,experiment,cRDM,2.0,,,,1763.8276977999994,1016,26,female,True
632,0.1363573439450392,25,up,up,0.4965091999983997,1.6306692875579896,,experiment,cRDM,2.0,,,,1766.3109742000015,1016,26,female,True
633,0.1363573439450392,25,down,down,0.4496613999981491,1.9293234901465195,,experiment,cRDM,2.0,,,,1769.0108354000004,1016,26,female,True
634,0.1363573439450392,25,down,down,0.5167293999984395,0.9844599717226868,,experiment,cRDM,2.0,,,,1770.7107684000002,1016,26,female,True
635,0.1363573439450392,25,down,down,0.6954218999999284,0.507144040919927,,experiment,cRDM,2.0,,,,1771.9940785,1016,26,female,True
636,0.1363573439450392,25,up,up,0.5665147999970941,1.582717783283624,,experiment,cRDM,2.0,,,,1774.5439664000005,1016,26,female,True
637,0.1363573439450392,25,up,up,0.6052477000012004,1.354850602335658,,experiment,cRDM,2.0,,,,1776.7272359999988,1016,26,female,True
638,0.1363573439450392,25,down,down,0.638032499999099,1.1586015800985463,,experiment,cRDM,2.0,,,,1778.7604694,1016,26,female,True
639,0.1363573439450392,25,down,down,0.5745210999994015,1.3645795820710132,,experiment,cRDM,2.0,,,,1781.027059600001,1016,26,female,True
640,0.1363573439450392,25,up,up,0.5788085000021965,0.5955595391672439,,experiment,cRDM,2.0,,,,1782.4436730000016,1016,26,female,True
641,0.1363573439450392,25,up,up,0.4575603000012052,1.586278282201408,,experiment,cRDM,2.0,,,,1784.8769519999987,1016,26,female,True
642,0.1363573439450392,25,up,up,0.4949940999977116,1.3923562351101677,,experiment,cRDM,2.0,,,,1786.9935265999993,1016,26,female,True
643,0.1363573439450392,25,up,up,0.6053653999988455,1.3725902329500663,,experiment,cRDM,2.0,,,,1789.1101122,1016,26,female,True
644,0.1363573439450392,25,up,up,0.6301220000023022,1.1084150422185153,,experiment,cRDM,2.0,,,,1791.0933962000015,1016,26,female,True
645,0.1363573439450392,25,down,down,0.7471712999977171,1.856025934978124,,experiment,cRDM,2.0,,,,1793.8432608000005,1016,26,female,True
646,0.1363573439450392,25,down,up,0.4002280000022438,1.3817140166104986,,experiment,cRDM,2.0,,,,1796.2265415000002,1016,26,female,True
647,0.1363573439450392,25,up,up,0.6090828999986115,1.43508129337802,,experiment,cRDM,2.0,,,,1798.3264182999992,1016,26,female,True
648,0.1363573439450392,25,down,down,0.5391906000004383,1.5787177033954114,,experiment,cRDM,2.0,,,,1800.7762941,1016,26,female,True
649,0.1363573439450392,25,down,down,0.5349370000003546,1.3685628039750424,,experiment,cRDM,2.0,,,,1802.9595814999996,1016,26,female,True
650,0.1363573439450392,25,down,down,0.6750017000013031,1.6094982618657754,,experiment,cRDM,2.0,,,,1805.3594999000013,1016,26,female,True
651,0.1363573439450392,25,up,up,0.5400507000013022,0.7048117492722432,,experiment,cRDM,2.0,,,,1807.0094457999985,1016,26,female,True
652,0.1363573439450392,25,down,down,0.5610868000003393,0.4020699145095684,,experiment,cRDM,2.0,,,,1808.2093939000008,1016,26,female,True
653,0.1363573439450392,25,down,down,0.5921835000008286,0.8293285670925317,,experiment,cRDM,2.0,,,,1809.8593241000017,1016,26,female,True
654,0.1363573439450392,25,down,up,0.4002422000012302,0.4994331961232924,,experiment,cRDM,2.0,,,,1811.2259526000016,1016,26,female,True
655,0.1363573439450392,25,up,up,0.449620600000344,1.770257847977578,,experiment,cRDM,2.0,,,,1813.6759031,1016,26,female,True
656,0.1363573439450392,25,up,up,0.4770085999989533,1.612136672457147,,experiment,cRDM,2.0,,,,1815.9924758000016,1016,26,female,True
657,0.1363573439450392,25,down,down,0.4964483000003383,1.0753202042203789,,experiment,cRDM,2.0,,,,1817.8090359999987,1016,26,female,True
658,0.1363573439450392,25,up,up,0.3172082000019145,1.208074021392708,,experiment,cRDM,2.0,,,,1819.775609100001,1016,26,female,True
659,0.1363573439450392,25,down,down,0.3004889000003459,1.005149405626312,,experiment,cRDM,2.0,,,,1821.4588967000016,1016,26,female,True
660,0.1363573439450392,25,up,up,0.2839509000004909,1.4356590256333424,,experiment,cRDM,2.0,,,,1823.5753970000003,1016,26,female,True
661,0.1363573439450392,25,up,down,0.3004916999998386,1.0159922606033105,,experiment,cRDM,2.0,,,,1825.2587458999988,1016,26,female,True
662,113.0,25,M,up,1.174800699998741,1.242644995072615,,experiment,emotion,3.0,,,,1837.0416827000008,1016,26,female,True
663,98.0,25,M,down,0.6409299000006285,1.167086362269876,,experiment,emotion,3.0,,,,1839.6915960000008,1016,26,female,True
664,108.0,25,F,up,1.1916397000022698,1.4740635137993368,,experiment,emotion,3.0,,,,1842.1248320999985,1016,26,female,True
665,113.0,25,F,up,0.8420009000001301,0.5623132324789126,,experiment,emotion,3.0,,,,1844.1414608000011,1016,26,female,True
666,108.0,25,M,up,0.5347866000010981,0.3269252477326981,,experiment,emotion,3.0,,,,1845.5746989,1016,26,female,True
667,103.0,25,F,down,0.9432145999999192,1.394553920913732,,experiment,emotion,3.0,,,,1847.7912739999992,1016,26,female,True
668,98.0,25,M,down,0.7028735999992932,0.9728858659073458,,experiment,emotion,3.0,,,,1849.9745723999984,1016,26,female,True
669,103.0,25,M,down,0.62404289999904,0.7925969992857963,,experiment,emotion,3.0,,,,1851.7244611999995,1016,26,female,True
670,113.0,25,F,up,1.7714559999985795,0.918193491558734,,experiment,emotion,3.0,,,,1853.5410794000015,1016,26,female,True
671,103.0,25,F,down,0.7812322999998287,1.9190578189663168,,experiment,emotion,3.0,,,,1857.5242593000005,1016,26,female,True
672,108.0,25,F,down,0.6512717000005068,0.3751761925146318,,experiment,emotion,3.0,,,,1859.024217099999,1016,26,female,True
673,113.0,25,F,down,0.8250283999987005,1.1506338386167378,,experiment,emotion,3.0,,,,1861.1074407000012,1016,26,female,True
674,108.0,25,F,down,0.6395007999999507,0.9697511565842316,,experiment,emotion,3.0,,,,1863.1739856999995,1016,26,female,True
675,98.0,25,F,down,0.6808633000000555,1.3818240953614804,,experiment,emotion,3.0,,,,1865.490627700001,1016,26,female,True
676,103.0,25,M,down,0.7657368000000133,1.7401014832546535,,experiment,emotion,3.0,,,,1868.1737538999987,1016,26,female,True
677,98.0,25,M,down,0.5904891999998654,1.7336778027420918,,experiment,emotion,3.0,,,,1870.9570647,1016,26,female,True
678,113.0,25,M,up,0.8288814000006823,1.932443351729123,,experiment,emotion,3.0,,,,1873.7736176,1016,26,female,True
679,98.0,25,M,down,0.6323061000002781,1.07471180705396,,experiment,emotion,3.0,,,,1875.940239800002,1016,26,female,True
680,108.0,25,F,up,0.6053671999979997,0.7190589766761676,,experiment,emotion,3.0,,,,1877.5901859000005,1016,26,female,True
681,108.0,25,M,down,1.3420528000024206,1.543624382199715,,experiment,emotion,3.0,,,,1880.0234377999984,1016,26,female,True
682,103.0,25,M,down,0.8142594999990251,0.7193378322104154,,experiment,emotion,3.0,,,,1882.3732658000008,1016,26,female,True
683,103.0,25,F,up,0.9699269999982788,1.744614377607245,,experiment,emotion,3.0,,,,1885.206560999999,1016,26,female,True
684,98.0,25,M,down,0.6221590999994078,1.5145967942965115,,experiment,emotion,3.0,,,,1887.973391800002,1016,26,female,True
685,113.0,25,F,up,0.5632217000020319,1.942440091404103,,experiment,emotion,3.0,,,,1890.8563418000008,1016,26,female,True
686,108.0,25,F,up,0.6422091999993427,1.756082683603534,,experiment,emotion,3.0,,,,1893.5062894,1016,26,female,True
687,98.0,25,M,down,0.6173886000033235,1.6273118817573262,,experiment,emotion,3.0,,,,1896.0561425000012,1016,26,female,True
688,113.0,25,M,up,0.7154139000012947,1.7493877344570066,,experiment,emotion,3.0,,,,1898.706069,1016,26,female,True
689,113.0,25,F,down,0.6515816999999515,0.5997910236344326,,experiment,emotion,3.0,,,,1900.2729440000005,1016,26,female,True
690,103.0,25,M,down,0.7201877000006789,1.417249318639184,,experiment,emotion,3.0,,,,1902.6393036000009,1016,26,female,True
691,98.0,25,F,down,0.6593111000001954,0.3105307437867061,,experiment,emotion,3.0,,,,1903.9392021999995,1016,26,female,True
692,103.0,25,F,down,0.5167913999976008,0.7778428348906656,,experiment,emotion,3.0,,,,1905.655855500001,1016,26,female,True
693,108.0,25,F,down,0.5714294999997946,1.4880435273488894,,experiment,emotion,3.0,,,,1907.9390611000017,1016,26,female,True
694,98.0,25,M,down,0.5804353000021365,0.6044467221335729,,experiment,emotion,3.0,,,,1909.3890429999992,1016,26,female,True
695,113.0,25,M,down,0.7447939999983646,0.3593425461071906,,experiment,emotion,3.0,,,,1910.6056372999992,1016,26,female,True
696,108.0,25,M,down,0.4786715999980515,1.7387024413541443,,experiment,emotion,3.0,,,,1913.3388726000007,1016,26,female,True
697,113.0,25,F,up,0.5543882999991183,1.830526447055032,,experiment,emotion,3.0,,,,1915.922102200002,1016,26,female,True
698,98.0,25,F,up,0.6200844000013603,0.5697565226535195,,experiment,emotion,3.0,,,,1917.3054192000016,1016,26,female,True
699,108.0,25,M,,,0.7985411754941433,,experiment,emotion,3.0,,,,1918.9886506000005,1016,26,female,True
700,103.0,25,F,down,0.9092840000012076,0.5656920203117388,,experiment,emotion,3.0,,,,1922.2552067,1016,26,female,True
701,103.0,25,M,down,2.297963699998945,0.5002509785750312,,experiment,emotion,3.0,,,,1923.938492000001,1016,26,female,True
702,108.0,25,M,up,1.045489699998143,1.5993358395727086,,experiment,emotion,3.0,,,,1928.1050041999988,1016,26,female,True
703,113.0,25,M,down,1.0042796000016097,0.6309934575817187,,experiment,emotion,3.0,,,,1930.0882586000007,1016,26,female,True
704,103.0,25,F,down,0.8170098999980837,1.2689854254646953,,experiment,emotion,3.0,,,,1932.6214967999983,1016,26,female,True
705,98.0,25,F,up,0.6141371000012441,0.6215589150386314,,experiment,emotion,3.0,,,,1934.3713829000008,1016,26,female,True
706,98.0,25,M,up,0.9127898000006098,0.3543494941090911,,experiment,emotion,3.0,,,,1935.6047359000004,1016,26,female,True
707,103.0,25,F,up,1.5558627999998862,1.226128780590826,,experiment,emotion,3.0,,,,1938.0046363,1016,26,female,True
708,113.0,25,F,up,0.8902914999998757,0.9406896448362464,,experiment,emotion,3.0,,,,1940.7712114999997,1016,26,female,True
709,108.0,25,M,up,0.918691899998521,0.3721147732853778,,experiment,emotion,3.0,,,,1942.3377972999988,1016,26,female,True
710,98.0,25,M,down,0.6244942999983323,1.74191399571637,,experiment,emotion,3.0,,,,1945.2709942,1016,26,female,True
711,113.0,25,F,down,1.2585538000021188,1.8960259331529727,,experiment,emotion,3.0,,,,1948.070948500001,1016,26,female,True
712,108.0,25,M,down,0.9708032000016829,1.2639400573648734,,experiment,emotion,3.0,,,,1950.8706870999997,1016,26,female,True
713,108.0,25,F,down,0.6515223999995214,1.9375392492224144,,experiment,emotion,3.0,,,,1954.0540153,1016,26,female,True
714,98.0,25,F,down,1.1365392999978212,1.2727925930923667,,experiment,emotion,3.0,,,,1956.2539546000007,1016,26,female,True
715,103.0,25,F,down,0.615385499997501,1.6804158621022314,,experiment,emotion,3.0,,,,1959.3871655000005,1016,26,female,True
716,113.0,25,M,down,0.5667647999980545,1.0805974536632212,,experiment,emotion,3.0,,,,1961.353758600002,1016,26,female,True
717,103.0,25,M,down,0.6358923000007053,1.966369267983036,,experiment,emotion,3.0,,,,1964.1536375,1016,26,female,True
718,103.0,25,F,down,0.6769141000004311,1.7424978956707535,,experiment,emotion,3.0,,,,1966.803579800002,1016,26,female,True
719,103.0,25,F,down,0.5283690999967803,1.513953279486153,,experiment,emotion,3.0,,,,1969.270105300002,1016,26,female,True
720,113.0,25,M,down,0.570432600001368,0.9528432182291292,,experiment,emotion,3.0,,,,1971.0200872999997,1016,26,female,True
721,108.0,25,M,down,0.8796000000002095,1.297619424558033,,experiment,emotion,3.0,,,,1973.1698942000005,1016,26,female,True
722,98.0,25,M,up,1.0242725999996765,1.167715585680684,,experiment,emotion,3.0,,,,1975.503266,1016,26,female,True
723,98.0,25,M,up,0.5904302999988431,1.756966038833372,,experiment,emotion,3.0,,,,1978.553115499999,1016,26,female,True
724,108.0,25,M,up,0.5491069999989122,1.3900373045462278,,experiment,emotion,3.0,,,,1980.7864133000005,1016,26,female,True
725,113.0,25,F,up,0.5791876000002958,1.4790623834268857,,experiment,emotion,3.0,,,,1983.0863059000003,1016,26,female,True
726,113.0,25,F,up,0.760560999999143,0.9617891337022028,,experiment,emotion,3.0,,,,1984.9029347,1016,26,female,True
727,98.0,25,M,down,0.7950001000026532,0.8713006252414526,,experiment,emotion,3.0,,,,1986.8194980000007,1016,26,female,True
