,stimLvl,stimTime,rand,response,rt,precedingITI,trialNumber,trialType,stimuli,block,estIntens,estThres,estSlope,trialStart,subject,age,gender,headRest
0,150.0,100,F,,,0.7354455989763322,,introTrial,emotion,,,,,224.05965859999924,1013,22,female,True
1,0.9,100,down,,,0.7189499450159365,,introTrial,cRDM,,,,,228.70948879999924,1013,22,female,True
2,200.0,25,F,up,0.4734502999999677,1.1937190248264256,,tutorial,emotion,,,,,256.0750589999989,1013,22,female,True
3,200.0,25,F,up,0.4723721999998815,0.6207126666937306,,tutorial,emotion,,,,,257.4751199000002,1013,22,female,True
4,200.0,25,M,up,0.2502478000005794,0.4339594793017103,,tutorial,emotion,,,,,258.6749628999987,1013,22,female,True
5,0.0,25,M,down,0.4168109000002005,0.6175058337851707,,tutorial,emotion,,,,,260.02499499999976,1013,22,female,True
6,0.0,25,M,down,0.2837515000010171,0.455296131807848,,tutorial,emotion,,,,,261.19162829999914,1013,22,female,True
7,200.0,25,M,up,0.2501642999995965,0.5415298299407597,,tutorial,emotion,,,,,262.4415651999989,1013,22,female,True
8,0.0,25,M,down,0.449973200000386,0.396419886809536,,tutorial,emotion,,,,,263.54153099999894,1013,22,female,True
9,200.0,25,F,up,0.3335000000006403,1.1207945882702737,,tutorial,emotion,,,,,265.3914745999991,1013,22,female,True
10,0.0,25,F,down,0.2835135000004811,1.0426118229638364,,tutorial,emotion,,,,,267.1247394000002,1013,22,female,True
11,0.0,25,F,down,0.5466144000001805,0.4429882026067904,,tutorial,emotion,,,,,268.27487649999966,1013,22,female,True
12,0.9,25,up,up,2.311005899999145,0.5623631244244867,,tutorial,cRDM,,,,,274.8244504999984,1013,22,female,True
13,0.9,25,up,up,0.7411955000006856,0.4613402282305135,,tutorial,cRDM,,,,,277.87428550000004,1013,22,female,True
14,0.9,25,down,down,0.3171701000010216,1.2411747385270806,,tutorial,cRDM,,,,,280.12424979999923,1013,22,female,True
15,0.9,25,down,down,0.3171652000000904,0.9368490655712453,,tutorial,cRDM,,,,,281.7741778,1013,22,female,True
16,0.9,25,up,up,0.3005846999985806,1.2157000203010142,,tutorial,cRDM,,,,,283.6906307999998,1013,22,female,True
17,0.9,25,down,down,0.3670861999999033,1.172088135982765,,tutorial,cRDM,,,,,285.5574077000001,1013,22,female,True
18,0.9,25,up,up,0.3504444000009243,1.3443211014491192,,tutorial,cRDM,,,,,287.5906920999987,1013,22,female,True
19,0.9,25,up,down,0.3005004000006011,0.3067156706445398,,tutorial,cRDM,,,,,288.5906440999988,1013,22,female,True
20,0.9,25,down,down,0.5819717000013043,0.6564678795668979,,tutorial,cRDM,,,,,289.9405458000001,1013,22,female,True
21,0.9,25,down,up,0.2680839000004198,1.4103546157589857,,tutorial,cRDM,,,,,292.20714880000014,1013,22,female,True
22,100.0,25,M,up,0.2668899999989662,1.7526869752749965,,psi_staircase_training,emotion,,100.0,100.0,25.00050000000001,307.6565523999998,1013,22,female,True
23,55.0,25,M,down,0.5180034000004525,1.483930012315961,,psi_staircase_training,emotion,,54.7428094675419,54.7428094675419,25.00050000000011,309.9065010999984,1013,22,female,True
24,79.0,25,F,down,0.3835139000002527,1.5775184633227486,,psi_staircase_training,emotion,,79.636070985635,79.636070985635,25.713269254886413,312.3563871999995,1013,22,female,True
25,103.0,25,F,up,0.7037455000008777,0.3602288898031177,,psi_staircase_training,emotion,,97.61123893914808,97.61123893914808,26.1463337262867,313.48969729999953,1013,22,female,True
26,87.0,25,M,up,0.3834802000001218,0.533494592589295,,psi_staircase_training,emotion,,85.98876744579668,85.98876744579668,23.003056417783498,315.0730045,1013,22,female,True
27,73.0,25,F,down,0.3499351999998907,1.0221537481116054,,psi_staircase_training,emotion,,76.84494728761523,76.84494728761523,23.862671666125223,316.873149699999,1013,22,female,True
28,83.0,25,M,down,0.3001942999999301,1.6156848703283844,,psi_staircase_training,emotion,,83.27335240078496,83.27335240078496,20.612160618333935,319.2561425999993,1013,22,female,True
29,93.0,25,F,down,0.3168801000010717,0.4449075433130806,,psi_staircase_training,emotion,,88.5822762920035,88.5822762920035,20.399967861098503,320.4561133999996,1013,22,female,True
30,109.0,25,F,down,0.561722299999019,0.9642726028240411,,psi_staircase_training,emotion,,95.67556894901224,95.67556894901224,26.326288765400918,322.1727170999984,1013,22,female,True
31,123.0,25,M,up,0.3001538999997137,0.590411654312287,,psi_staircase_training,emotion,,104.95643614980528,104.95643614980528,33.09475495882961,323.68932799999857,1013,22,female,True
32,120.0,25,F,up,0.3502088000004733,1.467338497031086,,psi_staircase_training,emotion,,100.97277436286376,100.97277436286376,31.35094534285469,325.9392345999986,1013,22,female,True
33,119.0,25,F,up,0.283518100000947,1.531856500559993,,psi_staircase_training,emotion,,98.0026191973236,98.0026191973236,29.745719052762208,328.25581819999934,1013,22,female,True
34,75.0,25,F,up,0.3168246999994153,1.768194332881405,,psi_staircase_training,emotion,,95.80177814390278,95.80177814390278,28.28668166424325,330.7890725999987,1013,22,female,True
35,66.0,25,M,down,0.4301434999997582,0.3597962862459087,,psi_staircase_training,emotion,,89.73235762292991,89.73235762292991,32.96733448386263,331.92235189999883,1013,22,female,True
36,116.0,25,M,up,0.4185386999997718,0.9292392971365812,,psi_staircase_training,emotion,,91.70940282859029,91.70940282859029,31.86530729488856,333.6389505999996,1013,22,female,True
37,66.0,25,F,down,0.3835116999998718,0.5774125965739523,,psi_staircase_training,emotion,,90.0556464255576,90.0556464255576,30.8169533806948,334.9722132999996,1013,22,female,True
38,116.0,25,F,up,0.446309700000711,0.9879646192434328,,psi_staircase_training,emotion,,91.619575594804,91.619575594804,29.66332138004431,336.7221697999994,1013,22,female,True
39,66.0,25,M,up,0.3335311999999248,1.4622278203411925,,psi_staircase_training,emotion,,90.30662535212292,90.30662535212292,28.57417274920374,338.9554055999997,1013,22,female,True
40,59.0,25,M,down,0.8431289999989531,0.7887631577185361,,psi_staircase_training,emotion,,85.32190371350005,85.32190371350005,33.22228744247507,340.5053759000002,1013,22,female,True
41,59.0,25,M,up,0.3665664000000106,1.4807546001972174,,psi_staircase_training,emotion,,86.73538246730561,86.73538246730561,32.26284633518831,343.17219379999915,1013,22,female,True
42,54.0,25,M,down,0.7908687999988615,0.3304677308943523,,psi_staircase_training,emotion,,82.05028989565952,82.05028989565952,35.88862145119082,344.2885738999994,1013,22,female,True
43,54.0,25,F,down,0.4167733000012958,1.049982936437006,,psi_staircase_training,emotion,,83.38436904357573,83.38436904357573,35.14686717008189,346.4551302,1013,22,female,True
44,113.0,25,F,down,0.28340770000068,1.6598004992822053,,psi_staircase_training,emotion,,84.53142042939861,84.53142042939861,34.43117188193037,348.88842339999974,1013,22,female,True
45,118.0,25,F,up,0.5278065000002243,1.2446739333837993,,psi_staircase_training,emotion,,88.70343166513959,88.70343166513959,37.22256960763215,350.9216601999997,1013,22,female,True
46,117.0,25,M,up,0.3168662000007316,1.3844460355827193,,psi_staircase_training,emotion,,87.52524016750311,87.52524016750311,36.62214134796072,353.18823319999865,1013,22,female,True
47,56.0,25,M,down,0.350279700000101,1.3433187989947053,,psi_staircase_training,emotion,,86.45282196162385,86.45282196162385,36.03297032559875,355.3048117999988,1013,22,female,True
48,118.0,25,F,up,0.4657250000000204,0.6428790182443049,,psi_staircase_training,emotion,,87.45128379926919,87.45128379926919,35.40926441622202,356.7047673999987,1013,22,female,True
49,56.0,25,F,down,0.4001784000010957,1.304452474113029,,psi_staircase_training,emotion,,86.53291971143261,86.53291971143261,34.79063702726772,358.8213619999988,1013,22,female,True
50,118.0,25,M,up,0.3668059999999968,1.2476464888031262,,psi_staircase_training,emotion,,87.41536115851846,87.41536115851846,34.14191219685722,360.8212996000002,1013,22,female,True
51,56.0,25,M,down,0.4756877999989228,1.464234952120845,,psi_staircase_training,emotion,,86.60372662922704,86.60372662922704,33.50244033151317,363.0378772999993,1013,22,female,True
52,0.29,25,up,down,1.4577902000000904,0.7464588154115637,,psi_staircase_training,cRDM,,0.25,0.2569312402994632,0.105,368.2877161999986,1013,22,female,True
53,0.39,25,up,up,0.5038671000002068,1.7132232074316718,,psi_staircase_training,cRDM,,0.3546095744690496,0.3616109212953642,0.1060620300265678,371.7375495999986,1013,22,female,True
54,0.38,25,down,down,0.4167851000001974,1.086948361582721,,psi_staircase_training,cRDM,,0.3357987849034938,0.3429317268363466,0.1080555384881884,373.60417419999976,1013,22,female,True
55,0.35,25,down,down,0.5368517999995674,1.9769389388831533,,psi_staircase_training,cRDM,,0.3178220825339425,0.3249720550198983,0.1083135309972574,376.27063199999975,1013,22,female,True
56,0.34,25,up,up,0.3335800000004383,0.9902239235320796,,psi_staircase_training,cRDM,,0.2987461380195291,0.3059673319859477,0.1093924512374306,378.07090909999897,1013,22,female,True
57,0.33,25,down,down,0.3674336000003677,0.3398286811559827,,psi_staircase_training,cRDM,,0.280506144113461,0.287744293960811,0.1096493125524172,379.103948,1013,22,female,True
58,0.28,25,up,up,0.8039200000002893,1.175773963706401,,psi_staircase_training,cRDM,,0.2631708811203834,0.270405956671748,0.1096027406454384,380.9705806999991,1013,22,female,True
59,0.28,25,down,down,0.2672048000003997,1.814985115969636,,psi_staircase_training,cRDM,,0.2406343605712441,0.2483363748915043,0.1166763044833327,383.87038500000017,1013,22,female,True
60,0.27,25,down,up,0.433457899998757,0.3227862983347003,,psi_staircase_training,cRDM,,0.2188476723625075,0.226847789634261,0.1211922076340611,384.8870941999994,1013,22,female,True
61,0.34,25,up,up,0.5019463999997242,1.5524630823359271,,psi_staircase_training,cRDM,,0.2893546145267101,0.2968091902398178,0.1129279055491584,387.1536188999999,1013,22,female,True
62,0.31,25,down,down,0.4712580999985221,0.4666760826443202,,psi_staircase_training,cRDM,,0.2779665462122634,0.2852305398849949,0.1100408155948471,388.4202691999999,1013,22,female,True
63,0.31,25,down,down,0.6151011000001745,0.4013884675250993,,psi_staircase_training,cRDM,,0.2645192505208694,0.2719207208887531,0.1121234230889329,389.57052309999926,1013,22,female,True
64,0.27,25,down,down,0.5609643999996479,1.8336500754024847,,psi_staircase_training,cRDM,,0.2525155636477463,0.2599513864638807,0.1126438215905695,392.3034780999988,1013,22,female,True
65,0.27,25,up,up,0.5004902999990009,0.3274619947939859,,psi_staircase_training,cRDM,,0.2356447211178011,0.243716209899521,0.1222734006417605,393.4700871999994,1013,22,female,True
66,0.26,25,up,up,0.5337611000013567,1.9939982016569413,,psi_staircase_training,cRDM,,0.2191365693523803,0.2276905945163196,0.1295832496650247,396.23666539999977,1013,22,female,True
67,0.26,25,down,down,0.416802199999438,1.23390560946647,,psi_staircase_training,cRDM,,0.2031418756198572,0.2120638223880984,0.1351568218949028,398.28664539999954,1013,22,female,True
68,0.25,25,down,down,0.5426619999998366,1.9837036556623475,,psi_staircase_training,cRDM,,0.188671199038716,0.1978145369027735,0.1385106321880627,400.969805499999,1013,22,female,True
69,0.22,25,up,down,0.647665100001177,1.820475184746429,,psi_staircase_training,cRDM,,0.1753823113368423,0.1846443569822545,0.1403089130878335,403.6030871999992,1013,22,female,True
70,0.27,25,up,up,0.7197089000001142,0.5519445144126613,,psi_staircase_training,cRDM,,0.2218545488459798,0.2309135752190258,0.1372334139451903,405.0697436999999,1013,22,female,True
71,0.26,25,up,down,0.5192098999996233,0.7258296681721169,,psi_staircase_training,cRDM,,0.2104066176997615,0.219661894680385,0.1402063759123632,406.7862863999999,1013,22,female,True
72,0.28,25,up,up,0.4241626999992149,1.111700828361907,,psi_staircase_training,cRDM,,0.249438645548238,0.2581555183944399,0.1320501972673028,408.6862913999994,1013,22,female,True
73,0.28,25,down,down,0.5086412999989989,0.6843025224587216,,psi_staircase_training,cRDM,,0.239088603688752,0.2480437262036592,0.1356593947749974,410.0697949999994,1013,22,female,True
74,0.25,25,down,down,0.4983725000001868,1.638625419342874,,psi_staircase_training,cRDM,,0.2296327228505135,0.2387357651870107,0.1379002031434727,412.4860640999996,1013,22,female,True
75,0.25,25,down,down,0.4167422000009537,1.7530247283129388,,psi_staircase_training,cRDM,,0.219079868351833,0.2285209828561269,0.1430215921135526,415.0026861999995,1013,22,female,True
76,0.24,25,up,up,0.566824199999246,1.00433516773975,,psi_staircase_training,cRDM,,0.2091596384179198,0.2188501763988397,0.1468000594461253,416.70259859999896,1013,22,female,True
77,0.24,25,up,down,0.4002349000002141,1.7483119076085698,,psi_staircase_training,cRDM,,0.199565058130242,0.2094679280905534,0.1500166349611642,419.2858218000001,1013,22,female,True
78,0.29,25,down,down,0.5527161000009073,1.605011386033521,,psi_staircase_training,cRDM,,0.2298395379288549,0.2392297575045633,0.1422505948214977,421.58572379999896,1013,22,female,True
79,0.24,25,down,up,0.581510399999388,0.9157468137722492,,psi_staircase_training,cRDM,,0.2232086118393571,0.23256630817133,0.1417579065803325,423.3189908999993,1013,22,female,True
80,0.3,25,up,down,0.7941826999995101,0.7825191874068216,,psi_staircase_training,cRDM,,0.2480202769379684,0.2565638400576285,0.1294247622079667,424.9523059999992,1013,22,female,True
81,0.34,25,up,up,0.8399530999995477,1.466744422705434,,psi_staircase_training,cRDM,,0.2719716417009597,0.2813408042365642,0.1419316058504934,427.4855344999996,1013,22,female,True
82,100.0,25,M,down,1.4148265999992873,1.9593873933974155,,psi_staircase,emotion,,100.0,100.0,25.00050000000001,442.6516431,1013,22,female,True
83,145.0,25,M,up,0.4566376000002492,1.822680501604824,,psi_staircase,emotion,,145.25719053245996,145.25719053245996,25.00050000000028,446.2348284,1013,22,female,True
84,121.0,25,F,up,0.5726625000006607,1.5525634124132193,,psi_staircase,emotion,,120.36392901436103,120.36392901436103,25.71326925488699,448.5847557999987,1013,22,female,True
85,97.0,25,F,down,0.5211861999996472,1.1474649157250476,,psi_staircase,emotion,,102.3887610608496,102.3887610608496,26.14633372628729,450.6513165999986,1013,22,female,True
86,113.0,25,M,up,0.93624760000057,0.7305398266366852,,psi_staircase,emotion,,114.01123255420406,114.01123255420406,23.00305641778335,452.2512630000001,1013,22,female,True
87,105.0,25,F,up,0.7459208000000217,0.4353761638554836,,psi_staircase,emotion,,104.94359593877375,104.94359593877375,22.15060322358215,453.9845435999996,1013,22,female,True
88,92.0,25,M,up,0.5840497999997751,1.262933200172166,,psi_staircase,emotion,,97.32104229908208,97.32104229908208,23.93307361449055,456.3344539999998,1013,22,female,True
89,74.0,25,F,down,0.6630782000011095,0.3704081791693333,,psi_staircase,emotion,,86.47781129474322,86.47781129474322,31.611106717664093,457.63441819999935,1013,22,female,True
90,78.0,25,F,down,0.5998287000002165,0.8632223443221307,,psi_staircase,emotion,,92.62262149239127,92.62262149239127,29.23899594163133,459.5176649999994,1013,22,female,True
91,80.0,25,M,down,0.3499490000012883,1.90729193526652,,psi_staircase,emotion,,96.600439253128,96.600439253128,27.10265348372516,462.367816,1013,22,female,True
92,115.0,25,F,down,0.5156602999995812,0.5660041865423545,,psi_staircase,emotion,,99.31700566148264,99.31700566148264,25.224425752927285,463.7008337999996,1013,22,female,True
93,127.0,25,F,up,0.4828244999989692,1.8993700491101384,,psi_staircase,emotion,,105.91412206141656,105.91412206141656,30.68913889192272,466.4676768999998,1013,22,female,True
94,125.0,25,F,up,0.6121348999986367,1.9070002391582297,,psi_staircase,emotion,,103.57177509565038,103.57177509565038,29.26252007227825,469.2173136000001,1013,22,female,True
95,81.0,25,M,up,0.4456630999993649,1.7051569082025864,,psi_staircase,emotion,,101.71432817291284,101.71432817291284,27.946570650599163,471.88387449999937,1013,22,female,True
96,72.0,25,M,down,0.5680298000006587,0.9690542553251632,,psi_staircase,emotion,,95.71569529126126,95.71569529126126,32.86381343160748,473.6504773999986,1013,22,female,True
97,73.0,25,F,down,0.5164912000000186,1.2020103606720631,,psi_staircase,emotion,,97.64730655623566,97.64730655623566,31.721120162090426,475.7669773999987,1013,22,female,True
98,124.0,25,F,up,0.6095354999997653,1.6819438454062103,,psi_staircase,emotion,,99.227022281684,99.227022281684,30.648108977594276,478.31695989999935,1013,22,female,True
99,73.0,25,M,down,0.6372781999998551,1.1415671001204686,,psi_staircase,emotion,,97.83556503254924,97.83556503254924,29.58443060650105,480.4002373999992,1013,22,female,True
100,123.0,25,M,up,0.6743198999993183,1.8023186709849377,,psi_staircase,emotion,,99.09757940451802,99.09757940451802,28.4924341938207,483.20013149999977,1013,22,female,True
101,74.0,25,M,down,0.6200564000009763,0.7054157627699346,,psi_staircase,emotion,,97.93897296397968,97.93897296397968,27.41606321676219,484.9334009999984,1013,22,female,True
102,122.0,25,M,up,0.4858953000002657,1.1158234115002768,,psi_staircase,emotion,,98.9873792126159,98.9873792126159,26.33929751661828,487.0166501999993,1013,22,female,True
103,75.0,25,F,down,0.499554400001216,0.7792590898255309,,psi_staircase,emotion,,98.0167977060472,98.0167977060472,25.292397101957363,488.6499413999991,1013,22,female,True
104,121.0,25,F,up,0.5090982999990956,1.2755409695279782,,psi_staircase,emotion,,98.89342725584176,98.89342725584176,24.27068328953833,490.7664098999994,1013,22,female,True
105,76.0,25,F,down,0.49335659999997,1.7207089713697126,,psi_staircase,emotion,,98.07313933722376,98.07313933722376,23.29018973966836,493.33309839999856,1013,22,female,True
106,119.0,25,M,down,0.78795380000156,1.8879313121952448,,psi_staircase,emotion,,98.81380284880274,98.81380284880274,22.354107815526312,496.0665781999997,1013,22,female,True
107,128.0,25,M,up,0.4929821000005177,1.961429159030784,,psi_staircase,emotion,,102.09712560871476,102.09712560871476,26.34724078166135,499.1664832999995,1013,22,female,True
108,77.0,25,F,down,0.5634623000005377,1.0387599527955975,,psi_staircase,emotion,,101.39959512555669,101.39959512555669,25.45828594993602,501.06604979999975,1013,22,female,True
109,127.0,25,F,up,0.450112699998499,1.0661809095483428,,psi_staircase,emotion,,102.06987133261984,102.06987133261984,24.609391331654116,503.0493938,1013,22,female,True
110,79.0,25,M,down,0.5395635000004404,0.5061880360007368,,psi_staircase,emotion,,101.46481868180202,101.46481868180202,23.78903286746508,504.3659302999986,1013,22,female,True
111,125.0,25,M,up,0.549886200000401,1.9770882385670123,,psi_staircase,emotion,,102.08691651809596,102.08691651809596,23.000981357780557,507.2325893999987,1013,22,female,True
112,80.0,25,F,down,0.4002201000002969,0.4795563535451486,,psi_staircase,emotion,,101.52928706127136,101.52928706127136,22.250068408694272,508.5991790999997,1013,22,female,True
113,124.0,25,M,up,0.668078599999717,1.97713342489717,,psi_staircase,emotion,,102.08748633453126,102.08748633453126,21.53897984400219,511.3324338000002,1013,22,female,True
114,82.0,25,F,down,0.3336454000000231,1.0017770453725714,,psi_staircase,emotion,,101.59166714247576,101.59166714247576,20.87234933557928,513.3655426999994,1013,22,female,True
115,84.0,25,M,up,0.4628864000005706,0.5256874307336099,,psi_staircase,emotion,,102.13010585673308,102.13010585673308,20.23181214335115,514.6656200999987,1013,22,female,True
116,123.0,25,F,up,0.4168099999988044,1.7676222372997703,,psi_staircase,emotion,,99.8435049208682,99.8435049208682,22.78116106905517,517.2655429999995,1013,22,female,True
117,76.0,25,M,down,0.4237540000012814,1.6354222062790285,,psi_staircase,emotion,,99.37965839998591,99.37965839998591,22.13809665232404,519.6657238999996,1013,22,female,True
118,122.0,25,F,up,0.3835326000007626,1.490462601500648,,psi_staircase,emotion,,99.7936697823878,99.7936697823878,21.54387436925269,521.9320415999991,1013,22,female,True
119,120.0,25,M,up,0.5599050000000716,1.8476005736524597,,psi_staircase,emotion,,99.36741570844109,99.36741570844109,20.971056149549263,524.5486046999995,1013,22,female,True
120,78.0,25,M,down,0.4567145000000892,1.6601929152149004,,psi_staircase,emotion,,98.94686613181936,98.94686613181936,20.439767207649115,527.1318445999987,1013,22,female,True
121,119.0,25,F,up,0.9066530000000056,0.6444973460224042,,psi_staircase,emotion,,99.35002649040052,99.35002649040052,19.923607009962453,528.5818008999995,1013,22,female,True
122,80.0,25,F,down,0.8401192000001174,0.9026212317380056,,psi_staircase,emotion,,98.95282878372934,98.95282878372934,19.45123885602215,530.7483563999995,1013,22,female,True
123,117.0,25,F,up,0.8335501000001386,1.4690322380765533,,psi_staircase,emotion,,99.35381651819743,99.35381651819743,18.991278545126697,533.4149596999996,1013,22,female,True
124,81.0,25,M,down,0.4996005000011791,0.7055666232452161,,psi_staircase,emotion,,98.94829779571498,98.94829779571498,18.56646398518682,535.3148929999988,1013,22,female,True
125,116.0,25,M,up,0.5743469999997615,1.685342085087299,,psi_staircase,emotion,,99.32865917354376,99.32865917354376,18.159661576366343,537.8481080000001,1013,22,female,True
126,82.0,25,F,down,0.5385196000006545,0.981766256354174,,psi_staircase,emotion,,98.93650747969,98.93650747969,17.77880372696687,539.7650014999999,1013,22,female,True
127,114.0,25,F,down,0.8364969000012934,0.3249373988048247,,psi_staircase,emotion,,99.30192684953008,99.30192684953008,17.41724055574187,540.9980090999998,1013,22,female,True
128,83.0,25,F,down,0.6212267999999312,1.3161205356805392,,psi_staircase,emotion,,100.90712181021006,100.90712181021006,18.765400687221685,543.4812511,1013,22,female,True
129,84.0,25,M,down,0.530786100000114,1.9052721736761256,,psi_staircase,emotion,,101.25178801559838,101.25178801559838,18.38936335375012,546.3647493999997,1013,22,female,True
130,120.0,25,M,up,0.5904176999993069,1.7396287419235137,,psi_staircase,emotion,,101.58750929563205,101.58750929563205,18.04012767695506,548.9810548999994,1013,22,female,True
131,85.0,25,M,down,0.5115046999999322,0.816931437660698,,psi_staircase,emotion,,101.28430923078474,101.28430923078474,17.702610091972396,550.7310044999995,1013,22,female,True
132,0.29,25,up,down,0.8101450000012846,1.72096278750778,,psi_staircase,cRDM,,0.25,0.2569312402994632,0.105,558.2973649999985,1013,22,female,True
133,0.39,25,up,up,0.6631868999993458,0.7846223678089232,,psi_staircase,cRDM,,0.3546095744690496,0.3616109212953642,0.1060620300265678,560.1473112999993,1013,22,female,True
134,0.38,25,down,down,0.4912667000007786,0.5605530217797111,,psi_staircase,cRDM,,0.3357987849034938,0.3429317268363466,0.1080555384881884,561.6472335999988,1013,22,female,True
135,0.35,25,down,up,0.6643157999988034,0.5319179682673967,,psi_staircase,cRDM,,0.3178220825339425,0.3249720550198983,0.1083135309972574,562.9471956999987,1013,22,female,True
136,0.41,25,up,up,0.6336863999986235,1.0860624411473736,,psi_staircase,cRDM,,0.380209013873896,0.387126060036953,0.1047849758112157,564.9638249,1013,22,female,True
137,0.4,25,down,down,0.5600952999993751,0.7108600988859484,,psi_staircase,cRDM,,0.3683317485518004,0.3751914040682512,0.1039155761607495,566.580403599999,1013,22,female,True
138,0.4,25,up,up,0.5326186000002053,1.3489039296544287,,psi_staircase,cRDM,,0.3573248709371661,0.3640336778518085,0.1016304002751134,568.7469418000001,1013,22,female,True
139,0.4,25,down,up,0.7475924999998824,1.9017979780592529,,psi_staircase,cRDM,,0.3479501384639377,0.3544107507010633,0.0978705477792656,571.4468821999999,1013,22,female,True
140,0.43,25,down,down,0.6879984000006516,1.441759954968686,,psi_staircase,cRDM,,0.3899884768183521,0.3981267592557004,0.1232852446318656,573.913475899999,1013,22,female,True
141,0.43,25,up,up,0.5591910000002827,1.3825380617981755,,psi_staircase,cRDM,,0.3809125439169642,0.3890213775075019,0.1228391298267917,576.2633065999999,1013,22,female,True
142,0.42,25,down,down,0.4394993999994767,1.1063080082969263,,psi_staircase,cRDM,,0.372730065976293,0.3807096126832653,0.1208805881823164,578.1800051999999,1013,22,female,True
143,0.38,25,down,down,0.6349304000013944,1.7230601525111942,,psi_staircase,cRDM,,0.3648399856664832,0.3726569091283059,0.1184170405338487,580.5965457000002,1013,22,female,True
144,0.38,25,down,down,0.5866822999996657,0.7802488992371659,,psi_staircase,cRDM,,0.3540000538045082,0.3620625125626097,0.1221366065848571,582.2798776,1013,22,female,True
145,0.38,25,up,up,0.3671968000016932,1.0878972987556437,,psi_staircase,cRDM,,0.3435285679330819,0.3517157695970996,0.124026312403053,584.2130842999995,1013,22,female,True
146,0.39,25,up,up,0.53717830000096,1.652677388199037,,psi_staircase,cRDM,,0.333744698084238,0.3419524984109687,0.1243383575048552,586.5463115999992,1013,22,female,True
147,0.34,25,down,down,0.5702849999997852,1.2928264986213305,,psi_staircase,cRDM,,0.3257992099480813,0.3338614465085021,0.1221332405557685,588.6462488999987,1013,22,female,True
148,0.34,25,down,up,0.5382890000000771,1.0822855864806489,,psi_staircase,cRDM,,0.3130068119635975,0.3215668428424797,0.1296742290629049,590.546171,1013,22,female,True
149,0.39,25,up,up,0.4947095000006811,0.5592288007804196,,psi_staircase,cRDM,,0.3491491244281089,0.3566489284533838,0.1136130603803833,591.912808699999,1013,22,female,True
150,0.39,25,up,up,0.5817815999998857,1.2346379818526656,,psi_staircase,cRDM,,0.3432596893579634,0.3505011563685949,0.1096995636084328,593.9127351999996,1013,22,female,True
151,0.39,25,up,up,0.5298630999986926,1.34820218182873,,psi_staircase,cRDM,,0.3383136637087564,0.3452547828318867,0.1051496523623805,596.1126525999989,1013,22,female,True
152,0.39,25,up,down,0.5230229999997391,0.3564887412780456,,psi_staircase,cRDM,,0.3342834695662004,0.3408982961990529,0.1002067114169009,597.2625367,1013,22,female,True
153,0.41,25,down,down,0.5279833000004146,1.5656694085248335,,psi_staircase,cRDM,,0.3544077262539951,0.3631711262169602,0.1327550274346421,599.6125241999998,1013,22,female,True
154,0.41,25,down,down,0.5461364999991929,1.860939994367212,,psi_staircase,cRDM,,0.3491595173502447,0.3577105911998192,0.1295385407824993,602.2623746999998,1013,22,female,True
155,0.37,25,down,down,0.6754662000003009,1.5958613912026025,,psi_staircase,cRDM,,0.3445177510695311,0.3528303563004906,0.1259260264455599,604.6790118999998,1013,22,female,True
156,0.37,25,up,up,0.5270164999983535,1.6598591355912606,,psi_staircase,cRDM,,0.3370304251124406,0.3455302980857137,0.1287629087484951,607.2624971999994,1013,22,female,True
157,0.34,25,up,up,0.4464057000004686,1.8575455250768005,,psi_staircase,cRDM,,0.3299767596055874,0.338581643848295,0.130353703875231,609.9121395000002,1013,22,female,True
158,0.33,25,down,down,0.6606277000009868,1.4468499768755574,,psi_staircase,cRDM,,0.3210949432451831,0.330144978019884,0.1370972019852172,612.0618969999996,1013,22,female,True
159,0.33,25,down,down,0.6948068000001513,1.9992165972974407,,psi_staircase,cRDM,,0.3119998696678856,0.3214466032309249,0.1431067141325245,614.9786672999999,1013,22,female,True
160,0.33,25,up,up,0.5149643000004289,1.779190093111189,,psi_staircase,cRDM,,0.3030806637054533,0.3128363993533565,0.1477877261172365,617.7285372999995,1013,22,female,True
161,0.33,25,up,up,0.4976950000000215,0.9596449225452954,,psi_staircase,cRDM,,0.2944498222393073,0.3044414313406733,0.1513609268062263,619.4618197,1013,22,female,True
162,0.32,25,down,down,0.6107611000006727,1.4862241248972043,,psi_staircase,cRDM,,0.2861618896998563,0.2963312032595857,0.1540529367960695,621.7117139000002,1013,22,female,True
163,0.32,25,up,up,0.699200800001563,0.5514788879566288,,psi_staircase,cRDM,,0.2778781851519536,0.2882031882971298,0.1564114477934705,623.1283119999989,1013,22,female,True
164,0.28,25,down,up,0.5779452999995556,0.96980593116631,,psi_staircase,cRDM,,0.2699059747753288,0.2803511269354629,0.1582315616584539,625.0615318,1013,22,female,True
165,0.33,25,up,up,0.4749637000004441,0.8004873493251594,,psi_staircase,cRDM,,0.2951009801478132,0.305052038295701,0.1507466283644985,626.7115247999991,1013,22,female,True
166,0.33,25,down,down,0.4836530000011407,1.438701135094726,,psi_staircase,cRDM,,0.2883845620152822,0.2984303367647812,0.1521814715872832,628.8948100999987,1013,22,female,True
167,0.33,25,up,up,0.5801145000004908,1.3644105889476097,,psi_staircase,cRDM,,0.2819655266192734,0.2920775633601301,0.1531852614996152,631.0113839999995,1013,22,female,True
168,0.28,25,down,down,0.5172242000007827,1.7954104779989923,,psi_staircase,cRDM,,0.2758361870776991,0.2859920667898953,0.1538494300743239,633.6612881000001,1013,22,female,True
169,0.27,25,up,up,0.4950583999998343,1.301446619737985,,psi_staircase,cRDM,,0.2682835330215402,0.2786343888467543,0.1568030849733551,635.7614534999993,1013,22,female,True
170,0.27,25,up,up,0.8767246000006708,1.0025735393746191,,psi_staircase,cRDM,,0.2605323784431578,0.2710738047464759,0.1596899997730739,637.5278074999987,1013,22,female,True
171,0.25,25,down,down,0.8351210999990144,1.918375090017979,,psi_staircase,cRDM,,0.2528243833025499,0.2635349450127466,0.1622521988824626,640.5943458000002,1013,22,female,True
172,0.24,25,down,up,0.702595000000656,1.81708082679251,,psi_staircase,cRDM,,0.2446983379205631,0.255591761643729,0.1650223396555717,643.5109088999998,1013,22,female,True
173,0.27,25,down,down,0.8853276999998343,0.9109581076292864,,psi_staircase,cRDM,,0.2662240686230674,0.2766509200027713,0.1579543267247113,645.3941760999987,1013,22,female,True
174,0.26,25,up,up,0.4303042000010464,0.8141261253977305,,psi_staircase,cRDM,,0.2593792195123859,0.2699619127653879,0.1603151447009074,647.3441136000001,1013,22,female,True
175,0.25,25,up,up,0.4541804000000411,1.528243287372859,,psi_staircase,cRDM,,0.2523774666351235,0.2631187634882099,0.1627177995345807,649.5773982999999,1013,22,female,True
176,0.23,25,down,down,0.4895281999997678,1.750986580026569,,psi_staircase,cRDM,,0.2452138433798842,0.2561172016964935,0.1651728368633575,652.0439264999986,1013,22,female,True
177,0.23,25,down,up,0.7382854999996198,0.4753455531054643,,psi_staircase,cRDM,,0.237701859454053,0.2487863379796365,0.1679165913893351,653.2772126,1013,22,female,True
178,0.25,25,down,down,0.4927270999996835,1.9171564045938725,,psi_staircase,cRDM,,0.2568963378738135,0.2675515779993647,0.1614141430458728,656.1937902999998,1013,22,female,True
179,0.24,25,up,up,0.4258871000001818,1.6098927323103822,,psi_staircase,cRDM,,0.2503957959047326,0.2612040535846955,0.1637321759691384,658.5606257,1013,22,female,True
180,0.23,25,up,down,0.6834795000013401,0.3110080024649346,,psi_staircase,cRDM,,0.243754043850547,0.2547215368782713,0.166144401024478,659.5770212999996,1013,22,female,True
181,0.26,25,up,up,0.5393110999993951,1.8827461446804312,,psi_staircase,cRDM,,0.2605913104295932,0.2711501493924131,0.1599537807370408,662.4102004999986,1013,22,female,True
182,108.0,25,F,up,0.796241200001532,1.550922289068711,,experiment,emotion,0.0,,,,670.9432406999986,1013,22,female,True
183,94.0,25,M,down,0.5610089000001608,0.5901867106728511,,experiment,emotion,0.0,,,,672.6265070999998,1013,22,female,True
184,103.0,25,F,up,0.4168140000001585,0.4941144416382198,,experiment,emotion,0.0,,,,673.9597957999995,1013,22,female,True
185,108.0,25,M,up,0.9805225000000064,0.3823090156891201,,experiment,emotion,0.0,,,,675.0430158999989,1013,22,female,True
186,103.0,25,F,down,0.4848103000003902,1.0763733121463472,,experiment,emotion,0.0,,,,677.3596851999991,1013,22,female,True
187,99.0,25,F,down,0.6925986000005651,0.4309429884632044,,experiment,emotion,0.0,,,,678.5429469999999,1013,22,female,True
188,94.0,25,M,down,0.6086448000005475,1.3845572095672825,,experiment,emotion,0.0,,,,680.8928758999991,1013,22,female,True
189,99.0,25,F,up,0.8800398000003042,0.7347705927569341,,experiment,emotion,0.0,,,,682.5094758999985,1013,22,female,True
190,108.0,25,M,up,0.7650917999999365,1.453543528000324,,experiment,emotion,0.0,,,,685.1094023999995,1013,22,female,True
191,99.0,25,M,up,0.4685090000002674,1.0762217533964915,,experiment,emotion,0.0,,,,687.2259772999987,1013,22,female,True
192,103.0,25,F,up,0.6749600000002829,1.5673179003976,,experiment,emotion,0.0,,,,689.5425466999986,1013,22,female,True
193,108.0,25,M,down,0.5376987000017834,0.7304767137199915,,experiment,emotion,0.0,,,,691.2258324999984,1013,22,female,True
194,103.0,25,M,up,0.7746393000015814,1.2226574446455163,,experiment,emotion,0.0,,,,693.2590001999997,1013,22,female,True
195,94.0,25,M,down,0.6395198999998684,1.5819707605281077,,experiment,emotion,0.0,,,,695.9090077000001,1013,22,female,True
196,99.0,25,F,up,0.5246159000016632,1.1810578373678706,,experiment,emotion,0.0,,,,698.0089307999988,1013,22,female,True
197,94.0,25,F,down,0.4168669000009686,1.764191547181737,,experiment,emotion,0.0,,,,700.5588183999989,1013,22,female,True
198,108.0,25,M,up,0.4470741000004636,1.8599335860231896,,experiment,emotion,0.0,,,,703.1254092999989,1013,22,female,True
199,94.0,25,M,up,0.7314905000002909,0.4651014605340754,,experiment,emotion,0.0,,,,704.2920298999998,1013,22,female,True
200,103.0,25,F,down,0.4192544999987149,1.373853967361925,,experiment,emotion,0.0,,,,706.6752660999991,1013,22,female,True
201,103.0,25,F,up,0.7598797999999078,0.763713485250624,,experiment,emotion,0.0,,,,708.1085488999997,1013,22,female,True
202,99.0,25,M,down,0.6487957999997889,1.7037808708183242,,experiment,emotion,0.0,,,,710.8587360000001,1013,22,female,True
203,99.0,25,F,down,0.6648045999991155,1.3029778756139354,,experiment,emotion,0.0,,,,713.0917079999999,1013,22,female,True
204,94.0,25,M,down,0.584524899999451,0.5358803494398643,,experiment,emotion,0.0,,,,714.5749993999998,1013,22,female,True
205,108.0,25,F,down,0.4859957999997277,1.5151792338459549,,experiment,emotion,0.0,,,,716.9584833999997,1013,22,female,True
206,103.0,25,F,up,0.5373350999998365,0.5964627205427895,,experiment,emotion,0.0,,,,718.3081581999995,1013,22,female,True
207,94.0,25,M,up,0.7730774999999994,1.965239096230148,,experiment,emotion,0.0,,,,721.0914111000002,1013,22,female,True
208,108.0,25,M,up,0.7084918000000471,0.4636855833119426,,experiment,emotion,0.0,,,,722.6080119999988,1013,22,female,True
209,108.0,25,F,up,0.5975139000001946,0.3771742970465183,,experiment,emotion,0.0,,,,723.9580129999995,1013,22,female,True
210,99.0,25,M,up,0.7029220000003988,1.176741455226254,,experiment,emotion,0.0,,,,726.024554399999,1013,22,female,True
211,94.0,25,F,up,0.7171343999998498,1.2243205956038046,,experiment,emotion,0.0,,,,728.2413944,1013,22,female,True
212,99.0,25,M,down,0.5374879999999393,1.3571072244552735,,experiment,emotion,0.0,,,,730.5910508999987,1013,22,female,True
213,103.0,25,F,down,0.3835557999991579,1.3236491045170775,,experiment,emotion,0.0,,,,732.7409088999993,1013,22,female,True
214,94.0,25,M,down,0.5280951000004279,0.8926136489384346,,experiment,emotion,0.0,,,,734.3075885999988,1013,22,female,True
215,108.0,25,F,up,0.819962100000339,0.3463353178716642,,experiment,emotion,0.0,,,,735.457549499999,1013,22,female,True
216,103.0,25,M,down,0.6873544000009133,1.6242093615507982,,experiment,emotion,0.0,,,,738.1741208999993,1013,22,female,True
217,108.0,25,F,up,0.6301352000009501,1.532406183271523,,experiment,emotion,0.0,,,,740.6573642999992,1013,22,female,True
218,94.0,25,M,down,0.6082202999987203,1.1541523946212295,,experiment,emotion,0.0,,,,742.7073057999987,1013,22,female,True
219,103.0,25,F,up,0.9296600000016042,1.335268554894958,,experiment,emotion,0.0,,,,744.9238625999988,1013,22,female,True
220,99.0,25,M,up,0.635372599999755,0.304615408775547,,experiment,emotion,0.0,,,,746.457136699999,1013,22,female,True
221,99.0,25,F,up,0.6794133000003058,0.5458496403966765,,experiment,emotion,0.0,,,,747.9070811999991,1013,22,female,True
222,103.0,25,F,up,0.528393500000675,0.9785867097299144,,experiment,emotion,0.0,,,,749.8401911000001,1013,22,female,True
223,108.0,25,M,down,0.7125875000001543,1.740579962837555,,experiment,emotion,0.0,,,,752.4069225999992,1013,22,female,True
224,99.0,25,F,up,0.7163763999997173,1.5010141882185524,,experiment,emotion,0.0,,,,754.8901473999995,1013,22,female,True
225,94.0,25,M,up,0.7424224999995204,0.525497470947793,,experiment,emotion,0.0,,,,756.3901037999985,1013,22,female,True
226,94.0,25,M,up,0.6478191999995033,0.7944950120510088,,experiment,emotion,0.0,,,,758.2067042999988,1013,22,female,True
227,99.0,25,F,up,0.6489323999994667,0.8719739292337934,,experiment,emotion,0.0,,,,760.0066296999994,1013,22,female,True
228,108.0,25,F,up,0.4763660999997228,0.8914471441161458,,experiment,emotion,0.0,,,,761.8232169999992,1013,22,female,True
229,103.0,25,M,down,0.6252812999991875,1.7316771994716378,,experiment,emotion,0.0,,,,764.3231575999998,1013,22,female,True
230,94.0,25,F,down,0.5081675000001269,1.6290117607253154,,experiment,emotion,0.0,,,,766.839719399999,1013,22,female,True
231,108.0,25,M,up,0.6731966000006651,0.7313612136597947,,experiment,emotion,0.0,,,,768.3563645999984,1013,22,female,True
232,103.0,25,M,up,0.5225396000005276,0.3793694718239477,,experiment,emotion,0.0,,,,769.6729743999986,1013,22,female,True
233,103.0,25,M,down,0.6240878999997221,1.7875701860187063,,experiment,emotion,0.0,,,,772.2564430000002,1013,22,female,True
234,94.0,25,M,down,0.8246380000000499,1.02715803322051,,experiment,emotion,0.0,,,,774.1728128999985,1013,22,female,True
235,99.0,25,M,down,0.8254973999992217,1.7430200574235306,,experiment,emotion,0.0,,,,777.0059989999991,1013,22,female,True
236,108.0,25,F,up,0.6685606999999436,1.164235077522192,,experiment,emotion,0.0,,,,779.2559540000002,1013,22,female,True
237,99.0,25,F,up,0.8223518000013428,0.3672182909426074,,experiment,emotion,0.0,,,,780.5561425999986,1013,22,female,True
238,99.0,25,F,up,0.6450344000004407,0.7844137640044153,,experiment,emotion,0.0,,,,782.4224599999998,1013,22,female,True
239,99.0,25,M,up,0.6014205999999831,1.1017357586789085,,experiment,emotion,0.0,,,,784.4390640000001,1013,22,female,True
240,108.0,25,F,up,0.5328005999999732,1.580920323736526,,experiment,emotion,0.0,,,,786.9056738999989,1013,22,female,True
241,103.0,25,F,up,1.0482981000004656,1.3933853061974948,,experiment,emotion,0.0,,,,789.1222574999993,1013,22,female,True
242,94.0,25,F,up,0.6136913999998796,0.8249269313174161,,experiment,emotion,0.0,,,,791.2888179999991,1013,22,female,True
243,94.0,25,M,up,0.6963685999999143,0.5548586568765739,,experiment,emotion,0.0,,,,792.7220892999994,1013,22,female,True
244,103.0,25,F,down,1.0644941999998991,1.7404771635544745,,experiment,emotion,0.0,,,,795.4219963999985,1013,22,female,True
245,108.0,25,M,up,1.145605899999282,1.818008294916564,,experiment,emotion,0.0,,,,798.5719208999999,1013,22,female,True
246,108.0,25,M,up,0.7300404000015988,1.7972124619655891,,experiment,emotion,0.0,,,,801.7884548999991,1013,22,female,True
247,94.0,25,F,down,0.655121899999358,0.7053956881944731,,experiment,emotion,0.0,,,,803.4883777999985,1013,22,female,True
248,108.0,25,M,up,1.0778814000004786,1.647346060270398,,experiment,emotion,0.0,,,,806.0716223999989,1013,22,female,True
249,99.0,25,F,up,0.6743005000007543,1.9606464434492,,experiment,emotion,0.0,,,,809.3881607999992,1013,22,female,True
250,103.0,25,M,up,0.6974312000002101,0.824447402050944,,experiment,emotion,0.0,,,,811.1880980999995,1013,22,female,True
251,99.0,25,F,down,0.5625980999993772,0.5784845010839161,,experiment,emotion,0.0,,,,812.7379743000001,1013,22,female,True
252,94.0,25,M,up,1.225196200000937,1.3960647707513738,,experiment,emotion,0.0,,,,814.971292799999,1013,22,female,True
253,103.0,25,F,up,0.6763124999997672,0.3067771611154286,,experiment,emotion,0.0,,,,816.7712255999995,1013,22,female,True
254,99.0,25,F,down,0.7283539000000019,1.40543189159008,,experiment,emotion,0.0,,,,819.1211320999992,1013,22,female,True
255,103.0,25,F,down,0.674813699999504,1.3229499105351286,,experiment,emotion,0.0,,,,821.4376837,1013,22,female,True
256,94.0,25,F,down,0.5992065999998886,1.8223533101821927,,experiment,emotion,0.0,,,,824.2042703999996,1013,22,female,True
257,108.0,25,F,up,0.9179790999987744,1.75366397321573,,experiment,emotion,0.0,,,,826.8375347000001,1013,22,female,True
258,103.0,25,M,down,0.6917468999999983,1.426216590495796,,experiment,emotion,0.0,,,,829.4707571999988,1013,22,female,True
259,108.0,25,M,up,0.6661497000004601,1.0434029325674523,,experiment,emotion,0.0,,,,831.4873449999996,1013,22,female,True
260,94.0,25,M,down,0.8493465999999898,0.9037429881868072,,experiment,emotion,0.0,,,,833.3371424999987,1013,22,female,True
261,99.0,25,M,down,0.8180133999994723,1.6554159564344966,,experiment,emotion,0.0,,,,836.1204982999989,1013,22,female,True
262,0.254819686286807,25,up,up,0.8191464000010455,0.6504804823807792,,experiment,cRDM,0.0,,,,840.9703666999994,1013,22,female,True
263,0.254819686286807,25,up,up,0.5823039000006247,1.067149079738857,,experiment,cRDM,0.0,,,,843.1202558999994,1013,22,female,True
264,0.254819686286807,25,down,down,0.9342916999994486,1.6531702809069415,,experiment,cRDM,0.0,,,,845.6201631999993,1013,22,female,True
265,0.254819686286807,25,down,up,0.6063794000001508,0.9583801914983644,,experiment,cRDM,0.0,,,,847.7701093999985,1013,22,female,True
266,0.254819686286807,25,up,up,0.5138212999991083,1.504293026771054,,experiment,cRDM,0.0,,,,850.1366729999991,1013,22,female,True
267,0.254819686286807,25,down,down,0.5789645000004384,1.8646377049968903,,experiment,cRDM,0.0,,,,852.7865604999988,1013,22,female,True
268,0.254819686286807,25,up,up,0.5777004999999917,1.6605131366208763,,experiment,cRDM,0.0,,,,855.2698397999993,1013,22,female,True
269,0.254819686286807,25,up,up,0.54442840000047,1.1886611642502485,,experiment,cRDM,0.0,,,,857.3030744999996,1013,22,female,True
270,0.254819686286807,25,down,up,0.6271876999999222,0.3125146404367083,,experiment,cRDM,0.0,,,,858.4363689999991,1013,22,female,True
271,0.254819686286807,25,down,down,0.8618848999994952,0.6915787452761072,,experiment,cRDM,0.0,,,,860.0196068999994,1013,22,female,True
272,0.254819686286807,25,down,up,0.8273169000003691,0.5859419151986698,,experiment,cRDM,0.0,,,,861.736223599999,1013,22,female,True
273,0.254819686286807,25,down,up,0.8630272999998851,1.844340254266324,,experiment,cRDM,0.0,,,,864.6694837999985,1013,22,female,True
274,0.254819686286807,25,down,down,0.544516100000692,1.9380606484773328,,experiment,cRDM,0.0,,,,867.7359765000001,1013,22,female,True
275,0.254819686286807,25,down,up,0.6304841000001034,0.4896393166927959,,experiment,cRDM,0.0,,,,869.0360111999998,1013,22,female,True
276,0.254819686286807,25,up,down,0.9368682999993324,0.7746258981989039,,experiment,cRDM,0.0,,,,870.7025829999984,1013,22,female,True
277,0.254819686286807,25,up,up,0.6729850000010629,0.8011444031301322,,experiment,cRDM,0.0,,,,872.7025092999993,1013,22,female,True
278,0.254819686286807,25,up,up,0.9151154000010138,1.3578888106926303,,experiment,cRDM,0.0,,,,875.0024108999987,1013,22,female,True
279,0.254819686286807,25,up,up,0.7454722999991645,0.4896344353290961,,experiment,cRDM,0.0,,,,876.6690225000002,1013,22,female,True
280,0.254819686286807,25,down,up,0.5828572000009444,0.4131356972571313,,experiment,cRDM,0.0,,,,878.0856360999987,1013,22,female,True
281,0.254819686286807,25,up,up,0.690613900000244,1.587404831957553,,experiment,cRDM,0.0,,,,880.5188671999986,1013,22,female,True
282,0.254819686286807,25,up,down,0.4414083000010578,1.8291030961495465,,experiment,cRDM,0.0,,,,883.3021141999998,1013,22,female,True
283,0.254819686286807,25,down,down,0.5785039999991568,1.554978041250222,,experiment,cRDM,0.0,,,,885.5520575999999,1013,22,female,True
284,0.254819686286807,25,up,up,0.9815017000000807,1.26308114416026,,experiment,cRDM,0.0,,,,887.6519952999988,1013,22,female,True
285,0.254819686286807,25,down,down,0.5543125000003783,0.4451415088632395,,experiment,cRDM,0.0,,,,889.3351839999996,1013,22,female,True
286,0.254819686286807,25,down,up,0.6768217000008008,1.205792221193704,,experiment,cRDM,0.0,,,,891.3518564999995,1013,22,female,True
287,0.254819686286807,25,up,up,0.6877361999995628,0.5597142920107254,,experiment,cRDM,0.0,,,,892.8517541000001,1013,22,female,True
288,0.254819686286807,25,up,up,0.7102892000002612,0.8131046336468848,,experiment,cRDM,0.0,,,,894.6183695,1013,22,female,True
289,0.254819686286807,25,down,down,0.6105738999995083,1.5287343745254345,,experiment,cRDM,0.0,,,,897.1349209,1013,22,female,True
290,0.254819686286807,25,up,up,0.6003419999997277,1.904976810316437,,experiment,cRDM,0.0,,,,899.9181537999993,1013,22,female,True
291,0.254819686286807,25,down,down,0.7740327999999863,1.0099499843499775,,experiment,cRDM,0.0,,,,901.8014124999992,1013,22,female,True
292,0.254819686286807,25,down,up,0.7075519000009081,1.7799481268159107,,experiment,cRDM,0.0,,,,904.6179785999992,1013,22,female,True
293,0.254819686286807,25,down,down,0.6342080000013084,1.5552093491279435,,experiment,cRDM,0.0,,,,907.1512728999988,1013,22,female,True
294,0.254819686286807,25,up,up,0.5719872999998188,0.5325452339398183,,experiment,cRDM,0.0,,,,908.584515999999,1013,22,female,True
295,0.254819686286807,25,up,up,0.5631085000004532,1.7158407069610042,,experiment,cRDM,0.0,,,,911.1344202,1013,22,female,True
296,0.254819686286807,25,up,down,0.5481298000013339,1.9685378625668557,,experiment,cRDM,0.0,,,,913.9343680999992,1013,22,female,True
297,0.254819686286807,25,down,down,0.9269329999988258,1.331114425070935,,experiment,cRDM,0.0,,,,916.067608899999,1013,22,female,True
298,0.254819686286807,25,down,up,0.7256190999996761,1.100504816955805,,experiment,cRDM,0.0,,,,918.3508763999998,1013,22,female,True
299,0.254819686286807,25,up,up,0.3838446999998268,1.586444641937346,,experiment,cRDM,0.0,,,,920.9173937999984,1013,22,female,True
300,0.254819686286807,25,down,down,0.6539143999998487,1.447507113486505,,experiment,cRDM,0.0,,,,923.0505871999994,1013,22,female,True
301,0.254819686286807,25,up,up,0.5561963000000105,0.9977192134002052,,experiment,cRDM,0.0,,,,924.9672769999996,1013,22,female,True
302,0.254819686286807,25,up,up,0.4416524000007484,0.9431896331581402,,experiment,cRDM,0.0,,,,926.7338322999984,1013,22,female,True
303,0.254819686286807,25,up,up,0.695365399998991,0.6372580752580312,,experiment,cRDM,0.0,,,,928.0671291999988,1013,22,female,True
304,0.254819686286807,25,down,down,0.6307379999998375,1.0070695946330814,,experiment,cRDM,0.0,,,,930.0337148999988,1013,22,female,True
305,0.254819686286807,25,down,down,0.6512939000003826,1.916464165033,,experiment,cRDM,0.0,,,,932.8502141999998,1013,22,female,True
306,0.254819686286807,25,up,up,0.5619838999991771,1.9125844304714623,,experiment,cRDM,0.0,,,,935.6835253999998,1013,22,female,True
307,0.254819686286807,25,down,down,0.5740837000012107,1.6478504257609223,,experiment,cRDM,0.0,,,,938.133418899999,1013,22,female,True
308,0.254819686286807,25,down,down,0.6741359999996348,0.3102469487786717,,experiment,cRDM,0.0,,,,939.2833890999992,1013,22,female,True
309,0.254819686286807,25,up,up,0.6858747999995103,1.3940825676779158,,experiment,cRDM,0.0,,,,941.6166286999996,1013,22,female,True
310,0.254819686286807,25,up,up,0.7073359999994864,0.6678605424959567,,experiment,cRDM,0.0,,,,943.2331650999986,1013,22,female,True
311,0.254819686286807,25,down,down,0.7003591000011511,1.513110927015108,,experiment,cRDM,0.0,,,,945.7331455999991,1013,22,female,True
312,0.254819686286807,25,up,up,0.6476985000008426,0.8490307669997712,,experiment,cRDM,0.0,,,,947.5498038999996,1013,22,female,True
313,0.254819686286807,25,down,down,0.5788640999999188,1.9897841727120376,,experiment,cRDM,0.0,,,,950.4496270999988,1013,22,female,True
314,0.254819686286807,25,down,down,0.6615440999994462,0.8006137821977368,,experiment,cRDM,0.0,,,,952.0829242,1013,22,female,True
315,0.254819686286807,25,down,down,0.6226138000001811,1.015294189227085,,experiment,cRDM,0.0,,,,954.0328869999994,1013,22,female,True
316,0.254819686286807,25,up,up,0.7900795999994443,1.675526524087447,,experiment,cRDM,0.0,,,,956.5994388,1013,22,female,True
317,0.254819686286807,25,up,up,0.5254879999993136,1.755840764650782,,experiment,cRDM,0.0,,,,959.4159701999996,1013,22,female,True
318,0.254819686286807,25,down,down,0.6716104999995878,1.2095457722509078,,experiment,cRDM,0.0,,,,961.415890799999,1013,22,female,True
319,0.254819686286807,25,down,down,0.5447018999984721,1.8674655045339332,,experiment,cRDM,0.0,,,,964.2158091,1013,22,female,True
320,0.254819686286807,25,up,up,0.5991068000002997,1.8465097955842311,,experiment,cRDM,0.0,,,,966.8823962999996,1013,22,female,True
321,0.254819686286807,25,up,up,0.6915036999998847,1.3199964887327431,,experiment,cRDM,0.0,,,,969.0489961999992,1013,22,female,True
322,0.254819686286807,25,up,up,0.6179011000003811,0.9138220003561202,,experiment,cRDM,0.0,,,,970.9155493999988,1013,22,female,True
323,0.254819686286807,25,up,up,0.5653569000005518,1.0889434605470436,,experiment,cRDM,0.0,,,,972.8821568999992,1013,22,female,True
324,0.254819686286807,25,up,up,0.7017387999985658,1.7453887657578353,,experiment,cRDM,0.0,,,,975.448763299999,1013,22,female,True
325,0.254819686286807,25,down,down,0.6545881999991252,1.6162639166974215,,experiment,cRDM,0.0,,,,978.0319655999992,1013,22,female,True
326,0.254819686286807,25,down,up,0.6678986999995686,0.3085457927920093,,experiment,cRDM,0.0,,,,979.2486264999987,1013,22,female,True
327,0.254819686286807,25,up,up,0.724300800000492,1.0764144560599616,,experiment,cRDM,0.0,,,,981.2651833999988,1013,22,female,True
328,0.254819686286807,25,down,up,0.6477221000004647,1.6885059126688715,,experiment,cRDM,0.0,,,,983.9317821999994,1013,22,female,True
329,0.254819686286807,25,down,down,1.7145258999989892,1.7789488633104689,,experiment,cRDM,0.0,,,,986.6149762999994,1013,22,female,True
330,0.254819686286807,25,down,down,1.2066383000001224,1.884391402486596,,experiment,cRDM,0.0,,,,990.4648462999994,1013,22,female,True
331,0.254819686286807,25,up,up,0.5713991000011447,1.9068987712449632,,experiment,cRDM,0.0,,,,993.8480886999988,1013,22,female,True
332,0.254819686286807,25,down,down,0.5707801999997173,0.3989434731171152,,experiment,cRDM,0.0,,,,995.0646734999992,1013,22,female,True
333,0.254819686286807,25,down,up,1.2239001999987522,1.304672053450462,,experiment,cRDM,0.0,,,,997.2145927999992,1013,22,female,True
334,0.254819686286807,25,down,down,1.072965600000316,0.8726842630690439,,experiment,cRDM,0.0,,,,999.5645451,1013,22,female,True
335,0.254819686286807,25,up,up,1.7757643999993888,1.799350825031911,,experiment,cRDM,0.0,,,,1002.6977332999996,1013,22,female,True
336,0.254819686286807,25,up,up,0.8924886000004335,0.300164917855238,,experiment,cRDM,0.0,,,,1005.0309682999996,1013,22,female,True
337,0.254819686286807,25,down,up,0.7692998999991687,1.5871124624373625,,experiment,cRDM,0.0,,,,1007.7642362999997,1013,22,female,True
338,0.254819686286807,25,up,down,0.828980500000398,0.4869803209677226,,experiment,cRDM,0.0,,,,1009.2975116999988,1013,22,female,True
339,0.254819686286807,25,down,up,1.2014209000008125,0.3302633508019315,,experiment,cRDM,0.0,,,,1010.7140818999997,1013,22,female,True
340,0.254819686286807,25,up,up,0.9014915999996448,0.687843566914366,,experiment,cRDM,0.0,,,,1012.8640189999988,1013,22,female,True
341,0.254819686286807,25,up,up,0.7338660999994318,0.6580039550207517,,experiment,cRDM,0.0,,,,1014.6806347000002,1013,22,female,True
342,108.0,25,M,down,0.7930849000003946,1.2763690377577748,,experiment,emotion,1.0,,,,1020.6804187999988,1013,22,female,True
343,94.0,25,M,down,0.460894099998768,1.507315470369868,,experiment,emotion,1.0,,,,1023.2636666,1013,22,female,True
344,103.0,25,F,down,0.5382845999993151,1.7595405555834505,,experiment,emotion,1.0,,,,1025.7802253999998,1013,22,female,True
345,108.0,25,F,up,0.5143145000001823,0.6949112532107503,,experiment,emotion,1.0,,,,1027.2801913999992,1013,22,female,True
346,103.0,25,M,down,0.7407524999998714,0.9836829700245092,,experiment,emotion,1.0,,,,1029.046745399999,1013,22,female,True
347,99.0,25,F,up,0.9927956999999878,1.1637133800548234,,experiment,emotion,1.0,,,,1031.2467080999995,1013,22,female,True
348,94.0,25,M,down,0.6752500999991753,0.3485107075394574,,experiment,emotion,1.0,,,,1032.8633038999997,1013,22,female,True
349,99.0,25,M,down,0.7532950999993773,0.9975020138176544,,experiment,emotion,1.0,,,,1034.8132108999998,1013,22,female,True
350,108.0,25,F,down,0.8457474999995611,0.4388601435010194,,experiment,emotion,1.0,,,,1036.2798305999986,1013,22,female,True
351,99.0,25,F,down,0.5051218999997218,1.606685345475829,,experiment,emotion,1.0,,,,1038.9963960999994,1013,22,female,True
352,103.0,25,F,up,0.863877699999648,0.5454784247088362,,experiment,emotion,1.0,,,,1040.3296664999998,1013,22,female,True
353,108.0,25,F,up,0.6455673999989813,1.4945294843467312,,experiment,emotion,1.0,,,,1042.9629354999995,1013,22,female,True
354,103.0,25,F,down,0.6996550999992905,0.8349411332757037,,experiment,emotion,1.0,,,,1044.7128579,1013,22,female,True
355,94.0,25,F,up,0.7863584000006085,0.4201060711963716,,experiment,emotion,1.0,,,,1046.096148999999,1013,22,female,True
356,99.0,25,M,down,0.5833640999990166,0.6029481506631842,,experiment,emotion,1.0,,,,1047.7461119,1013,22,female,True
357,94.0,25,M,up,0.5708135000004404,1.6609534565182786,,experiment,emotion,1.0,,,,1050.2626703999997,1013,22,female,True
358,108.0,25,M,down,0.6559330000000045,1.2709192427885394,,experiment,emotion,1.0,,,,1052.362574299999,1013,22,female,True
359,94.0,25,M,down,0.6570178000001761,1.3230227052854175,,experiment,emotion,1.0,,,,1054.612486599999,1013,22,female,True
360,103.0,25,F,up,0.7211062000005768,1.3779786488322625,,experiment,emotion,1.0,,,,1056.9123963999991,1013,22,female,True
361,103.0,25,M,up,0.651880199999141,1.202004133453367,,experiment,emotion,1.0,,,,1059.095663099999,1013,22,female,True
362,99.0,25,M,up,0.7112839000001259,0.7961112764299829,,experiment,emotion,1.0,,,,1060.8291969000002,1013,22,female,True
363,99.0,25,F,up,0.7409442999996827,1.2782541656089803,,experiment,emotion,1.0,,,,1063.095525499999,1013,22,female,True
364,94.0,25,M,up,0.6890266000009433,0.3816969700743151,,experiment,emotion,1.0,,,,1064.4954561999984,1013,22,female,True
365,108.0,25,F,up,0.7381718999986333,1.4360566938947334,,experiment,emotion,1.0,,,,1066.895378199999,1013,22,female,True
366,103.0,25,F,down,0.4795954999990499,1.969498110647457,,experiment,emotion,1.0,,,,1069.8619310999984,1013,22,female,True
367,94.0,25,M,down,0.4933687000011559,1.5267853226808747,,experiment,emotion,1.0,,,,1072.1451820999991,1013,22,female,True
368,108.0,25,M,down,0.8701860999990458,1.9053802984452288,,experiment,emotion,1.0,,,,1074.8283161,1013,22,female,True
369,108.0,25,F,down,0.3669542999996338,1.1532160745403703,,experiment,emotion,1.0,,,,1077.1282328999987,1013,22,female,True
370,99.0,25,M,up,0.6252678000000742,1.7485888123548643,,experiment,emotion,1.0,,,,1079.5782493999995,1013,22,female,True
371,94.0,25,F,down,0.6539890999993077,1.297742923665219,,experiment,emotion,1.0,,,,1081.7615162000002,1013,22,female,True
372,99.0,25,F,up,0.561727600001177,1.1675281039332903,,experiment,emotion,1.0,,,,1083.8447810999987,1013,22,female,True
373,103.0,25,F,up,0.562512999998944,0.6440942605570226,,experiment,emotion,1.0,,,,1085.3279783999988,1013,22,female,True
374,94.0,25,M,down,0.4459004999989702,0.8266661425471709,,experiment,emotion,1.0,,,,1086.9946513999985,1013,22,female,True
375,108.0,25,M,up,0.6629544999996142,1.7362803471279766,,experiment,emotion,1.0,,,,1089.4445566999984,1013,22,female,True
376,103.0,25,M,down,0.5960216999992554,1.5186625625867365,,experiment,emotion,1.0,,,,1091.8944909000002,1013,22,female,True
377,108.0,25,F,up,0.4564312000002246,0.6961299683608075,,experiment,emotion,1.0,,,,1093.4610768999992,1013,22,female,True
378,94.0,25,F,down,0.5451675999993313,0.9158713555777116,,experiment,emotion,1.0,,,,1095.0943431999983,1013,22,female,True
379,103.0,25,M,up,0.5195714000001317,1.4022408612449662,,experiment,emotion,1.0,,,,1097.3109071999988,1013,22,female,True
380,99.0,25,F,up,0.7650006999992911,1.452263604532529,,experiment,emotion,1.0,,,,1099.5775216000002,1013,22,female,True
381,99.0,25,M,down,0.903405400000338,1.0752111135088027,,experiment,emotion,1.0,,,,1101.6940977999984,1013,22,female,True
382,103.0,25,M,down,0.8804607000001852,0.8709471768489989,,experiment,emotion,1.0,,,,1103.7440518999992,1013,22,female,True
383,108.0,25,M,up,0.6085901999995258,1.9377613633628177,,experiment,emotion,1.0,,,,1106.8439199999991,1013,22,female,True
384,99.0,25,F,down,0.6126737000013236,1.3722464247521486,,experiment,emotion,1.0,,,,1109.0938365000002,1013,22,female,True
385,94.0,25,F,down,0.9011267999994744,1.6690908266285531,,experiment,emotion,1.0,,,,1111.6604044999983,1013,22,female,True
386,94.0,25,M,down,0.8539578999989317,0.8170818632958781,,experiment,emotion,1.0,,,,1113.6436177999983,1013,22,female,True
387,99.0,25,F,down,0.6152067000002717,0.3530087312722083,,experiment,emotion,1.0,,,,1115.1102888999994,1013,22,female,True
388,108.0,25,F,up,0.8663531999991392,1.2740932364885331,,experiment,emotion,1.0,,,,1117.2601976999997,1013,22,female,True
389,103.0,25,M,up,0.8125334000014846,1.8988564837911448,,experiment,emotion,1.0,,,,1120.3100478999986,1013,22,female,True
390,94.0,25,M,up,0.6274740999997448,1.4169767534579885,,experiment,emotion,1.0,,,,1122.8099877999994,1013,22,female,True
391,108.0,25,F,up,0.673591500000839,0.597413726709023,,experiment,emotion,1.0,,,,1124.3099174999988,1013,22,female,True
392,103.0,25,M,up,0.6053073999992193,0.4372880272796924,,experiment,emotion,1.0,,,,1125.6932359999992,1013,22,female,True
393,103.0,25,F,up,0.6963329000009253,0.5702836599570817,,experiment,emotion,1.0,,,,1127.1431751,1013,22,female,True
394,94.0,25,F,down,0.6197988000003534,1.500564479431105,,experiment,emotion,1.0,,,,1129.6097396999994,1013,22,female,True
395,99.0,25,F,up,0.6648350000014034,0.688629879210207,,experiment,emotion,1.0,,,,1131.209685599999,1013,22,female,True
396,108.0,25,M,up,0.6908774999992602,0.5449063861509047,,experiment,emotion,1.0,,,,1132.709631099999,1013,22,female,True
397,99.0,25,M,up,0.6675883999996586,0.9067185049216104,,experiment,emotion,1.0,,,,1134.5929049999995,1013,22,female,True
398,99.0,25,F,down,0.6230390000000625,1.3287265709297604,,experiment,emotion,1.0,,,,1136.8594767999984,1013,22,female,True
399,99.0,25,F,down,0.8482045000000653,0.4745804972469715,,experiment,emotion,1.0,,,,1138.2263573,1013,22,female,True
400,108.0,25,M,up,0.9618100999996386,1.6927504133525184,,experiment,emotion,1.0,,,,1141.0427003999994,1013,22,female,True
401,103.0,25,M,down,0.7643425999995088,0.8992634338568797,,experiment,emotion,1.0,,,,1143.2092283999991,1013,22,female,True
402,94.0,25,M,down,0.7216253999995388,0.8769826005187649,,experiment,emotion,1.0,,,,1145.1258699999998,1013,22,female,True
403,94.0,25,M,down,0.6067573000000266,1.5498427804635264,,experiment,emotion,1.0,,,,1147.6757591999994,1013,22,female,True
404,103.0,25,M,up,0.638103699999192,0.4900732537284118,,experiment,emotion,1.0,,,,1149.0423904,1013,22,female,True
405,108.0,25,F,down,0.7865494999987277,1.0013128811536818,,experiment,emotion,1.0,,,,1150.9589610999992,1013,22,female,True
406,108.0,25,F,up,0.7122735000011744,1.2230470712048254,,experiment,emotion,1.0,,,,1153.2422416999998,1013,22,female,True
407,94.0,25,M,down,0.6333512999990489,0.9221396749509234,,experiment,emotion,1.0,,,,1155.142158999999,1013,22,female,True
408,108.0,25,F,up,1.3004930000006425,1.5336167565958694,,experiment,emotion,1.0,,,,1157.5920583999996,1013,22,female,True
409,99.0,25,F,down,0.4779326000007131,1.2440687054425872,,experiment,emotion,1.0,,,,1160.4085968,1013,22,female,True
410,103.0,25,F,up,0.6446720999992976,1.7726076230134755,,experiment,emotion,1.0,,,,1162.9418663999986,1013,22,female,True
411,99.0,25,M,down,1.211070600000312,0.8542973559968507,,experiment,emotion,1.0,,,,1164.708443899999,1013,22,female,True
412,94.0,25,F,down,0.6055078999997932,1.2784603009826911,,experiment,emotion,1.0,,,,1167.4750072999996,1013,22,female,True
413,103.0,25,F,down,0.635922200001005,1.2297615290714914,,experiment,emotion,1.0,,,,1169.5915946999994,1013,22,female,True
414,99.0,25,F,down,0.7432981999991171,0.8605546423841846,,experiment,emotion,1.0,,,,1171.358209099999,1013,22,female,True
415,103.0,25,M,down,0.7873971000008169,0.553993567297023,,experiment,emotion,1.0,,,,1172.9081523999994,1013,22,female,True
416,94.0,25,M,down,0.4510546000001341,1.739047535780563,,experiment,emotion,1.0,,,,1175.6913980999998,1013,22,female,True
417,108.0,25,F,up,0.7378650000009657,0.955889697056154,,experiment,emotion,1.0,,,,1177.3746605999986,1013,22,female,True
418,103.0,25,M,down,1.040976899999805,0.3912071797798856,,experiment,emotion,1.0,,,,1178.7746068999986,1013,22,female,True
419,108.0,25,F,up,0.6233284999998432,1.09751485377004,,experiment,emotion,1.0,,,,1181.1911865999991,1013,22,female,True
420,94.0,25,M,down,0.6183925999994244,1.664664086983054,,experiment,emotion,1.0,,,,1183.7411068,1013,22,female,True
421,99.0,25,M,down,0.6924772999991546,1.0469074540313976,,experiment,emotion,1.0,,,,1185.6910236999993,1013,22,female,True
422,0.254819686286807,25,up,up,0.7754836999993131,1.0549473330857182,,experiment,cRDM,1.0,,,,1203.0570419999983,1013,22,female,True
423,0.254819686286807,25,up,up,0.7825646999990568,1.4005519870961964,,experiment,cRDM,1.0,,,,1205.5069645999993,1013,22,female,True
424,0.254819686286807,25,down,down,0.679588999999396,0.7945631907506323,,experiment,cRDM,1.0,,,,1207.3569363999995,1013,22,female,True
425,0.254819686286807,25,down,up,0.5866306000007171,0.658803160483389,,experiment,cRDM,1.0,,,,1208.9568665999996,1013,22,female,True
426,0.254819686286807,25,up,up,0.654072700001052,1.818156081902775,,experiment,cRDM,1.0,,,,1211.6234439,1013,22,female,True
427,0.254819686286807,25,down,down,0.4469052999993437,1.919631737271427,,experiment,cRDM,1.0,,,,1214.4566290999992,1013,22,female,True
428,0.254819686286807,25,up,up,0.4639332000006106,0.9010691855270084,,experiment,cRDM,1.0,,,,1216.056563799999,1013,22,female,True
429,0.254819686286807,25,up,up,0.4463261999990209,0.985279935783772,,experiment,cRDM,1.0,,,,1217.7731918999998,1013,22,female,True
430,0.254819686286807,25,down,down,0.4599425000014889,1.8032137098232963,,experiment,cRDM,1.0,,,,1220.289754699999,1013,22,female,True
431,0.254819686286807,25,down,down,0.4428396999992401,0.8341077935979542,,experiment,cRDM,1.0,,,,1221.8396947,1013,22,female,True
432,0.254819686286807,25,down,down,0.5119076999999379,1.382248285895584,,experiment,cRDM,1.0,,,,1223.9396282999987,1013,22,female,True
433,0.254819686286807,25,down,down,0.4168501999993168,1.3643993433071933,,experiment,cRDM,1.0,,,,1226.0895192999997,1013,22,female,True
434,0.254819686286807,25,down,down,0.4784098000000085,1.9337253568785129,,experiment,cRDM,1.0,,,,1228.7061053999987,1013,22,female,True
435,0.254819686286807,25,down,down,0.4002500999995391,1.250040129298024,,experiment,cRDM,1.0,,,,1230.689360299999,1013,22,female,True
436,0.254819686286807,25,up,up,0.3838187999990623,0.8754721348930132,,experiment,cRDM,1.0,,,,1232.2559920999993,1013,22,female,True
437,0.254819686286807,25,up,down,0.5597283999995852,0.8669885308551266,,experiment,cRDM,1.0,,,,1233.8059022999987,1013,22,female,True
438,0.254819686286807,25,up,down,0.4168686000011803,0.6736955023557356,,experiment,cRDM,1.0,,,,1235.305848099999,1013,22,female,True
439,0.254819686286807,25,up,down,0.8807410000008531,0.3196814566126881,,experiment,cRDM,1.0,,,,1236.3058112999988,1013,22,female,True
440,0.254819686286807,25,down,down,0.4552420999989408,0.5873816453544973,,experiment,cRDM,1.0,,,,1238.0222732000002,1013,22,female,True
441,0.254819686286807,25,up,up,0.3338201999995362,1.129970308489774,,experiment,cRDM,1.0,,,,1239.8723613000002,1013,22,female,True
442,0.254819686286807,25,up,up,0.2838181000006443,0.6405099370897065,,experiment,cRDM,1.0,,,,1241.1889881999996,1013,22,female,True
443,0.254819686286807,25,down,down,0.3004791000003024,1.0101368327101294,,experiment,cRDM,1.0,,,,1242.8889222999987,1013,22,female,True
444,0.254819686286807,25,up,up,0.4168362999989767,1.7138551978632248,,experiment,cRDM,1.0,,,,1245.272148,1013,22,female,True
445,0.254819686286807,25,down,down,0.5772188999999344,1.4733848380364176,,experiment,cRDM,1.0,,,,1247.422297499999,1013,22,female,True
446,0.254819686286807,25,down,down,0.5702350999999908,1.752410596536575,,experiment,cRDM,1.0,,,,1250.0053057999994,1013,22,female,True
447,0.254819686286807,25,up,down,0.5028846000004705,0.6409672945305579,,experiment,cRDM,1.0,,,,1251.4886256999998,1013,22,female,True
448,0.254819686286807,25,up,up,0.5943422000000282,1.9454389987112783,,experiment,cRDM,1.0,,,,1254.205151099999,1013,22,female,True
449,0.254819686286807,25,down,down,0.4347586000003502,1.208321905790695,,experiment,cRDM,1.0,,,,1256.271781699999,1013,22,female,True
450,0.254819686286807,25,up,up,0.5148281000001589,1.1059502113870854,,experiment,cRDM,1.0,,,,1258.0716983999991,1013,22,female,True
451,0.254819686286807,25,down,down,0.5390492000005906,1.5630563276063116,,experiment,cRDM,1.0,,,,1260.421525899999,1013,22,female,True
452,0.254819686286807,25,down,up,0.4429597999987891,0.8546369083857113,,experiment,cRDM,1.0,,,,1262.071554799999,1013,22,female,True
453,0.254819686286807,25,down,down,0.52039060000061,1.7068998524893262,,experiment,cRDM,1.0,,,,1264.4881307999983,1013,22,female,True
454,0.254819686286807,25,up,down,0.5125639000016236,1.2178758565394323,,experiment,cRDM,1.0,,,,1266.4880540999984,1013,22,female,True
455,0.254819686286807,25,up,up,0.5058800000006158,1.0329218013235166,,experiment,cRDM,1.0,,,,1268.304645999999,1013,22,female,True
456,0.254819686286807,25,up,up,0.574613999999201,0.6622580832772602,,experiment,cRDM,1.0,,,,1269.7379986999986,1013,22,female,True
457,0.254819686286807,25,down,up,0.6683619000014005,0.4008557488072117,,experiment,cRDM,1.0,,,,1270.9712285999994,1013,22,female,True
458,0.254819686286807,25,down,down,0.5930633000007219,1.7979176341106975,,experiment,cRDM,1.0,,,,1273.7044558999987,1013,22,female,True
459,0.254819686286807,25,up,up,0.7078446999985317,1.62581090911785,,experiment,cRDM,1.0,,,,1276.1877145999988,1013,22,female,True
460,0.254819686286807,25,down,up,0.9132233000000268,1.2559842466858906,,experiment,cRDM,1.0,,,,1278.4042983,1013,22,female,True
461,0.254819686286807,25,up,up,0.5256935000015801,1.3055404350762667,,experiment,cRDM,1.0,,,,1280.8708590999995,1013,22,female,True
462,0.254819686286807,25,up,up,0.5939304000003176,0.8702212000795353,,experiment,cRDM,1.0,,,,1282.5207021999995,1013,22,female,True
463,0.254819686286807,25,up,up,0.500152500000695,1.851802117747876,,experiment,cRDM,1.0,,,,1285.2374034999991,1013,22,female,True
464,0.254819686286807,25,down,down,0.4759139000016148,1.7208619367148692,,experiment,cRDM,1.0,,,,1287.7206088999992,1013,22,female,True
465,0.254819686286807,25,down,up,0.8056157000009989,0.5981324447971109,,experiment,cRDM,1.0,,,,1289.0539110999998,1013,22,female,True
466,0.254819686286807,25,up,up,0.6070618999983708,1.7395547284878117,,experiment,cRDM,1.0,,,,1291.8704635999984,1013,22,female,True
467,0.254819686286807,25,down,down,0.5614574999999604,0.9466811396872112,,experiment,cRDM,1.0,,,,1293.6870658999997,1013,22,female,True
468,0.254819686286807,25,down,up,0.5138042999988102,0.5372910433357105,,experiment,cRDM,1.0,,,,1295.0537284000002,1013,22,female,True
469,0.254819686286807,25,up,up,0.6719696999989537,1.3279465711805118,,experiment,cRDM,1.0,,,,1297.153580799999,1013,22,female,True
470,0.254819686286807,25,up,up,0.5463235999995959,0.6299085105582232,,experiment,cRDM,1.0,,,,1298.720197499999,1013,22,female,True
471,0.254819686286807,25,down,down,0.4640055999989272,0.7795323543899988,,experiment,cRDM,1.0,,,,1300.3035198999987,1013,22,female,True
472,0.254819686286807,25,up,up,0.4572898000005807,0.673076156548814,,experiment,cRDM,1.0,,,,1301.7032590999988,1013,22,female,True
473,0.254819686286807,25,down,down,0.6112283000002208,1.5868886228356534,,experiment,cRDM,1.0,,,,1304.0032944999984,1013,22,female,True
474,0.254819686286807,25,down,down,1.0748730999985128,0.8576709424528572,,experiment,cRDM,1.0,,,,1305.7366508999985,1013,22,female,True
475,0.254819686286807,25,down,up,0.4906490000012127,1.8448251500589776,,experiment,cRDM,1.0,,,,1308.9198676999986,1013,22,female,True
476,0.254819686286807,25,up,up,0.6370874000003823,0.5766177560846604,,experiment,cRDM,1.0,,,,1310.2364534999997,1013,22,female,True
477,0.254819686286807,25,up,down,0.5857553000005282,1.7885983469786106,,experiment,cRDM,1.0,,,,1312.919711999999,1013,22,female,True
478,0.254819686286807,25,down,down,0.69059229999948,1.7736325245080142,,experiment,cRDM,1.0,,,,1315.5529281999989,1013,22,female,True
479,0.254819686286807,25,down,down,0.7963966000006621,1.2469709419627537,,experiment,cRDM,1.0,,,,1317.7361714999988,1013,22,female,True
480,0.254819686286807,25,up,up,0.6457864999993035,0.5023231867781888,,experiment,cRDM,1.0,,,,1319.3027649999983,1013,22,female,True
481,0.254819686286807,25,up,down,0.7714505000003555,1.0644632981918565,,experiment,cRDM,1.0,,,,1321.286057899999,1013,22,female,True
482,0.254819686286807,25,up,up,0.5345783000011579,1.170957736179483,,experiment,cRDM,1.0,,,,1323.4859773999997,1013,22,female,True
483,0.254819686286807,25,up,up,0.6156081999997696,1.5494064120174598,,experiment,cRDM,1.0,,,,1325.8358979999994,1013,22,female,True
484,0.254819686286807,25,up,up,0.6665501999996195,1.9082590185197952,,experiment,cRDM,1.0,,,,1328.618955599999,1013,22,female,True
485,0.254819686286807,25,down,down,0.6184583000012935,1.8690704822911677,,experiment,cRDM,1.0,,,,1331.4190443999996,1013,22,female,True
486,0.254819686286807,25,down,down,0.647283399999651,1.818341696977459,,experiment,cRDM,1.0,,,,1334.1022371999989,1013,22,female,True
487,0.254819686286807,25,up,up,0.6410052000010182,1.042165807128687,,experiment,cRDM,1.0,,,,1336.0355402999994,1013,22,female,True
488,0.254819686286807,25,down,down,0.5384034000016982,0.6634083531352821,,experiment,cRDM,1.0,,,,1337.6021064999986,1013,22,female,True
489,0.254819686286807,25,down,down,0.5218512999999803,1.967597520715566,,experiment,cRDM,1.0,,,,1340.3686744999995,1013,22,female,True
490,0.254819686286807,25,down,down,1.1125975000013568,1.9627445817490907,,experiment,cRDM,1.0,,,,1343.1019254999992,1013,22,female,True
491,0.254819686286807,25,up,up,0.6646798000001581,0.6762610064035746,,experiment,cRDM,1.0,,,,1345.151840299999,1013,22,female,True
492,0.254819686286807,25,down,down,0.4880923999990045,1.2953554459906285,,experiment,cRDM,1.0,,,,1347.3684275999983,1013,22,female,True
493,0.254819686286807,25,down,down,0.6961780000001454,1.5607595506060998,,experiment,cRDM,1.0,,,,1349.668349399999,1013,22,female,True
494,0.254819686286807,25,down,up,0.9226965999987442,1.3432870838519488,,experiment,cRDM,1.0,,,,1351.984912,1013,22,female,True
495,0.254819686286807,25,up,up,0.552301500001704,0.4148123187562406,,experiment,cRDM,1.0,,,,1353.568190099999,1013,22,female,True
496,0.254819686286807,25,up,up,0.5130751000015152,0.9133250762756036,,experiment,cRDM,1.0,,,,1355.3014371999998,1013,22,female,True
497,0.254819686286807,25,down,down,0.5201735999999073,1.8319136794692248,,experiment,cRDM,1.0,,,,1357.9013516999985,1013,22,female,True
498,0.254819686286807,25,up,up,0.5468607999991946,0.9626621574823055,,experiment,cRDM,1.0,,,,1359.6346673999997,1013,22,female,True
499,0.254819686286807,25,down,down,0.4168451000005007,1.5382700852230888,,experiment,cRDM,1.0,,,,1361.9845682999985,1013,22,female,True
500,0.254819686286807,25,up,up,0.6409835000013118,1.4293899865369273,,experiment,cRDM,1.0,,,,1364.0844940999996,1013,22,female,True
501,0.254819686286807,25,up,up,0.5651061000007758,0.5859287516962477,,experiment,cRDM,1.0,,,,1365.584417,1013,22,female,True
502,108.0,25,M,down,0.8835586999994121,1.6531195423842795,,experiment,emotion,2.0,,,,1375.5340650999988,1013,22,female,True
503,94.0,25,M,down,0.4695472000003065,1.4330129394191908,,experiment,emotion,2.0,,,,1378.133978599999,1013,22,female,True
504,103.0,25,F,up,0.6906966000005923,1.0417877886346285,,experiment,emotion,2.0,,,,1379.9338994999998,1013,22,female,True
505,108.0,25,F,up,0.4587184000010893,0.3008055917877082,,experiment,emotion,2.0,,,,1381.1838517999986,1013,22,female,True
506,103.0,25,M,up,0.4220755999995162,1.025290573057349,,experiment,emotion,2.0,,,,1382.9504564999988,1013,22,female,True
507,99.0,25,F,up,0.4811307999989367,0.8316668837988599,,experiment,emotion,2.0,,,,1384.5004040999993,1013,22,female,True
508,94.0,25,M,down,0.3169073000008211,1.8742268336752257,,experiment,emotion,2.0,,,,1387.1169101999983,1013,22,female,True
509,99.0,25,M,down,0.4589577999995526,0.6833015212009674,,experiment,emotion,2.0,,,,1388.4835697,1013,22,female,True
510,108.0,25,F,up,0.4167730999997729,0.6269790418856753,,experiment,emotion,2.0,,,,1389.8501914999997,1013,22,female,True
511,99.0,25,F,up,0.2668469999989611,1.2068024681086609,,experiment,emotion,2.0,,,,1391.7501211,1013,22,female,True
512,103.0,25,F,up,0.4364539999987755,1.743348784028238,,experiment,emotion,2.0,,,,1394.1833508,1013,22,female,True
513,108.0,25,F,up,0.4001978999986022,1.402631734150466,,experiment,emotion,2.0,,,,1396.2999318000002,1013,22,female,True
514,103.0,25,F,down,0.4509329000011348,0.4808832096317335,,experiment,emotion,2.0,,,,1397.4666014999984,1013,22,female,True
515,94.0,25,F,down,0.3168373000007705,1.5005025848105813,,experiment,emotion,2.0,,,,1399.6831557999994,1013,22,female,True
516,99.0,25,M,up,0.4437851000002411,1.0838377467192797,,experiment,emotion,2.0,,,,1401.4497727999988,1013,22,female,True
517,94.0,25,M,down,0.4938149999998131,1.39008991158957,,experiment,emotion,2.0,,,,1403.549697099999,1013,22,female,True
518,108.0,25,M,down,0.5495764000006602,1.319780633231376,,experiment,emotion,2.0,,,,1405.632952,1013,22,female,True
519,94.0,25,M,down,0.4814064000001963,0.662808104482368,,experiment,emotion,2.0,,,,1407.1161202999992,1013,22,female,True
520,103.0,25,F,down,0.8274739999997109,1.027868139781592,,experiment,emotion,2.0,,,,1408.9160173,1013,22,female,True
521,103.0,25,M,down,0.4691585000000486,0.4219553512848655,,experiment,emotion,2.0,,,,1410.4494161999992,1013,22,female,True
522,99.0,25,M,down,0.6469003999991401,0.5964738239376446,,experiment,emotion,2.0,,,,1411.7827001999997,1013,22,female,True
523,99.0,25,F,down,0.5046024000002944,1.6225097969454203,,experiment,emotion,2.0,,,,1414.3159675999996,1013,22,female,True
524,94.0,25,M,down,0.3835190999998303,1.0978906428660566,,experiment,emotion,2.0,,,,1416.1825422000002,1013,22,female,True
525,108.0,25,F,up,0.5540737999999692,0.6184407609335612,,experiment,emotion,2.0,,,,1417.4824921,1013,22,female,True
526,103.0,25,F,down,0.5974363999994239,1.8383893426151632,,experiment,emotion,2.0,,,,1420.1490849000002,1013,22,female,True
527,94.0,25,M,up,0.5398831000002247,0.3430088750335007,,experiment,emotion,2.0,,,,1421.3657082999998,1013,22,female,True
528,108.0,25,M,up,0.5306043999989924,1.0905204018447403,,experiment,emotion,2.0,,,,1423.2489589999986,1013,22,female,True
529,108.0,25,F,up,0.4588994999994611,0.4337616654580908,,experiment,emotion,2.0,,,,1424.4655905,1013,22,female,True
530,99.0,25,M,down,0.4817079000004014,0.9122312212272534,,experiment,emotion,2.0,,,,1426.0988239999988,1013,22,female,True
531,94.0,25,F,up,0.3169359000003169,1.6097841030354354,,experiment,emotion,2.0,,,,1428.4487954999986,1013,22,female,True
532,99.0,25,F,up,0.3668631999989884,1.7266742863205626,,experiment,emotion,2.0,,,,1430.8820135999997,1013,22,female,True
533,103.0,25,F,up,0.6932164000008925,0.8458347775561121,,experiment,emotion,2.0,,,,1432.4153145,1013,22,female,True
534,94.0,25,M,up,0.4002249999994092,1.090120201761959,,experiment,emotion,2.0,,,,1434.4652092999986,1013,22,female,True
535,108.0,25,M,up,0.4168254000014713,1.781049794394244,,experiment,emotion,2.0,,,,1436.931800299999,1013,22,female,True
536,103.0,25,M,down,0.9307841999998344,1.0033053960473393,,experiment,emotion,2.0,,,,1438.6317467999995,1013,22,female,True
537,108.0,25,F,up,0.6942187999993621,1.2103633745233378,,experiment,emotion,2.0,,,,1441.0483098999994,1013,22,female,True
538,94.0,25,F,down,0.4880538000015804,1.872272599719723,,experiment,emotion,2.0,,,,1443.8815461999984,1013,22,female,True
539,103.0,25,M,up,0.8283971000000747,1.2492624479017078,,experiment,emotion,2.0,,,,1445.8981327,1013,22,female,True
540,99.0,25,F,down,1.4665093000003253,1.8351537297021665,,experiment,emotion,2.0,,,,1448.8480174999986,1013,22,female,True
541,99.0,25,M,up,0.7650357000002259,1.1445322870848404,,experiment,emotion,2.0,,,,1451.7144805999997,1013,22,female,True
542,103.0,25,M,up,0.6770682000005763,1.9176060430153716,,experiment,emotion,2.0,,,,1454.6644691,1013,22,female,True
543,108.0,25,M,down,0.6718258000000787,0.7187290965233519,,experiment,emotion,2.0,,,,1456.3477532999989,1013,22,female,True
544,99.0,25,F,up,0.605553699999291,1.7407071495501865,,experiment,emotion,2.0,,,,1459.0309805999989,1013,22,female,True
545,94.0,25,F,down,0.6186643000000913,1.6028292000368347,,experiment,emotion,2.0,,,,1461.5309027999992,1013,22,female,True
546,94.0,25,M,down,0.6800690999989456,1.82066588754092,,experiment,emotion,2.0,,,,1464.2474645000002,1013,22,female,True
547,99.0,25,F,down,0.8154835000004823,0.6549954259319785,,experiment,emotion,2.0,,,,1465.8640738999984,1013,22,female,True
548,108.0,25,F,down,0.4552072000005864,1.6821029533810234,,experiment,emotion,2.0,,,,1468.6473047,1013,22,female,True
549,103.0,25,M,up,0.9186634999987292,1.6766615747324,,experiment,emotion,2.0,,,,1471.0638854999995,1013,22,female,True
550,94.0,25,M,down,0.7000915999997233,0.8681864062068447,,experiment,emotion,2.0,,,,1473.1304789999997,1013,22,female,True
551,108.0,25,F,down,0.7334630000004836,1.1360770943143248,,experiment,emotion,2.0,,,,1475.247072099999,1013,22,female,True
552,103.0,25,M,down,0.4782546999995247,1.8243521971515104,,experiment,emotion,2.0,,,,1478.080285099999,1013,22,female,True
553,103.0,25,F,up,0.8219754000001558,1.387461762594182,,experiment,emotion,2.0,,,,1480.2135880999997,1013,22,female,True
554,94.0,25,F,down,0.6273968999994395,1.0542848967629834,,experiment,emotion,2.0,,,,1482.3801417999985,1013,22,female,True
555,99.0,25,F,up,0.7174850999999762,0.799806625636124,,experiment,emotion,2.0,,,,1484.0800848999988,1013,22,female,True
556,108.0,25,M,up,0.5711715999987064,0.6340229528772169,,experiment,emotion,2.0,,,,1485.7133439999998,1013,22,female,True
557,99.0,25,M,up,0.4203245999997307,1.1994554814666651,,experiment,emotion,2.0,,,,1487.7632632999994,1013,22,female,True
558,99.0,25,F,up,0.7276974000014889,0.8091145174789185,,experiment,emotion,2.0,,,,1489.2798592999989,1013,22,female,True
559,99.0,25,F,down,0.7591001999990112,1.733916014004997,,experiment,emotion,2.0,,,,1491.9964378999994,1013,22,female,True
560,108.0,25,M,down,0.6568471999999019,1.3488888340029763,,experiment,emotion,2.0,,,,1494.3796858999997,1013,22,female,True
561,103.0,25,M,down,0.9813534000004438,1.0854255445925565,,experiment,emotion,2.0,,,,1496.3962739,1013,22,female,True
562,94.0,25,M,down,0.4753894999994372,1.9316734229994743,,experiment,emotion,2.0,,,,1499.5961564999998,1013,22,female,True
563,94.0,25,M,down,0.8014100999989751,0.9118681254241529,,experiment,emotion,2.0,,,,1501.2461227999993,1013,22,female,True
564,103.0,25,M,down,0.5361185000001569,0.967293969055606,,experiment,emotion,2.0,,,,1503.2793641999997,1013,22,female,True
565,108.0,25,F,up,0.8579998999994132,1.823467810811908,,experiment,emotion,2.0,,,,1505.912602499999,1013,22,female,True
566,108.0,25,F,up,0.6269604000008258,0.4777416093754696,,experiment,emotion,2.0,,,,1507.5125645999997,1013,22,female,True
567,94.0,25,M,up,0.750485700000354,1.9222223019691589,,experiment,emotion,2.0,,,,1510.3291019999997,1013,22,female,True
568,108.0,25,F,up,0.8428077999997186,0.4837999721516037,,experiment,emotion,2.0,,,,1511.8457098999988,1013,22,female,True
569,99.0,25,F,up,0.5720139000004565,1.0415663649901823,,experiment,emotion,2.0,,,,1514.0125776999994,1013,22,female,True
570,103.0,25,F,up,0.6846463000001677,0.608082665415256,,experiment,emotion,2.0,,,,1515.4789175999997,1013,22,female,True
571,99.0,25,M,up,0.4926496999996743,0.4948340979000372,,experiment,emotion,2.0,,,,1516.9288880999993,1013,22,female,True
572,94.0,25,F,up,0.4337276000005658,0.840818427016254,,experiment,emotion,2.0,,,,1518.528806799999,1013,22,female,True
573,103.0,25,F,down,0.5764696000005642,1.338840980756136,,experiment,emotion,2.0,,,,1520.5620620999998,1013,22,female,True
574,99.0,25,F,down,0.641150600000401,0.4426671419004955,,experiment,emotion,2.0,,,,1521.8453861999988,1013,22,female,True
575,103.0,25,M,up,0.6769445000009,1.9838072122328396,,experiment,emotion,2.0,,,,1524.7285873,1013,22,female,True
576,94.0,25,M,down,0.4370471000001998,1.8130116762855877,,experiment,emotion,2.0,,,,1527.4784928999998,1013,22,female,True
577,108.0,25,F,down,0.7081650999989506,1.9793625191784825,,experiment,emotion,2.0,,,,1530.178389499999,1013,22,female,True
578,103.0,25,M,down,0.8522294999984297,0.9146344394397234,,experiment,emotion,2.0,,,,1532.0783119999996,1013,22,female,True
579,108.0,25,F,down,0.4842596999988018,1.127730695570989,,experiment,emotion,2.0,,,,1534.3282260999986,1013,22,female,True
580,94.0,25,M,down,0.7500256999992416,0.9478129665513224,,experiment,emotion,2.0,,,,1536.0115121,1013,22,female,True
581,99.0,25,M,down,0.5351671000007627,1.8215294034102243,,experiment,emotion,2.0,,,,1538.861406,1013,22,female,True
582,0.254819686286807,25,up,up,0.6583386000002065,1.833601216081658,,experiment,cRDM,2.0,,,,1545.2611744999997,1013,22,female,True
583,0.254819686286807,25,up,up,0.519117499999993,1.2451192696641828,,experiment,cRDM,2.0,,,,1547.4444183999983,1013,22,female,True
584,0.254819686286807,25,down,down,0.5215803000010055,1.6763903560136295,,experiment,cRDM,2.0,,,,1549.9109733999994,1013,22,female,True
585,0.254819686286807,25,down,up,0.524260600001071,0.4104047274060767,,experiment,cRDM,2.0,,,,1551.0942784999988,1013,22,female,True
586,0.254819686286807,25,up,down,0.5573686000007001,0.8134863337225997,,experiment,cRDM,2.0,,,,1552.6941646999985,1013,22,female,True
587,0.254819686286807,25,down,down,0.550472400000217,1.2790595233861366,,experiment,cRDM,2.0,,,,1554.794096399999,1013,22,female,True
588,0.254819686286807,25,up,down,0.6558101999999053,0.9367947291715056,,experiment,cRDM,2.0,,,,1556.560724699999,1013,22,female,True
589,0.254819686286807,25,up,up,0.6246252000000823,0.6200509113265604,,experiment,cRDM,2.0,,,,1558.0939134,1013,22,female,True
590,0.254819686286807,25,down,down,0.4245360000004439,0.6119274591234133,,experiment,cRDM,2.0,,,,1559.5940068,1013,22,female,True
591,0.254819686286807,25,down,down,0.4459439999991446,0.7159351835790284,,experiment,cRDM,2.0,,,,1561.010623099999,1013,22,female,True
592,0.254819686286807,25,down,down,0.5156617000011465,0.9137999999465848,,experiment,cRDM,2.0,,,,1562.6438746999993,1013,22,female,True
593,0.254819686286807,25,down,up,0.7500503999999637,0.8889322629500938,,experiment,cRDM,2.0,,,,1564.3104859999985,1013,22,female,True
594,0.254819686286807,25,down,down,0.5711817999999766,1.733862319755875,,experiment,cRDM,2.0,,,,1567.0603548,1013,22,female,True
595,0.254819686286807,25,down,down,0.6076231999995798,0.7372126532141907,,experiment,cRDM,2.0,,,,1568.626968999999,1013,22,female,True
596,0.254819686286807,25,up,up,0.400385399998413,0.9959471795216468,,experiment,cRDM,2.0,,,,1570.493502199999,1013,22,female,True
597,0.254819686286807,25,up,up,0.4727205999988655,1.5066001331950307,,experiment,cRDM,2.0,,,,1572.676821699999,1013,22,female,True
598,0.254819686286807,25,up,up,0.527269599999272,1.180680878600767,,experiment,cRDM,2.0,,,,1574.5933322,1013,22,female,True
599,0.254819686286807,25,up,up,0.4168016000003263,1.6839013654610613,,experiment,cRDM,2.0,,,,1577.0599986999987,1013,22,female,True
600,0.254819686286807,25,down,down,0.5569799999993847,1.092680328351443,,experiment,cRDM,2.0,,,,1578.826594,1013,22,female,True
601,0.254819686286807,25,up,up,0.6006618999999773,1.470048969071666,,experiment,cRDM,2.0,,,,1581.109862199999,1013,22,female,True
602,0.254819686286807,25,up,up,0.972773600000437,1.2520438996664298,,experiment,cRDM,2.0,,,,1583.2097928999992,1013,22,female,True
603,0.254819686286807,25,down,down,0.4718597999999474,1.6633632275644878,,experiment,cRDM,2.0,,,,1586.109678499999,1013,22,female,True
604,0.254819686286807,25,up,up,0.5219985000003362,0.3142789059122632,,experiment,cRDM,2.0,,,,1587.1596157999993,1013,22,female,True
605,0.254819686286807,25,down,up,0.9603267999991658,1.5901929384501554,,experiment,cRDM,2.0,,,,1589.5261978,1013,22,female,True
606,0.254819686286807,25,down,down,0.503790000000663,1.875481347621408,,experiment,cRDM,2.0,,,,1592.6427534999984,1013,22,female,True
607,0.254819686286807,25,up,up,0.5824436999992031,0.7948280057602842,,experiment,cRDM,2.0,,,,1594.2093802999989,1013,22,female,True
608,0.254819686286807,25,up,up,0.5505486000001838,1.964218860388216,,experiment,cRDM,2.0,,,,1597.0259723,1013,22,female,True
609,0.254819686286807,25,down,up,0.7762760000005073,0.9776859581763612,,experiment,cRDM,2.0,,,,1598.8092370999984,1013,22,female,True
610,0.254819686286807,25,up,up,0.4631193999994138,1.4942748164198103,,experiment,cRDM,2.0,,,,1601.3424558999995,1013,22,female,True
611,0.254819686286807,25,down,up,0.6008352000008017,0.9103864872584188,,experiment,cRDM,2.0,,,,1602.9757051999986,1013,22,female,True
612,0.254819686286807,25,down,up,0.5065309000001434,0.5184951073723061,,experiment,cRDM,2.0,,,,1604.3590088,1013,22,female,True
613,0.254819686286807,25,down,up,0.5759093999986362,0.991251864065766,,experiment,cRDM,2.0,,,,1606.1256325999984,1013,22,female,True
614,0.254819686286807,25,up,up,0.4870770999987144,1.7082599196072985,,experiment,cRDM,2.0,,,,1608.675482499999,1013,22,female,True
615,0.254819686286807,25,up,up,0.4895921999996062,1.2638955446503668,,experiment,cRDM,2.0,,,,1610.6920163999985,1013,22,female,True
616,0.254819686286807,25,up,up,0.5991176999996242,0.3728512904139898,,experiment,cRDM,2.0,,,,1611.825424999999,1013,22,female,True
617,0.254819686286807,25,down,down,0.4322489999995014,1.8928612407319525,,experiment,cRDM,2.0,,,,1614.5752963999985,1013,22,female,True
618,0.254819686286807,25,down,up,0.5831660999992891,0.641154448494709,,experiment,cRDM,2.0,,,,1615.9085287999987,1013,22,female,True
619,0.254819686286807,25,up,up,0.4180259000004298,1.849125462702888,,experiment,cRDM,2.0,,,,1618.6084945999992,1013,22,female,True
620,0.254819686286807,25,down,up,0.6424967000002653,1.8179473931154424,,experiment,cRDM,2.0,,,,1621.1250361999992,1013,22,female,True
621,0.254819686286807,25,up,up,0.4585785999988729,1.6485248878809564,,experiment,cRDM,2.0,,,,1623.6749652,1013,22,female,True
622,0.254819686286807,25,up,up,0.3838309999991907,1.7627691382814434,,experiment,cRDM,2.0,,,,1626.158186499999,1013,22,female,True
623,0.254819686286807,25,up,up,0.4914504999997007,0.6570305104602161,,experiment,cRDM,2.0,,,,1627.5081511999997,1013,22,female,True
624,0.254819686286807,25,down,up,0.5684828000012203,1.5444201575283885,,experiment,cRDM,2.0,,,,1629.8080455,1013,22,female,True
625,0.254819686286807,25,down,up,0.4552368000004207,1.4451577690226591,,experiment,cRDM,2.0,,,,1632.0913134000002,1013,22,female,True
626,0.254819686286807,25,up,up,0.5543147000007593,0.8778112992626583,,experiment,cRDM,2.0,,,,1633.691233399999,1013,22,female,True
627,0.254819686286807,25,down,down,0.5013429999999062,0.833177958439727,,experiment,cRDM,2.0,,,,1635.3411949,1013,22,female,True
628,0.254819686286807,25,down,down,0.4004013000012492,1.1999751301496722,,experiment,cRDM,2.0,,,,1637.3076851999997,1013,22,female,True
629,0.254819686286807,25,up,up,0.5555638000005274,0.8148641707472444,,experiment,cRDM,2.0,,,,1638.8079835999995,1013,22,female,True
630,0.254819686286807,25,up,up,0.6932195000008505,1.63693592792266,,experiment,cRDM,2.0,,,,1641.2743132999983,1013,22,female,True
631,0.254819686286807,25,down,down,0.816953999999896,1.036825150253071,,experiment,cRDM,2.0,,,,1643.2575784,1013,22,female,True
632,0.254819686286807,25,up,down,1.0840638999998191,1.4179287570714096,,experiment,cRDM,2.0,,,,1645.7574781999992,1013,22,female,True
633,0.254819686286807,25,down,down,0.4768142000011721,0.5256757862295707,,experiment,cRDM,2.0,,,,1647.6407289,1013,22,female,True
634,0.254819686286807,25,down,up,0.9148717999996734,0.5135898197613391,,experiment,cRDM,2.0,,,,1648.8906725999989,1013,22,female,True
635,0.254819686286807,25,down,down,0.7176226000010502,1.2001074741536355,,experiment,cRDM,2.0,,,,1651.2739327,1013,22,female,True
636,0.254819686286807,25,up,up,0.4470289000000775,1.5978444749811842,,experiment,cRDM,2.0,,,,1653.840509399999,1013,22,female,True
637,0.254819686286807,25,up,up,0.4168599000004178,0.6132333183792152,,experiment,cRDM,2.0,,,,1655.1737901999986,1013,22,female,True
638,0.254819686286807,25,down,down,0.3338277000002563,0.9482563601450836,,experiment,cRDM,2.0,,,,1656.8070435999998,1013,22,female,True
639,0.254819686286807,25,down,up,0.5205323999998654,0.6229433793782775,,experiment,cRDM,2.0,,,,1658.1070095999985,1013,22,female,True
640,0.254819686286807,25,up,up,0.5520011000007798,1.726207173058298,,experiment,cRDM,2.0,,,,1660.6236255999993,1013,22,female,True
641,0.254819686286807,25,up,up,0.5473880999998073,0.6474112618790027,,experiment,cRDM,2.0,,,,1662.0901913999987,1013,22,female,True
642,0.254819686286807,25,up,up,0.4002990999997564,1.111962975676962,,experiment,cRDM,2.0,,,,1664.0067586999994,1013,22,female,True
643,0.254819686286807,25,up,up,0.4168897999988985,1.1731346853540532,,experiment,cRDM,2.0,,,,1665.8567141999993,1013,22,female,True
644,0.254819686286807,25,up,up,0.5161922999996023,0.3445685390261587,,experiment,cRDM,2.0,,,,1666.873356,1013,22,female,True
645,0.254819686286807,25,down,down,0.5749464000000444,1.5199173881052208,,experiment,cRDM,2.0,,,,1669.1566220999994,1013,22,female,True
646,0.254819686286807,25,down,down,0.3838560999993206,1.5682313078335128,,experiment,cRDM,2.0,,,,1671.5731531,1013,22,female,True
647,0.254819686286807,25,up,up,0.5857061999995494,0.6803900752157735,,experiment,cRDM,2.0,,,,1672.9398237999994,1013,22,female,True
648,0.254819686286807,25,down,down,0.4775222000007488,1.7920068184456843,,experiment,cRDM,2.0,,,,1675.5730445999998,1013,22,female,True
649,0.254819686286807,25,down,down,0.8675285999997868,1.6038614011507657,,experiment,cRDM,2.0,,,,1677.9230021999992,1013,22,female,True
650,0.254819686286807,25,down,down,0.383858400000463,1.401690937682265,,experiment,cRDM,2.0,,,,1680.456191199999,1013,22,female,True
651,0.254819686286807,25,up,up,0.5906979999999749,0.4487567945952941,,experiment,cRDM,2.0,,,,1681.5728227,1013,22,female,True
652,0.254819686286807,25,down,down,0.5681408000000374,0.4571427579807895,,experiment,cRDM,2.0,,,,1682.8894203,1013,22,female,True
653,0.254819686286807,25,down,up,0.4689011000009486,1.1805539722418006,,experiment,cRDM,2.0,,,,1684.9227013,1013,22,female,True
654,0.254819686286807,25,down,down,0.6665795999997499,1.442228717008392,,experiment,cRDM,2.0,,,,1687.1059796999998,1013,22,female,True
655,0.254819686286807,25,up,up,0.4726737999990291,1.3333448057313393,,experiment,cRDM,2.0,,,,1689.355872,1013,22,female,True
656,0.254819686286807,25,up,up,0.3502184999997553,1.6011475844908918,,experiment,cRDM,2.0,,,,1691.6893849999997,1013,22,female,True
657,0.254819686286807,25,down,down,0.6371491999998398,1.0657806362314508,,experiment,cRDM,2.0,,,,1693.422385599999,1013,22,female,True
658,0.254819686286807,25,up,up,0.7859392999998818,0.84157809650765,,experiment,cRDM,2.0,,,,1695.1556740999986,1013,22,female,True
659,0.254819686286807,25,down,down,0.4470111999999062,1.6117210435804803,,experiment,cRDM,2.0,,,,1697.8055950999988,1013,22,female,True
660,0.254819686286807,25,up,up,0.6060374999997293,0.6229767308974716,,experiment,cRDM,2.0,,,,1699.1555149999986,1013,22,female,True
661,0.254819686286807,25,up,up,0.6327813999996579,1.3284872962134289,,experiment,cRDM,2.0,,,,1701.338765999999,1013,22,female,True
662,108.0,25,M,down,0.8849532000003819,1.146934392667258,,experiment,emotion,3.0,,,,1706.1385745999996,1013,22,female,True
663,94.0,25,M,down,0.4267059000012523,1.4525391960942424,,experiment,emotion,3.0,,,,1708.7718348,1013,22,female,True
664,103.0,25,F,up,0.3835023999999976,1.9129918779070096,,experiment,emotion,3.0,,,,1711.3883757999993,1013,22,female,True
665,108.0,25,F,up,0.3168266999982734,1.129881544631528,,experiment,emotion,3.0,,,,1713.2049970999997,1013,22,female,True
666,103.0,25,M,up,0.720302100000481,0.8878719087671383,,experiment,emotion,3.0,,,,1714.7882491,1013,22,female,True
667,99.0,25,F,down,0.7120762999984436,0.6222347615395049,,experiment,emotion,3.0,,,,1716.421549499999,1013,22,female,True
668,94.0,25,M,up,0.5971085999990464,1.6630849261564389,,experiment,emotion,3.0,,,,1719.0714494999993,1013,22,female,True
669,99.0,25,M,down,0.5678973000012775,1.7178882020590922,,experiment,emotion,3.0,,,,1721.6546851999992,1013,22,female,True
670,108.0,25,F,up,0.5629322999993747,0.8087770956415397,,experiment,emotion,3.0,,,,1723.3046170999987,1013,22,female,True
671,99.0,25,F,down,0.4676046000004135,0.7482777194377808,,experiment,emotion,3.0,,,,1724.8879478,1013,22,female,True
672,103.0,25,F,up,0.626408200001606,1.7864016675537877,,experiment,emotion,3.0,,,,1727.4211399999986,1013,22,female,True
673,108.0,25,F,up,0.6971580999997968,1.3851962137031588,,experiment,emotion,3.0,,,,1729.7043950999996,1013,22,female,True
674,103.0,25,F,up,0.7029524000008678,1.527031951328605,,experiment,emotion,3.0,,,,1732.1875506999986,1013,22,female,True
675,94.0,25,F,down,0.4863349000006565,0.394143247109075,,experiment,emotion,3.0,,,,1733.5542498999985,1013,22,female,True
676,99.0,25,M,down,0.4914227000008395,1.1410320583326337,,experiment,emotion,3.0,,,,1735.4541682,1013,22,female,True
677,94.0,25,M,down,0.4217951999999059,1.7578173687792975,,experiment,emotion,3.0,,,,1737.9707514000002,1013,22,female,True
678,108.0,25,M,down,0.3668436000007204,1.4750801587482858,,experiment,emotion,3.0,,,,1740.137333499999,1013,22,female,True
679,94.0,25,M,down,0.5409595999990415,0.9890053023903612,,experiment,emotion,3.0,,,,1741.8206154,1013,22,female,True
680,103.0,25,F,up,0.6016791999991256,1.2764637945061137,,experiment,emotion,3.0,,,,1743.9038689999998,1013,22,female,True
681,103.0,25,M,down,0.7287750999985292,1.6731183864872634,,experiment,emotion,3.0,,,,1746.4537739999996,1013,22,female,True
682,99.0,25,M,down,0.5895578999989084,1.91805297840638,,experiment,emotion,3.0,,,,1749.3869921999994,1013,22,female,True
683,99.0,25,F,down,0.8569010999999591,0.4504210246670614,,experiment,emotion,3.0,,,,1750.703645399999,1013,22,female,True
684,94.0,25,M,down,0.6613122999988263,0.7775752873577809,,experiment,emotion,3.0,,,,1752.620220499999,1013,22,female,True
685,108.0,25,F,up,0.4841018000006443,0.3429035837199863,,experiment,emotion,3.0,,,,1753.9034498,1013,22,female,True
686,103.0,25,F,down,0.4794646000009379,1.7051886863074748,,experiment,emotion,3.0,,,,1756.3700732999987,1013,22,female,True
687,94.0,25,M,down,0.6555468999995355,1.8071484871974388,,experiment,emotion,3.0,,,,1758.9200029999993,1013,22,female,True
688,108.0,25,M,up,0.4648169000010966,1.4778029465137097,,experiment,emotion,3.0,,,,1761.319902399999,1013,22,female,True
689,108.0,25,F,up,0.4784061000009387,1.1577841459000875,,experiment,emotion,3.0,,,,1763.203170499999,1013,22,female,True
690,99.0,25,M,up,0.5561213999990287,1.090952181365617,,experiment,emotion,3.0,,,,1765.0364219999992,1013,22,female,True
691,94.0,25,F,down,0.436614100000952,1.8833160899486168,,experiment,emotion,3.0,,,,1767.7529774999985,1013,22,female,True
692,99.0,25,F,down,0.5289339999999356,0.6036922922933516,,experiment,emotion,3.0,,,,1769.0696279999993,1013,22,female,True
693,103.0,25,F,down,0.8583507999992435,1.705427346075041,,experiment,emotion,3.0,,,,1771.5861910999993,1013,22,female,True
694,94.0,25,M,down,0.4271368000008806,1.794136274971796,,experiment,emotion,3.0,,,,1774.5194154,1013,22,female,True
695,108.0,25,M,up,0.4748706999998831,1.330010277711048,,experiment,emotion,3.0,,,,1776.5526843999996,1013,22,female,True
696,103.0,25,M,up,0.5662405999992188,0.5316683808810951,,experiment,emotion,3.0,,,,1777.8193090999994,1013,22,female,True
697,108.0,25,F,down,0.4923168000004807,1.2841842888587292,,experiment,emotion,3.0,,,,1779.9192366999996,1013,22,female,True
698,94.0,25,F,down,0.4337730999995983,1.3055618566943734,,experiment,emotion,3.0,,,,1781.9857852999994,1013,22,female,True
699,103.0,25,M,down,0.5069524000009551,1.9891312505153436,,experiment,emotion,3.0,,,,1784.685677899999,1013,22,female,True
700,99.0,25,F,down,0.4168324999991455,1.4411310571884743,,experiment,emotion,3.0,,,,1786.9189451999991,1013,22,female,True
701,99.0,25,M,down,0.4804007999991881,1.4490890797313285,,experiment,emotion,3.0,,,,1789.0522103999992,1013,22,female,True
702,103.0,25,M,down,0.4740104000011342,0.4346219269936449,,experiment,emotion,3.0,,,,1790.2354946999983,1013,22,female,True
703,108.0,25,M,up,0.3835606999982701,1.440297504708493,,experiment,emotion,3.0,,,,1792.4354229,1013,22,female,True
704,99.0,25,F,up,0.3667939000006299,1.2015693773013778,,experiment,emotion,3.0,,,,1794.3353420999993,1013,22,female,True
705,94.0,25,F,down,0.5019432999997662,1.1347028639734746,,experiment,emotion,3.0,,,,1796.1686085,1013,22,female,True
706,94.0,25,M,down,0.4573908999991545,1.8447009159572545,,experiment,emotion,3.0,,,,1798.7851644999992,1013,22,female,True
707,99.0,25,F,up,0.5701089000012871,1.544348080094268,,experiment,emotion,3.0,,,,1801.0684378999997,1013,22,female,True
708,108.0,25,F,up,0.553203499999654,1.3452843510221346,,experiment,emotion,3.0,,,,1803.2683738,1013,22,female,True
709,103.0,25,M,down,0.4956316000007064,1.884329180823037,,experiment,emotion,3.0,,,,1805.9849221999996,1013,22,female,True
710,94.0,25,M,down,0.4401225999990856,1.253539172166885,,experiment,emotion,3.0,,,,1808.0014302,1013,22,female,True
711,108.0,25,F,up,0.5117973000014899,0.5345607097111424,,experiment,emotion,3.0,,,,1809.2348038,1013,22,female,True
712,103.0,25,M,down,0.4504065000000992,0.3902692234126339,,experiment,emotion,3.0,,,,1810.418086399999,1013,22,female,True
713,103.0,25,F,down,0.4175795999999536,1.4854656649324174,,experiment,emotion,3.0,,,,1812.61801,1013,22,female,True
714,94.0,25,F,up,0.4699165000001812,1.022575530993189,,experiment,emotion,3.0,,,,1814.3346205,1013,22,female,True
715,99.0,25,F,up,0.3835629999994125,1.8993556958511484,,experiment,emotion,3.0,,,,1816.9844533999983,1013,22,female,True
716,108.0,25,M,up,0.4417542000010144,0.6859813306605406,,experiment,emotion,3.0,,,,1818.3677957,1013,22,female,True
717,99.0,25,M,up,0.3168953000003967,1.5807904067355227,,experiment,emotion,3.0,,,,1820.6510559999988,1013,22,female,True
718,99.0,25,F,up,0.3169113999992987,1.465819037408876,,experiment,emotion,3.0,,,,1822.8009038,1013,22,female,True
719,99.0,25,F,up,0.2835629999990487,1.411050307624863,,experiment,emotion,3.0,,,,1824.900832199999,1013,22,female,True
720,108.0,25,M,up,0.4864420000012615,1.9532849318136325,,experiment,emotion,3.0,,,,1827.5341291999996,1013,22,female,True
721,103.0,25,M,up,0.4167731999987154,0.7783731760476928,,experiment,emotion,3.0,,,,1829.1007455999988,1013,22,female,True
722,94.0,25,M,down,0.4719673999989027,1.835483870179789,,experiment,emotion,3.0,,,,1831.6506393,1013,22,female,True
723,94.0,25,M,down,0.4806740000003628,0.379015910675318,,experiment,emotion,3.0,,,,1832.7838901,1013,22,female,True
724,103.0,25,M,up,0.563046299999769,0.9179302713989912,,experiment,emotion,3.0,,,,1834.450538699999,1013,22,female,True
725,108.0,25,F,up,0.3334948000010627,1.528856667234064,,experiment,emotion,3.0,,,,1836.817124199999,1013,22,female,True
726,108.0,25,F,up,0.4002045000015641,1.915488392364865,,experiment,emotion,3.0,,,,1839.4170055999984,1013,22,female,True
727,94.0,25,M,up,0.2668917999999394,1.6591849956003295,,experiment,emotion,3.0,,,,1841.7669259999984,1013,22,female,True
728,108.0,25,F,up,0.4168258999998215,0.95695062172274,,experiment,emotion,3.0,,,,1843.4168909,1013,22,female,True
729,99.0,25,F,up,0.4168666999994457,0.7882488079906782,,experiment,emotion,3.0,,,,1844.9168206999984,1013,22,female,True
730,103.0,25,F,up,0.3668730999997933,0.7597986583595073,,experiment,emotion,3.0,,,,1846.3667553999985,1013,22,female,True
731,99.0,25,M,up,0.3169825000004493,1.1306237511033934,,experiment,emotion,3.0,,,,1848.1832768999996,1013,22,female,True
732,94.0,25,F,up,0.3502029999999649,1.8670520520175744,,experiment,emotion,3.0,,,,1850.7499539,1013,22,female,True
733,103.0,25,F,up,0.3168588999997155,1.493157677104753,,experiment,emotion,3.0,,,,1852.9331936,1013,22,female,True
