,stimLvl,stimTime,rand,response,rt,precedingITI,trialNumber,trialType,stimuli,block,estIntens,estThres,estSlope,trialStart,subject,age,gender,headRest
0,150.0,100,F,,,1.7799034013350528,,introTrial,emotion,,,,,252.51034400000208,1005,24,female,True
1,0.9,100,down,,,0.358056863087257,,introTrial,cRDM,,,,,256.7937329000015,1005,24,female,True
2,200.0,25,F,,,1.2229840339416989,,tutorial,emotion,,,,,326.17452550000235,1005,24,female,True
3,200.0,25,F,,,1.3457998173827823,,tutorial,emotion,,,,,330.2410091999991,1005,24,female,True
4,200.0,25,M,up,0.5130753000012191,1.0323087548833425,,tutorial,emotion,,,,,333.9741995000004,1005,24,female,True
5,0.0,25,F,down,0.6804703999987396,1.5405537562402851,,tutorial,emotion,,,,,336.3407862999993,1005,24,female,True
6,0.0,25,M,down,0.5682553999977245,1.15554988114824,,tutorial,emotion,,,,,338.4740335000024,1005,24,female,True
7,200.0,25,M,up,0.3835042999999132,1.3712085110016068,,tutorial,emotion,,,,,340.70729610000126,1005,24,female,True
8,0.0,25,M,down,0.4337747000026866,0.3266946835639441,,tutorial,emotion,,,,,341.74056660000133,1005,24,female,True
9,200.0,25,F,up,0.4341108999979042,1.5018823556928862,,tutorial,emotion,,,,,343.9571802999999,1005,24,female,True
10,0.0,25,M,down,0.5308963999996195,1.9030348020437624,,tutorial,emotion,,,,,346.5903861000006,1005,24,female,True
11,0.0,25,F,down,1.0535987999974168,0.4107593755756383,,tutorial,emotion,,,,,347.8236889,1005,24,female,True
12,0.9,25,up,,,0.8255261199820707,,tutorial,cRDM,,,,,353.1901384000012,1005,24,female,True
13,0.9,25,up,,,0.4439993746156774,,tutorial,cRDM,,,,,356.34003089999896,1005,24,female,True
14,0.9,25,down,up,0.6123803000009502,1.3596520781035548,,tutorial,cRDM,,,,,360.38987180000186,1005,24,female,True
15,0.9,25,down,up,0.7354491999976744,0.418625911719529,,tutorial,cRDM,,,,,361.7067812999994,1005,24,female,True
16,0.9,25,up,down,0.3171247000027506,1.7481916732208578,,tutorial,cRDM,,,,,364.4564180000016,1005,24,female,True
17,0.9,25,down,down,0.4519710999993549,1.7157828644604904,,tutorial,cRDM,,,,,366.8563093000012,1005,24,female,True
18,0.9,25,up,,,0.8758442121646686,,tutorial,cRDM,,,,,368.45626040000207,1005,24,female,True
19,0.9,25,up,up,0.5964432999971905,1.01491676773726,,tutorial,cRDM,,,,,372.1727839000014,1005,24,female,True
20,0.9,25,down,down,0.3504729999986011,1.301501827481673,,tutorial,cRDM,,,,,374.3393829000015,1005,24,female,True
21,0.9,25,down,up,0.4639843000004475,1.45713269156326,,tutorial,cRDM,,,,,376.489297600001,1005,24,female,True
22,100.0,25,M,down,0.8085009999995236,1.8496737335692324,,psi_staircase_training,emotion,,100.0,100.0,25.00050000000001,405.9047998999995,1005,24,female,True
23,145.0,25,M,up,0.5747660999986692,0.831006331665699,,psi_staircase_training,emotion,,145.25719053245996,145.25719053245996,25.00050000000028,407.9214820000016,1005,24,female,True
24,121.0,25,F,up,0.6198642999988806,0.7597710953526825,,psi_staircase_training,emotion,,120.36392901436103,120.36392901436103,25.71326925488699,409.6213992000012,1005,24,female,True
25,97.0,25,F,,,0.3362347527472866,,psi_staircase_training,emotion,,102.3887610608496,102.3887610608496,26.14633372628729,410.9380248000016,1005,24,female,True
26,97.0,25,F,down,0.5397072000014305,0.3362347527472866,,psi_staircase_training,emotion,,102.3887610608496,102.3887610608496,26.14633372628729,413.9545741000002,1005,24,female,True
27,113.0,25,M,up,1.0038085999985924,1.7964549326259611,,psi_staircase_training,emotion,,114.01123255420406,114.01123255420406,23.00305641778335,416.65446750000046,1005,24,female,True
28,105.0,25,F,up,0.6235154999994847,0.3601163926009479,,psi_staircase_training,emotion,,104.94359593877375,104.94359593877375,22.15060322358215,418.3877242000017,1005,24,female,True
29,92.0,25,M,up,0.5092513000017789,1.5029559312686271,,psi_staircase_training,emotion,,97.32104229908208,97.32104229908208,23.93307361449055,420.8709884000018,1005,24,female,True
30,74.0,25,F,up,0.5290214999986347,1.9139417913866008,,psi_staircase_training,emotion,,86.47781129474322,86.47781129474322,31.611106717664093,423.6542226999991,1005,24,female,True
31,59.0,25,F,down,0.4001838000003772,0.989417746252112,,psi_staircase_training,emotion,,74.08117666667958,74.08117666667958,36.39663949116184,425.5374890999992,1005,24,female,True
32,64.0,25,M,down,0.66780049999943,0.8300791513289563,,psi_staircase_training,emotion,,80.464425290526,80.464425290526,35.073346092108395,427.1374355000007,1005,24,female,True
33,67.0,25,F,down,0.3835157000030449,1.6164656427838644,,psi_staircase_training,emotion,,85.01824728711593,85.01824728711593,33.73103349266473,429.77066040000136,1005,24,female,True
34,69.0,25,F,down,1.112040899999556,1.847383647785687,,psi_staircase_training,emotion,,88.49920676747618,88.49920676747618,32.50059088075079,432.38721820000137,1005,24,female,True
35,113.0,25,F,down,0.4001499000005424,1.719231051206988,,psi_staircase_training,emotion,,91.24268714815122,91.24268714815122,31.37340943875377,435.5704829000024,1005,24,female,True
36,121.0,25,M,up,0.4578892000026826,1.112075080812022,,psi_staircase_training,emotion,,97.8970588239102,97.8970588239102,34.79085425586797,437.4703646000016,1005,24,female,True
37,73.0,25,M,down,0.6723794999998063,0.5050560432217558,,psi_staircase_training,emotion,,95.61813428367935,95.61813428367935,33.87607429716774,438.786865500002,1005,24,female,True
38,122.0,25,F,up,0.5626741999985825,0.4196040302765489,,psi_staircase_training,emotion,,97.63348304762712,97.63348304762712,33.00641149063264,440.2535955999992,1005,24,female,True
39,72.0,25,F,down,0.5251313999979175,1.979235653186056,,psi_staircase_training,emotion,,95.84795175193756,95.84795175193756,32.024540789199456,443.1701452000016,1005,24,female,True
40,122.0,25,M,up,0.5124821999997948,1.009057714253921,,psi_staircase_training,emotion,,97.4338597673728,97.4338597673728,31.08423191278182,445.0367574000011,1005,24,female,True
41,72.0,25,M,down,0.4496249000003445,1.3431276983066718,,psi_staircase_training,emotion,,95.98595537903982,95.98595537903982,30.063787423638036,447.23669470000095,1005,24,female,True
42,122.0,25,M,down,0.9266418000006524,0.9081437786040684,,psi_staircase_training,emotion,,97.28280798956956,97.28280798956956,29.087967246060025,448.9366341000023,1005,24,female,True
43,129.0,25,M,up,0.4166361999996297,0.8643506994527621,,psi_staircase_training,emotion,,101.96848105416515,101.96848105416515,33.165340575800265,451.0865405000004,1005,24,female,True
44,129.0,25,F,up,0.5104831000026024,1.3683520556594897,,psi_staircase_training,emotion,,100.6877302576734,100.6877302576734,32.291157201445486,453.219778900002,1005,24,female,True
45,73.0,25,F,down,0.5532418000002508,1.4753198068496898,,psi_staircase_training,emotion,,99.60990060222952,99.60990060222952,31.46358622387995,455.553029900002,1005,24,female,True
46,128.0,25,F,up,0.7184205999983533,1.5244767732428168,,psi_staircase_training,emotion,,100.6799533401379,100.6799533401379,30.617956851412444,458.002835700001,1005,24,female,True
47,74.0,25,M,up,0.6007132999984606,1.803574764768222,,psi_staircase_training,emotion,,99.73813875052102,99.73813875052102,29.779587732704417,460.8694990000004,1005,24,female,True
48,67.0,25,M,down,0.6264909999990778,1.710004996435979,,psi_staircase_training,emotion,,95.89420856151536,95.89420856151536,33.24011149826008,463.5527306000004,1005,24,female,True
49,126.0,25,F,up,0.5452645999976085,0.8068645998553654,,psi_staircase_training,emotion,,96.84403515979668,96.84403515979668,32.5127170680271,465.33600339999975,1005,24,female,True
50,67.0,25,F,down,0.4959563000011258,0.6374361757332281,,psi_staircase_training,emotion,,95.9883305769648,95.9883305769648,31.805036472953724,466.86927370000194,1005,24,female,True
51,126.0,25,M,up,0.5598465999973996,1.7742972089189462,,psi_staircase_training,emotion,,96.81452999479356,96.81452999479356,31.074506373332703,469.5024207000024,1005,24,female,True
52,67.0,25,M,down,0.4167917000013403,1.4257392697141833,,psi_staircase_training,emotion,,96.06988861934651,96.06988861934651,30.369878179541928,471.81909670000096,1005,24,female,True
53,0.29,25,up,up,0.6106423000019277,1.8717870663119325,,psi_staircase_training,cRDM,,0.25,0.2569312402994632,0.105,476.9355862000011,1005,24,female,True
54,0.25,25,up,up,0.6277697000004991,1.8169231550749647,,psi_staircase_training,cRDM,,0.2191026665318312,0.2260132002683492,0.1046863203387393,479.6354859999992,1005,24,female,True
55,0.21,25,down,up,0.4424030999980459,1.1260224731589876,,psi_staircase_training,cRDM,,0.1900540959403307,0.1968497961554001,0.1029467298424999,481.6687447000004,1005,24,female,True
56,0.32,25,down,down,0.4419501999982458,1.9000335861626905,,psi_staircase_training,cRDM,,0.2819387795981387,0.2893209636160949,0.1118312579561586,484.2852792000013,1005,24,female,True
57,0.29,25,up,up,0.3338269000014406,1.2315880038541085,,psi_staircase_training,cRDM,,0.259426876942127,0.2667634756990502,0.1111406957765679,486.2352217000007,1005,24,female,True
58,0.27,25,down,down,0.3668756000006397,1.6711278088855803,,psi_staircase_training,cRDM,,0.238671950950526,0.2458822432686334,0.109227304305105,488.6020654000022,1005,24,female,True
59,0.26,25,up,down,0.5438991000009992,1.2651532233950842,,psi_staircase_training,cRDM,,0.2201157802488951,0.2271739015591714,0.1069220955499697,490.5683973000014,1005,24,female,True
60,0.32,25,up,up,0.3672336999989056,1.0781563448190563,,psi_staircase_training,cRDM,,0.2869994654585022,0.2948054563664417,0.1182514254190726,492.4683226000016,1005,24,female,True
61,0.31,25,down,up,0.4002541000008932,0.8378785532060771,,psi_staircase_training,cRDM,,0.2701502140210826,0.2778148284044715,0.1161097401742302,494.0015855999991,1005,24,female,True
62,0.38,25,down,down,0.4003034999986994,0.7163581931357674,,psi_staircase_training,cRDM,,0.3313394524644535,0.3399496754430624,0.1304345793384114,495.418217800001,1005,24,female,True
63,0.36,25,down,down,0.4002717999974265,1.1071354676155776,,psi_staircase_training,cRDM,,0.3166296495450076,0.3252903298415915,0.1311989473531488,497.2348087999999,1005,24,female,True
64,0.35,25,down,down,0.3671978999991552,1.0060776023639877,,psi_staircase_training,cRDM,,0.3025428381838693,0.3111937223532869,0.1310505477438419,498.9347541999996,1005,24,female,True
65,0.34,25,down,up,0.3004966000007698,1.3511856668544815,,psi_staircase_training,cRDM,,0.2896412496015932,0.298219555574762,0.1299510748822926,500.984676,1005,24,female,True
66,0.39,25,down,down,0.3835262000029615,0.8160407087048971,,psi_staircase_training,cRDM,,0.3383780817204784,0.3474052669010024,0.1367510579641003,502.5015698999996,1005,24,female,True
67,0.39,25,up,down,0.3171300000030896,1.421840877167568,,psi_staircase_training,cRDM,,0.3273679962127025,0.3363551456402738,0.1361445641940968,504.63455690000046,1005,24,female,True
68,0.43,25,up,up,0.3170998999994481,0.5282231459600717,,psi_staircase_training,cRDM,,0.3707116340691333,0.3802209654418209,0.1440549960747312,505.8678083000013,1005,24,female,True
69,0.42,25,up,down,0.3504614000012225,1.0472201655265367,,psi_staircase_training,cRDM,,0.3613662212338349,0.3709331744005586,0.1449278973322822,507.6011400999996,1005,24,female,True
70,0.45,25,up,up,0.3835687999999209,0.6983384553875258,,psi_staircase_training,cRDM,,0.3978400136443061,0.4073384017655194,0.143889218904245,508.98464460000105,1005,24,female,True
71,0.45,25,down,up,0.5699658000012278,0.4553196564226398,,psi_staircase_training,cRDM,,0.3903316226672455,0.3999152474385565,0.145180452200681,510.1343383000021,1005,24,female,True
72,0.44,25,up,down,0.3004710999994131,1.463418394879597,,psi_staircase_training,cRDM,,0.4187802566728255,0.4283479294163865,0.1449387980606744,512.4509185999996,1005,24,female,True
73,0.47,25,up,up,0.3671885000003385,1.4987243692321073,,psi_staircase_training,cRDM,,0.440021464994222,0.4486359361592686,0.1304989342816376,514.6341694000002,1005,24,female,True
74,0.48,25,down,up,0.5361602999983006,1.501293832507143,,psi_staircase_training,cRDM,,0.4349933144942322,0.4437980222959696,0.1333807917832576,516.8340902999989,1005,24,female,True
75,0.46,25,up,down,0.4168176999992283,0.4870430675394817,,psi_staircase_training,cRDM,,0.4499968082792864,0.4590460099231239,0.1370845810491531,518.1506888000004,1005,24,female,True
76,0.52,25,down,up,0.2671539000002667,1.12948569255882,,psi_staircase_training,cRDM,,0.463263032717508,0.4710931043999603,0.118616220349648,519.9672977000009,1005,24,female,True
77,0.53,25,down,down,0.3173067999996419,1.8157000012167284,,psi_staircase_training,cRDM,,0.463215922429558,0.4735475723074044,0.1565121378431916,522.4837660000012,1005,24,female,True
78,0.52,25,up,down,0.317127199999959,1.36934011987162,,psi_staircase_training,cRDM,,0.4622033406688003,0.4723784600091533,0.1541408874281569,524.567124600002,1005,24,female,True
79,0.64,25,up,up,0.3671140999977069,0.8244558936549358,,psi_staircase_training,cRDM,,0.4669512038190032,0.4778828663061031,0.1656016111913439,526.1004598,1005,24,female,True
80,0.64,25,down,down,0.4799242000008235,1.8539194274746067,,psi_staircase_training,cRDM,,0.4665600703493394,0.4773919294632672,0.1640897094637575,528.6503121999995,1005,24,female,True
81,0.64,25,up,down,0.4702615999995032,0.513164739662174,,psi_staircase_training,cRDM,,0.4661795560800013,0.4769102670366086,0.1625574358648353,529.9169562000025,1005,24,female,True
82,0.65,25,down,up,0.267182400002639,1.478278637327823,,psi_staircase_training,cRDM,,0.4698532371682703,0.4816013014762513,0.1779691222700118,532.1335356000018,1005,24,female,True
83,100.0,25,M,up,0.7279424000007566,0.5021756233381918,,psi_staircase,emotion,,100.0,100.0,25.00050000000001,538.5332921000008,1005,24,female,True
84,55.0,25,M,down,0.4710436999994272,0.5792873598032257,,psi_staircase,emotion,,54.7428094675419,54.7428094675419,25.00050000000011,540.1832288000005,1005,24,female,True
85,79.0,25,F,up,0.3171136000019032,0.9662641720450847,,psi_staircase,emotion,,79.636070985635,79.636070985635,25.713269254886413,541.9831564000015,1005,24,female,True
86,63.0,25,F,down,0.399873900001694,1.3311306157351794,,psi_staircase,emotion,,62.16401670338348,62.16401670338348,25.292325986283885,544.1000237000007,1005,24,female,True
87,73.0,25,M,down,0.5582356999984768,1.455643521827252,,psi_staircase,emotion,,73.53930944190891,73.53930944190891,23.64975108561003,546.3330076999991,1005,24,female,True
88,87.0,25,F,down,0.6192829999999958,1.0724084803221456,,psi_staircase,emotion,,82.48355301883353,82.48355301883353,24.57617413513036,548.3329210000011,1005,24,female,True
89,106.0,25,M,up,0.4933769000017491,1.6792652238171892,,psi_staircase,emotion,,93.47321971198342,93.47321971198342,30.11570117720217,550.982807700002,1005,24,female,True
90,102.0,25,F,down,0.3502019000006839,0.8525673616404414,,psi_staircase,emotion,,87.30823528954795,87.30823528954795,27.7273534307992,552.682744400001,1005,24,female,True
91,115.0,25,F,down,0.5501733999990392,1.1532426087948833,,psi_staircase,emotion,,96.94048552886352,96.94048552886352,32.816556691568714,554.6160273999994,1005,24,female,True
92,125.0,25,M,up,0.4962764000010793,0.4551668665161411,,psi_staircase,emotion,,106.8358341678157,106.8358341678157,36.64217710706146,555.965968200002,1005,24,female,True
93,123.0,25,F,up,0.2835262999979022,1.9070787961200475,,psi_staircase,emotion,,102.46438011663628,102.46438011663628,35.49191748916601,558.7325463000016,1005,24,female,True
94,121.0,25,F,up,0.3501895000008517,0.3157474810487217,,psi_staircase,emotion,,99.14991772446528,99.14991772446528,34.43458981182454,559.815843700002,1005,24,female,True
95,75.0,25,F,down,0.5354372000001604,1.371122534211178,,psi_staircase,emotion,,96.48655220354998,96.48655220354998,33.46154115008315,561.9657766000018,1005,24,female,True
96,122.0,25,M,up,0.4489504000011948,1.633479789611939,,psi_staircase,emotion,,98.85404018933976,98.85404018933976,32.48194682476375,564.4823295000024,1005,24,female,True
97,74.0,25,M,down,0.6073108999989927,1.866781134502352,,psi_staircase,emotion,,96.83283723374848,96.83283723374848,31.42568852144357,567.148905099999,1005,24,female,True
98,123.0,25,F,up,0.3334892000020772,1.8518088060805769,,psi_staircase,emotion,,98.64635810782804,98.64635810782804,30.3641713063669,569.9487845000003,1005,24,female,True
99,75.0,25,F,down,0.3669867999997223,1.99031967025833,,psi_staircase,emotion,,97.10489005924038,97.10489005924038,29.26836423376755,572.6985430999994,1005,24,female,True
100,122.0,25,M,down,0.5536381999991136,1.0840493988258737,,psi_staircase,emotion,,98.60198666770869,98.60198666770869,28.167375879907844,574.5486191999989,1005,24,female,True
101,130.0,25,M,down,0.4168134999999893,1.0976968948002803,,psi_staircase,emotion,,103.52040492178551,103.52040492178551,32.45361784594579,576.548550800002,1005,24,female,True
102,136.0,25,M,up,0.5047990000020945,1.874115063782881,,psi_staircase,emotion,,108.58724960442548,108.58724960442548,35.99826745773786,579.1984522999992,1005,24,female,True
103,135.0,25,M,up,0.5195463999989443,1.8452028993205711,,psi_staircase,emotion,,107.08605371266924,107.08605371266924,35.2191168974122,581.9316889000002,1005,24,female,True
104,79.0,25,F,down,0.4729359999982989,1.135347477618998,,psi_staircase,emotion,,105.77059811702928,105.77059811702928,34.466579337667,583.9482716999992,1005,24,female,True
105,136.0,25,F,down,1.187095599998429,1.784096443343266,,psi_staircase,emotion,,106.99911933135311,106.99911933135311,33.73766233935724,586.5481789000005,1005,24,female,True
106,141.0,25,F,up,1.073116100000334,0.7206905923803859,,psi_staircase,emotion,,111.33697565318975,111.33697565318975,36.84440261527114,588.8480874000015,1005,24,female,True
107,140.0,25,M,up,0.8156400000007125,1.803064032603724,,psi_staircase,emotion,,110.13868412350686,110.13868412350686,36.197335817137,592.0815632000013,1005,24,female,True
108,80.0,25,M,down,1.0949923999978637,0.4612072826427533,,psi_staircase,emotion,,109.05727853951296,109.05727853951296,35.565418046943954,593.7312426999997,1005,24,female,True
109,141.0,25,F,up,0.4001664000024902,1.346470804501,,psi_staircase,emotion,,110.08951041100612,110.08951041100612,34.93110407726127,596.5144842000009,1005,24,female,True
110,80.0,25,F,down,0.5335158000016236,0.96826354435226,,psi_staircase,emotion,,109.16977250574853,109.16977250574853,34.27443154658036,598.2477594000011,1005,24,female,True
111,141.0,25,M,up,0.5449607999980799,0.4498277678754272,,psi_staircase,emotion,,110.08174697191372,110.08174697191372,33.61017608234744,599.5812866000015,1005,24,female,True
112,80.0,25,M,down,0.4810431999976572,1.7100605016570714,,psi_staircase,emotion,,109.27549994252684,109.27549994252684,32.937067906323264,602.1812017000011,1005,24,female,True
113,141.0,25,F,up,0.7087040999977035,0.7431853511055292,,psi_staircase,emotion,,110.08183843237629,110.08183843237629,32.256000144566194,603.7475288999995,1005,24,female,True
114,80.0,25,M,down,0.4537730000010924,1.895123210363474,,psi_staircase,emotion,,109.37628467090028,109.37628467090028,31.580363666691984,606.6974231999993,1005,24,female,True
115,141.0,25,F,down,0.6188714999989315,1.2373047082065023,,psi_staircase,emotion,,110.08991187904816,110.08991187904816,30.897265687469027,608.7473676000009,1005,24,female,True
116,146.0,25,M,down,0.5716181999996479,1.6810002849254817,,psi_staircase,emotion,,113.20890937472964,113.20890937472964,34.254475304168054,611.4305935000011,1005,24,female,True
117,149.0,25,F,up,0.4694786000000022,1.6108382134430848,,psi_staircase,emotion,,116.40052124228784,116.40052124228784,37.07734878284276,613.9807622000008,1005,24,female,True
118,149.0,25,M,,,1.0518071378705167,,psi_staircase,emotion,,115.62827413505326,115.62827413505326,36.5525706686488,615.8471100999996,1005,24,female,True
119,149.0,25,F,up,0.6910692999990715,1.0518071378705167,,psi_staircase,emotion,,115.62827413505326,115.62827413505326,36.5525706686488,619.5801739000017,1005,24,female,True
120,83.0,25,F,down,0.4507201000014902,1.5372545107108897,,psi_staircase,emotion,,114.92843603558124,114.92843603558124,36.03892651631148,622.1635031000005,1005,24,female,True
121,149.0,25,M,up,0.8951787999976659,0.5241400940772288,,psi_staircase,emotion,,115.61843549508568,115.61843549508568,35.525816895174685,623.4800703000001,1005,24,female,True
122,83.0,25,M,down,0.5698772000032477,0.7618008916162664,,psi_staircase,emotion,,114.98432008028864,114.98432008028864,34.99828620920902,625.4803599000006,1005,24,female,True
123,149.0,25,F,up,0.3836698999984946,0.5066699180611273,,psi_staircase,emotion,,115.613733728095,115.613733728095,34.46990469762986,626.8798970000025,1005,24,female,True
124,83.0,25,F,down,0.3668188999981794,0.4070702387976391,,psi_staircase,emotion,,115.0401101972038,115.0401101972038,33.935883651778454,628.0466388000023,1005,24,female,True
125,149.0,25,F,up,0.5914090000005672,0.9761729900916364,,psi_staircase,emotion,,115.61441006182892,115.61441006182892,33.399972388881885,629.7797664999998,1005,24,female,True
126,83.0,25,M,down,0.4970652000010886,1.7532676003482233,,psi_staircase,emotion,,115.09624425724364,115.09624425724364,32.86740549702873,632.4631360000021,1005,24,female,True
127,149.0,25,M,down,0.6691682999990007,1.6122721028977292,,psi_staircase,emotion,,115.62055387441184,115.62055387441184,32.332139642853534,634.9130532000017,1005,24,female,True
128,153.0,25,F,up,0.456619699998555,0.4531362275565598,,psi_staircase,emotion,,118.11222541079708,118.11222541079708,35.12025593179774,636.4296565000004,1005,24,female,True
129,84.0,25,F,down,0.6225672000000486,0.8858943596776307,,psi_staircase,emotion,,117.6023231208783,117.6023231208783,34.63389958974815,638.12961,1005,24,female,True
130,153.0,25,F,up,0.4480960000000777,1.3051607551247992,,psi_staircase,emotion,,118.10188025637042,118.10188025637042,34.15639361464537,640.3961903000018,1005,24,female,True
131,84.0,25,M,down,0.5074322000000393,1.5784722124696575,,psi_staircase,emotion,,117.63624490494992,117.63624490494992,33.671226871582995,642.7627630999996,1005,24,female,True
132,152.0,25,M,up,0.4815037999978813,1.0420003040445749,,psi_staircase,emotion,,118.0969586877365,118.0969586877365,33.19326571471976,644.6626993999998,1005,24,female,True
133,85.0,25,M,down,0.6446980000000622,1.7527739312323618,,psi_staircase,emotion,,117.65648084917768,117.65648084917768,32.7095110676247,647.2626106000025,1005,24,female,True
134,0.29,25,up,up,0.6252024999994319,1.2289414291642915,,psi_staircase,cRDM,,0.25,0.2569312402994632,0.105,654.2789866000021,1005,24,female,True
135,0.25,25,up,up,0.4663000000000465,0.5942682708028432,,psi_staircase,cRDM,,0.2191026665318312,0.2260132002683492,0.1046863203387393,655.7789675000022,1005,24,female,True
136,0.21,25,down,up,0.4480101999979524,1.111704534250029,,psi_staircase,cRDM,,0.1900540959403307,0.1968497961554001,0.1029467298424999,657.6122228999993,1005,24,female,True
137,0.32,25,down,up,0.6317495000002964,1.1166628888984056,,psi_staircase,cRDM,,0.2819387795981387,0.2893209636160949,0.1118312579561586,659.4454800999993,1005,24,female,True
138,0.41,25,up,up,0.6550637000000279,0.6752614479754347,,psi_staircase,cRDM,,0.3628077164667926,0.3703536552616306,0.1143119469569305,661.0121151999992,1005,24,female,True
139,0.39,25,down,down,0.5275557000022673,1.7298481675289372,,psi_staircase,cRDM,,0.3475534898441171,0.3552111072502436,0.116003744337869,663.6786317000006,1005,24,female,True
140,0.37,25,up,up,0.5888851000017894,1.2838838103533456,,psi_staircase,cRDM,,0.3321628282947061,0.3398871344235409,0.1170139987197468,665.745262299999,1005,24,female,True
141,0.36,25,up,down,0.3671270999984699,1.613695653102359,,psi_staircase,cRDM,,0.3165238490976816,0.3243181043171169,0.1180736437754264,668.2118203999999,1005,24,female,True
142,0.41,25,down,down,0.470121399997879,0.749209636664802,,psi_staircase,cRDM,,0.3714353000240395,0.3791155026409027,0.1163458832660986,669.6451042000008,1005,24,female,True
143,0.41,25,down,down,0.541809700000158,0.4512009355454242,,psi_staircase,cRDM,,0.3609133655943167,0.3685129020620679,0.115123887592769,670.828383,1005,24,female,True
144,0.4,25,down,down,0.383850899997924,0.5544773616135816,,psi_staircase,cRDM,,0.3517908874644582,0.359206263147988,0.1123340719886633,672.1949626999995,1005,24,female,True
145,0.39,25,down,down,0.3672996000022976,0.8248344898271207,,psi_staircase,cRDM,,0.3433422806502563,0.3505516063575317,0.109212661307175,673.6948187000016,1005,24,female,True
146,0.35,25,down,up,0.4168590000008407,1.547415201992198,,psi_staircase,cRDM,,0.3351615115700865,0.3422020824563302,0.1066562276181424,675.9282024000022,1005,24,female,True
147,0.4,25,down,down,0.3505245000014838,1.7392537439035831,,psi_staircase,cRDM,,0.3675320078469122,0.3731544284185725,0.0851729466182326,678.3614393999997,1005,24,female,True
148,0.4,25,up,up,0.3338253000001714,1.1539329492234922,,psi_staircase,cRDM,,0.3626398665415373,0.3678615119827058,0.0791016827630613,680.2114136000018,1005,24,female,True
149,0.39,25,up,down,0.4869152000028407,1.370135354748617,,psi_staircase,cRDM,,0.3589064541003499,0.3637214499633505,0.0729414280520919,682.2612953999997,1005,24,female,True
150,0.42,25,up,down,0.3504864999995334,1.4774002680956395,,psi_staircase,cRDM,,0.3799679425511756,0.3866216176110287,0.1007952186189066,684.4945509999998,1005,24,female,True
151,0.43,25,up,up,0.4970979999998235,1.5280123653038342,,psi_staircase,cRDM,,0.4050574085342821,0.4139900766899868,0.1353192380909977,686.7111468000003,1005,24,female,True
152,0.43,25,down,down,0.3671713000003365,1.5972233441815156,,psi_staircase,cRDM,,0.3982189835691851,0.4071491815322625,0.1352818176273212,689.0776903000005,1005,24,female,True
153,0.43,25,up,up,0.4758598000007623,1.533719659293688,,psi_staircase,cRDM,,0.3918001160811418,0.4006420093844469,0.133944107653997,691.2943288999995,1005,24,female,True
154,0.42,25,up,up,0.5657762000009825,1.2554580324526123,,psi_staircase,cRDM,,0.3858531411191824,0.3945368155918219,0.1315472816167913,693.2774472000019,1005,24,female,True
155,0.42,25,down,up,0.5634404999982507,1.5713281287030332,,psi_staircase,cRDM,,0.380049109607115,0.3885475694162742,0.1287415010024707,695.6777435000004,1005,24,female,True
156,0.45,25,up,down,0.3839664000006451,0.902430710630661,,psi_staircase,cRDM,,0.4023384060282576,0.411845971541198,0.1440282454117262,697.3941071000008,1005,24,female,True
157,0.45,25,down,up,0.5028295000010985,0.4946222615791418,,psi_staircase,cRDM,,0.4224659336616387,0.432302206504407,0.1490077682879705,698.5773945000001,1005,24,female,True
158,0.45,25,down,up,0.5738873999980569,1.3965196692864927,,psi_staircase,cRDM,,0.4387083220358408,0.4482301918490968,0.1442449384519671,700.7272986999997,1005,24,female,True
159,0.52,25,up,up,0.4168084999982966,0.8795361039597873,,psi_staircase,cRDM,,0.4515384327634405,0.4603775571349224,0.1339021616488287,702.4438661000022,1005,24,female,True
160,0.52,25,up,up,0.4002873999997973,1.1967226100823367,,psi_staircase,cRDM,,0.4505721025587984,0.4591350833433782,0.1297189166058067,704.3271547000004,1005,24,female,True
161,0.45,25,down,up,0.3838445000001229,0.6284107272554036,,psi_staircase,cRDM,,0.4497421664219564,0.4580117045041885,0.1252736106554549,705.6270681000024,1005,24,female,True
162,0.52,25,up,down,0.5233690999993996,0.8883103111874797,,psi_staircase,cRDM,,0.4611402109543367,0.4682090360926949,0.1070842457424372,707.1937696999994,1005,24,female,True
163,0.52,25,down,up,0.400278299999627,0.9638817972804417,,psi_staircase,cRDM,,0.4614727373979446,0.4712245090345873,0.1477276760880415,708.9602890000024,1005,24,female,True
164,0.64,25,down,up,0.4819562999982736,0.5643523413673843,,psi_staircase,cRDM,,0.4664932449730771,0.4770306834832443,0.1596295894766812,710.2102726000012,1005,24,female,True
165,0.64,25,down,up,0.3838042999996105,1.0883704201090028,,psi_staircase,cRDM,,0.4703765856586886,0.482005395262088,0.1761625561375341,712.0435400999995,1005,24,female,True
166,0.65,25,up,up,0.4667344000008597,1.3298478415455754,,psi_staircase,cRDM,,0.474035922769304,0.4863871121760951,0.1871057461120607,714.0434604000002,1005,24,female,True
167,0.65,25,up,up,0.4711210000023129,0.9392866616302398,,psi_staircase,cRDM,,0.4736431440846719,0.4859426659251565,0.186323044282694,715.710062099999,1005,24,female,True
168,0.65,25,up,up,0.4467828999986523,1.1412123758583792,,psi_staircase,cRDM,,0.4732508104457319,0.4854962910312825,0.1855043839098147,717.5933635000001,1005,24,female,True
169,0.65,25,down,down,0.4236350999999558,1.1715012420823652,,psi_staircase,cRDM,,0.4728595134034696,0.485048551698117,0.1846493507139087,719.4765364000014,1005,24,female,True
170,0.65,25,down,up,0.6033334999992803,1.2452201294907663,,psi_staircase,cRDM,,0.4724698666331859,0.4846000429026046,0.1837576614372467,721.4098689999992,1005,24,female,True
171,0.64,25,up,up,0.7733722000011767,0.83096730071366,,psi_staircase,cRDM,,0.4758249768808,0.4884860189302636,0.1917996430302117,723.1098091999993,1005,24,female,True
172,0.64,25,down,down,0.5212231000004977,1.3871224596800922,,psi_staircase,cRDM,,0.4754196213848719,0.4880449902948282,0.1912592376357329,725.5430129000015,1005,24,female,True
173,0.65,25,up,up,0.416804399999819,0.4813949592684673,,psi_staircase,cRDM,,0.4750113855505669,0.4875991199628539,0.1906891200111005,726.8096525000001,1005,24,female,True
174,0.65,25,up,down,0.4199162999975669,1.5453497528246625,,psi_staircase,cRDM,,0.474626260434836,0.487175137723719,0.1901004810689872,729.0262385999995,1005,24,female,True
175,0.64,25,up,down,0.4706783000001451,0.6385658946373451,,psi_staircase,cRDM,,0.4777757075716524,0.490657765465204,0.1951477687085325,730.3594972999999,1005,24,female,True
176,0.63,25,down,up,0.5298418999991554,1.2893428005650822,,psi_staircase,cRDM,,0.4805348367662345,0.4935768604281733,0.1975710587626889,732.376372499999,1005,24,female,True
177,0.61,25,down,up,0.6144902999985788,0.7556247914421168,,psi_staircase,cRDM,,0.4828594396727942,0.4959779418952494,0.1987296174776208,733.9427250000008,1005,24,female,True
178,0.6,25,up,down,0.4320041999999375,1.9503071730780568,,psi_staircase,cRDM,,0.4847697582052976,0.4979230665299253,0.1992568882935506,736.7592697,1005,24,female,True
179,0.59,25,down,down,0.9370086999988416,1.0029693090535974,,psi_staircase,cRDM,,0.4863606129253531,0.4995324892434709,0.1995381711855332,738.4592018000003,1005,24,female,True
180,0.59,25,down,down,0.7354118000002927,1.1062321789425027,,psi_staircase,cRDM,,0.4860901866546785,0.4992599629424916,0.1995063582382871,740.7757621000019,1005,24,female,True
181,0.59,25,up,up,0.7220768000006501,0.7342534242388234,,psi_staircase,cRDM,,0.4858130836160955,0.4989806203441212,0.1994724315862718,742.5090727999996,1005,24,female,True
182,0.59,25,up,up,0.682267200001661,1.7850996897459404,,psi_staircase,cRDM,,0.4855291323024994,0.498694281218459,0.1994362590895616,745.2759102000018,1005,24,female,True
183,0.59,25,down,down,0.5616717000011704,1.155616377901717,,psi_staircase,cRDM,,0.4852381587748783,0.4984007624179267,0.199397701249386,747.3754948000023,1005,24,female,True
184,130.0,25,F,up,1.1071620999973677,1.4707628418929355,,experiment,emotion,0.0,,,,753.4920050000001,1005,24,female,True
185,105.0,25,M,down,0.9979721999989124,1.0493539458131975,,experiment,emotion,0.0,,,,755.9252412000023,1005,24,female,True
186,122.0,25,F,up,0.4393071000013151,1.1276945964213565,,experiment,emotion,0.0,,,,758.3418181000015,1005,24,female,True
187,130.0,25,M,up,0.5351038000007975,1.63573095955709,,experiment,emotion,0.0,,,,760.6750544999995,1005,24,female,True
188,122.0,25,F,up,0.4685399000009056,0.4163548146537927,,experiment,emotion,0.0,,,,761.8916926999991,1005,24,female,True
189,113.0,25,F,up,0.3335116000016569,0.6535613035622938,,experiment,emotion,0.0,,,,763.2916498000013,1005,24,female,True
190,105.0,25,M,down,0.6429950000019744,0.9858988085324004,,experiment,emotion,0.0,,,,764.9582169999994,1005,24,female,True
191,113.0,25,F,down,0.4279893999992055,0.7927555027099153,,experiment,emotion,0.0,,,,766.6581642000019,1005,24,female,True
192,130.0,25,M,up,0.5651118999994651,1.95486159770522,,experiment,emotion,0.0,,,,769.3080752999995,1005,24,female,True
193,113.0,25,M,up,0.4002001999979256,1.1047903652695747,,experiment,emotion,0.0,,,,771.2579858999998,1005,24,female,True
194,122.0,25,F,up,0.3832470999986981,0.8258717861902938,,experiment,emotion,0.0,,,,772.7748816999992,1005,24,female,True
195,130.0,25,M,up,0.4803051999988383,1.4964675028089578,,experiment,emotion,0.0,,,,774.9578705999993,1005,24,female,True
196,122.0,25,M,up,0.3502411999979813,1.2433464893072337,,experiment,emotion,0.0,,,,776.9578072000004,1005,24,female,True
197,105.0,25,M,up,0.7347593000013148,0.7749363847809798,,experiment,emotion,0.0,,,,778.424407999999,1005,24,female,True
198,113.0,25,F,down,1.2821925000025658,1.0715074145109849,,experiment,emotion,0.0,,,,780.4909941000005,1005,24,female,True
199,105.0,25,F,up,0.6345418999990216,1.646497190233355,,experiment,emotion,0.0,,,,783.6906567000005,1005,24,female,True
200,130.0,25,M,up,0.7233947999993688,1.6318966512296167,,experiment,emotion,0.0,,,,786.2407750999992,1005,24,female,True
201,105.0,25,M,up,0.6044992000024649,0.8177252915945512,,experiment,emotion,0.0,,,,788.0407030000024,1005,24,female,True
202,122.0,25,F,up,0.9091957999989972,1.5551271894657075,,experiment,emotion,0.0,,,,790.4739520000003,1005,24,female,True
203,122.0,25,F,up,0.5627571999975771,0.4247552664521519,,experiment,emotion,0.0,,,,792.0744173000021,1005,24,female,True
204,113.0,25,M,down,0.2835109000006923,0.5159691425188575,,experiment,emotion,0.0,,,,793.423866699999,1005,24,female,True
205,113.0,25,F,,,0.8529955979811163,,experiment,emotion,0.0,,,,794.9571075000022,1005,24,female,True
206,105.0,25,M,up,0.5065680000006978,1.3710554034173936,,experiment,emotion,0.0,,,,799.023627300001,1005,24,female,True
207,130.0,25,F,up,0.791244200001529,1.4954609439167144,,experiment,emotion,0.0,,,,801.306919300001,1005,24,female,True
208,122.0,25,F,down,0.5621620000019902,0.8239515223754845,,experiment,emotion,0.0,,,,803.1900086999995,1005,24,female,True
209,105.0,25,M,down,0.8787245999992592,0.7446833643916817,,experiment,emotion,0.0,,,,804.7734292999994,1005,24,female,True
210,130.0,25,M,up,0.6801866000023438,1.0130656554814443,,experiment,emotion,0.0,,,,806.9400110999995,1005,24,female,True
211,130.0,25,F,up,0.7488688000012189,0.7221209412121901,,experiment,emotion,0.0,,,,808.6232796000004,1005,24,female,True
212,113.0,25,M,up,0.6229529999982333,1.9216541260030768,,experiment,emotion,0.0,,,,811.5731637999997,1005,24,female,True
213,105.0,25,F,down,1.0077190999982122,0.7816801905923547,,experiment,emotion,0.0,,,,813.2564567000009,1005,24,female,True
214,113.0,25,M,down,0.93645319999996,0.7548503793414112,,experiment,emotion,0.0,,,,815.289712400001,1005,24,female,True
215,122.0,25,F,up,0.7938331000004837,0.6555325382942049,,experiment,emotion,0.0,,,,817.1563124999993,1005,24,female,True
216,105.0,25,M,down,0.6379111999995075,0.4924976565309806,,experiment,emotion,0.0,,,,818.7062532999989,1005,24,female,True
217,130.0,25,F,up,0.514358500000526,0.6153135573016486,,experiment,emotion,0.0,,,,820.2228595000015,1005,24,female,True
218,122.0,25,M,up,0.6154117000005499,1.1266679697368764,,experiment,emotion,0.0,,,,822.1227662999991,1005,24,female,True
219,130.0,25,F,up,0.6123953999995138,1.3614387177837426,,experiment,emotion,0.0,,,,824.3727123999997,1005,24,female,True
220,105.0,25,M,down,0.6782153000021935,0.7275680531201233,,experiment,emotion,0.0,,,,826.005984200001,1005,24,female,True
221,122.0,25,F,down,0.8172631000015826,1.0953821951828946,,experiment,emotion,0.0,,,,828.0558960000017,1005,24,female,True
222,113.0,25,M,down,0.8073728000017582,0.5821271516390092,,experiment,emotion,0.0,,,,829.7558370000006,1005,24,female,True
223,113.0,25,F,down,1.1317794999995383,1.9992700757808568,,experiment,emotion,0.0,,,,832.8223916999996,1005,24,female,True
224,122.0,25,F,down,1.422188399999868,1.0205052219648303,,experiment,emotion,0.0,,,,835.2389705000023,1005,24,female,True
225,130.0,25,M,down,1.4126049999977113,0.978415605653222,,experiment,emotion,0.0,,,,837.9055461999997,1005,24,female,True
226,113.0,25,F,down,1.1257325000005949,0.4198139058881484,,experiment,emotion,0.0,,,,840.0054593999994,1005,24,female,True
227,105.0,25,M,down,0.6641169999966223,0.7962747970512554,,experiment,emotion,0.0,,,,842.2220386000008,1005,24,female,True
228,105.0,25,M,down,0.6916870999993989,1.6164181076649522,,experiment,emotion,0.0,,,,844.7884718999994,1005,24,female,True
229,113.0,25,F,up,0.8149869000008039,0.8516783485174928,,experiment,emotion,0.0,,,,846.605223999999,1005,24,female,True
230,130.0,25,F,up,0.6193657000003441,1.239560956664556,,experiment,emotion,0.0,,,,848.921789,1005,24,female,True
231,122.0,25,M,up,0.8825920999988739,1.4497059496421858,,experiment,emotion,0.0,,,,851.2715857000003,1005,24,female,True
232,105.0,25,F,down,0.6128649999991467,1.8693331462694385,,experiment,emotion,0.0,,,,854.2882881000005,1005,24,female,True
233,130.0,25,M,up,0.6546077999992121,0.3056119916097723,,experiment,emotion,0.0,,,,855.4715324999997,1005,24,female,True
234,122.0,25,M,up,0.7836881000002904,1.9341222731890908,,experiment,emotion,0.0,,,,858.3214649000001,1005,24,female,True
235,122.0,25,M,up,0.6758005999981833,1.1035294653792218,,experiment,emotion,0.0,,,,860.4713584000019,1005,24,female,True
236,105.0,25,M,down,0.7758786999984295,1.511069073049644,,experiment,emotion,0.0,,,,862.9212795999993,1005,24,female,True
237,113.0,25,M,down,1.045945000001666,1.7350057115451387,,experiment,emotion,0.0,,,,865.7211919000001,1005,24,female,True
238,130.0,25,F,up,0.9280787999996392,0.777293437959401,,experiment,emotion,0.0,,,,867.8210838000014,1005,24,female,True
239,113.0,25,F,down,0.884842799998296,1.479532077450116,,experiment,emotion,0.0,,,,870.5043326000014,1005,24,female,True
240,113.0,25,F,down,0.8495709000017087,0.4818529682847062,,experiment,emotion,0.0,,,,872.1375976000018,1005,24,female,True
241,113.0,25,M,up,0.8809376999997767,0.4423617187242679,,experiment,emotion,0.0,,,,873.7042116000011,1005,24,female,True
242,130.0,25,F,up,1.0956675999987056,0.7158512547709266,,experiment,emotion,0.0,,,,875.5874764,1005,24,female,True
243,122.0,25,F,up,0.7090505000014673,0.3547480838413978,,experiment,emotion,0.0,,,,877.3040951000003,1005,24,female,True
244,105.0,25,F,down,0.6627879000006942,0.5104501136322109,,experiment,emotion,0.0,,,,878.7873679000004,1005,24,female,True
245,105.0,25,M,down,0.5092518000019481,1.473716000665163,,experiment,emotion,0.0,,,,881.2039377000001,1005,24,female,True
246,122.0,25,F,down,0.4403153999992355,1.6755819030834098,,experiment,emotion,0.0,,,,883.6538610999996,1005,24,female,True
247,130.0,25,M,down,0.6490187999988848,1.8791105378293955,,experiment,emotion,0.0,,,,886.2370785999992,1005,24,female,True
248,130.0,25,M,up,1.0572132999986934,1.9250871784198391,,experiment,emotion,0.0,,,,889.0870073000006,1005,24,female,True
249,105.0,25,F,down,0.7759211999982654,0.9000338773764596,,experiment,emotion,0.0,,,,891.3202287999993,1005,24,female,True
250,130.0,25,M,down,2.303024799999548,1.5543819039888371,,experiment,emotion,0.0,,,,893.9201312000005,1005,24,female,True
251,113.0,25,F,down,0.7481870000010531,1.7546658410667373,,experiment,emotion,0.0,,,,898.2700054000015,1005,24,female,True
252,122.0,25,M,down,0.8512161999969976,1.9910766264157531,,experiment,emotion,0.0,,,,901.3198541999992,1005,24,female,True
253,113.0,25,F,down,0.7417042999986734,1.2377657008635952,,experiment,emotion,0.0,,,,903.686444400002,1005,24,female,True
254,105.0,25,M,down,0.7534253999983775,0.5916309605345182,,experiment,emotion,0.0,,,,905.3197056999998,1005,24,female,True
255,122.0,25,F,down,0.8486402000016824,0.724063166662963,,experiment,emotion,0.0,,,,907.0695416000016,1005,24,female,True
256,113.0,25,F,down,0.8127996000002895,1.393887660572582,,experiment,emotion,0.0,,,,909.5693537000006,1005,24,female,True
257,122.0,25,F,down,2.134999600002629,1.9249621173939893,,experiment,emotion,0.0,,,,912.5861422000016,1005,24,female,True
258,105.0,25,F,down,0.7361494999968272,0.7020619368041681,,experiment,emotion,0.0,,,,915.685994200001,1005,24,female,True
259,130.0,25,F,up,0.6445736999994551,1.071183292380019,,experiment,emotion,0.0,,,,917.8025884000016,1005,24,female,True
260,122.0,25,M,up,0.6514965999995184,1.3761918767627144,,experiment,emotion,0.0,,,,920.085708300001,1005,24,female,True
261,130.0,25,M,up,0.5793260999998893,0.5333224487828686,,experiment,emotion,0.0,,,,921.5357898000002,1005,24,female,True
262,105.0,25,M,up,0.9618183000020508,1.9098306107493144,,experiment,emotion,0.0,,,,924.3023434999996,1005,24,female,True
263,113.0,25,M,up,0.812564799998654,1.3045934261545264,,experiment,emotion,0.0,,,,926.8355914000022,1005,24,female,True
264,0.4849399868747158,25,up,up,0.719628200000443,0.4780172885104524,,experiment,cRDM,0.0,,,,938.1185012000024,1005,24,female,True
265,0.4849399868747158,25,up,up,0.6003870999993524,1.0614975386921237,,experiment,cRDM,0.0,,,,940.1517519000008,1005,24,female,True
266,0.4849399868747158,25,down,down,0.5750832000012451,1.97771495274466,,experiment,cRDM,0.0,,,,942.9850349000008,1005,24,female,True
267,0.4849399868747158,25,down,up,0.4552255999988119,1.656952048050667,,experiment,cRDM,0.0,,,,945.4849122000014,1005,24,female,True
268,0.4849399868747158,25,up,up,0.5033981999986281,1.4274386989708123,,experiment,cRDM,0.0,,,,947.6348013999996,1005,24,female,True
269,0.4849399868747158,25,down,down,0.6461500999976124,0.3813191123733442,,experiment,cRDM,0.0,,,,948.7679578000024,1005,24,female,True
270,0.4849399868747158,25,up,up,0.5176883999993152,0.4721448785882968,,experiment,cRDM,0.0,,,,950.1513890000024,1005,24,female,True
271,0.4849399868747158,25,up,down,0.9015005000001112,0.3413051347048977,,experiment,cRDM,0.0,,,,951.284636700002,1005,24,female,True
272,0.4849399868747158,25,down,up,0.6212307999994664,1.1817375182931715,,experiment,cRDM,0.0,,,,953.617925999999,1005,24,female,True
273,0.4849399868747158,25,down,up,0.8103114000005007,1.8127367696258485,,experiment,cRDM,0.0,,,,956.3178133,1005,24,female,True
274,0.4849399868747158,25,down,up,0.5374004000004788,0.4216904440359786,,experiment,cRDM,0.0,,,,957.8177655,1005,24,female,True
275,0.4849399868747158,25,down,up,0.7861327999999048,0.8739776758343414,,experiment,cRDM,0.0,,,,959.5010330000003,1005,24,female,True
276,0.4849399868747158,25,down,down,1.0999120000014957,1.9819957677676587,,experiment,cRDM,0.0,,,,962.5342530000016,1005,24,female,True
277,0.4849399868747158,25,down,down,0.598957900001551,0.9967250679112394,,experiment,cRDM,0.0,,,,964.8842127999995,1005,24,female,True
278,0.4849399868747158,25,up,up,0.5783484000021417,0.9535445484341378,,experiment,cRDM,0.0,,,,966.7007807000008,1005,24,female,True
279,0.4849399868747158,25,up,down,0.6221656000016083,1.6921350737353424,,experiment,cRDM,0.0,,,,969.2339917999998,1005,24,female,True
280,0.4849399868747158,25,up,up,0.5550311000006332,0.8636098689079743,,experiment,cRDM,0.0,,,,970.9671055,1005,24,female,True
281,0.4849399868747158,25,up,up,0.6245739999976649,0.8106886554664416,,experiment,cRDM,0.0,,,,972.600553100001,1005,24,female,True
282,0.4849399868747158,25,down,down,0.6020096000029298,0.3738590048559113,,experiment,cRDM,0.0,,,,973.8671231000008,1005,24,female,True
283,0.4849399868747158,25,up,up,0.5753590999993321,1.6414937030437151,,experiment,cRDM,0.0,,,,976.3837683999992,1005,24,female,True
284,0.4849399868747158,25,up,down,0.5428054000003613,1.8826874932950195,,experiment,cRDM,0.0,,,,979.1003376000008,1005,24,female,True
285,0.4849399868747158,25,down,down,0.5132348000006459,0.65246411215031,,experiment,cRDM,0.0,,,,980.5668684000012,1005,24,female,True
286,0.4849399868747158,25,up,up,0.522993000002316,1.9111412564825416,,experiment,cRDM,0.0,,,,983.2501456999998,1005,24,female,True
287,0.4849399868747158,25,down,down,0.4247003000018594,0.3438849206778199,,experiment,cRDM,0.0,,,,984.3834762000006,1005,24,female,True
288,0.4849399868747158,25,down,down,0.7021018999985245,1.1878471791210348,,experiment,cRDM,0.0,,,,986.2500256999992,1005,24,female,True
289,0.4849399868747158,25,up,up,0.5368846000019403,1.4776295789535787,,experiment,cRDM,0.0,,,,988.6833158000009,1005,24,female,True
290,0.4849399868747158,25,up,down,0.5049152999999933,1.853955696134326,,experiment,cRDM,0.0,,,,991.3332028000004,1005,24,female,True
291,0.4849399868747158,25,down,down,0.8446332999992592,1.119574595247995,,experiment,cRDM,0.0,,,,993.216486199999,1005,24,female,True
292,0.4849399868747158,25,up,down,0.529045600000245,1.352037732998497,,experiment,cRDM,0.0,,,,995.6830603000016,1005,24,female,True
293,0.4849399868747158,25,down,down,2.0988757999984955,1.643972089521092,,experiment,cRDM,0.0,,,,998.1162504000022,1005,24,female,True
294,0.4849399868747158,25,down,up,0.4627184000019042,1.6227804591429034,,experiment,cRDM,0.0,,,,1002.0994581000014,1005,24,female,True
295,0.4849399868747158,25,down,up,0.446414599999116,1.1932576926348804,,experiment,cRDM,0.0,,,,1004.0327072,1005,24,female,True
296,0.4849399868747158,25,up,down,0.6172310000001744,1.7286385354721383,,experiment,cRDM,0.0,,,,1006.4658749000008,1005,24,female,True
297,0.4849399868747158,25,up,up,0.4379374000018288,1.605963489029978,,experiment,cRDM,0.0,,,,1008.9491865000018,1005,24,female,True
298,0.4849399868747158,25,up,up,0.5516571000007389,1.8262429253222687,,experiment,cRDM,0.0,,,,1011.4824592000004,1005,24,female,True
299,0.4849399868747158,25,down,down,0.6393906000012066,0.3155996158104938,,experiment,cRDM,0.0,,,,1012.6157270000004,1005,24,female,True
300,0.4849399868747158,25,down,up,0.63977259999956,1.8634411583588588,,experiment,cRDM,0.0,,,,1015.3823472000004,1005,24,female,True
301,0.4849399868747158,25,up,up,0.5016565000005357,1.386323012150846,,experiment,cRDM,0.0,,,,1017.6654366000002,1005,24,female,True
302,0.4849399868747158,25,down,down,1.2438296000000264,1.9376795708061385,,experiment,cRDM,0.0,,,,1020.3653144000018,1005,24,female,True
303,0.4849399868747158,25,up,up,0.5480711000018346,1.4173991391461995,,experiment,cRDM,0.0,,,,1023.2820431,1005,24,female,True
304,0.4849399868747158,25,up,up,0.6469976000007591,0.8730818737570658,,experiment,cRDM,0.0,,,,1024.965142699999,1005,24,female,True
305,0.4849399868747158,25,up,up,0.5496215999992273,0.8142532460723486,,experiment,cRDM,0.0,,,,1026.698548700002,1005,24,female,True
306,0.4849399868747158,25,down,down,0.6906835000008869,1.4264810240088346,,experiment,cRDM,0.0,,,,1028.948447499999,1005,24,female,True
307,0.4849399868747158,25,down,down,0.6363452000005054,0.981688715152956,,experiment,cRDM,0.0,,,,1030.8817549000014,1005,24,female,True
308,0.4849399868747158,25,up,up,0.6358478000001924,1.2526643059638451,,experiment,cRDM,0.0,,,,1033.048294600001,1005,24,female,True
309,0.4849399868747158,25,down,down,0.664204200002132,0.7823203627074657,,experiment,cRDM,0.0,,,,1034.7149093000007,1005,24,female,True
310,0.4849399868747158,25,down,down,0.7942660000007891,1.4253829000754408,,experiment,cRDM,0.0,,,,1037.064860999999,1005,24,female,True
311,0.4849399868747158,25,up,up,0.5297001999970234,1.0682057916401273,,experiment,cRDM,0.0,,,,1039.1814369000022,1005,24,female,True
312,0.4849399868747158,25,up,up,0.5368087999995623,1.158068513868414,,experiment,cRDM,0.0,,,,1041.1313303000024,1005,24,female,True
313,0.4849399868747158,25,down,up,0.7794880000001285,1.2799552806168115,,experiment,cRDM,0.0,,,,1043.2146267999997,1005,24,female,True
314,0.4849399868747158,25,up,up,0.5649178000021493,1.0240096504166405,,experiment,cRDM,0.0,,,,1045.2812206000017,1005,24,female,True
315,0.4849399868747158,25,down,down,0.6157983000011882,1.9523011735986788,,experiment,cRDM,0.0,,,,1048.0643320000015,1005,24,female,True
316,0.4849399868747158,25,down,down,0.6559010999990278,1.0142721481173946,,experiment,cRDM,0.0,,,,1049.9642184000004,1005,24,female,True
317,0.4849399868747158,25,down,down,0.6101404000000912,0.8970863104246327,,experiment,cRDM,0.0,,,,1051.780981,1005,24,female,True
318,0.4849399868747158,25,up,down,0.6842943000010564,0.7792537217858506,,experiment,cRDM,0.0,,,,1053.430905199999,1005,24,female,True
319,0.4849399868747158,25,up,down,0.5862688999986858,0.9900966484025692,,experiment,cRDM,0.0,,,,1055.3808503,1005,24,female,True
320,0.4849399868747158,25,down,down,0.6463578999973834,0.9441702483669474,,experiment,cRDM,0.0,,,,1057.1807851000012,1005,24,female,True
321,0.4849399868747158,25,down,down,0.5140997999988031,0.4315983064674292,,experiment,cRDM,0.0,,,,1058.514025200002,1005,24,female,True
322,0.4849399868747158,25,up,down,0.6164492000025348,0.3555724638545414,,experiment,cRDM,0.0,,,,1059.6306592,1005,24,female,True
323,0.4849399868747158,25,up,up,0.4913037000005715,0.9511423544547196,,experiment,cRDM,0.0,,,,1061.463801599999,1005,24,female,True
324,0.4849399868747158,25,up,up,0.44041709999874,0.3454741367078162,,experiment,cRDM,0.0,,,,1062.5636995999994,1005,24,female,True
325,0.4849399868747158,25,up,up,0.5799728999991203,0.9734775518720468,,experiment,cRDM,0.0,,,,1064.2471361999997,1005,24,female,True
326,0.4849399868747158,25,up,up,0.5246284999993804,0.4433974503632107,,experiment,cRDM,0.0,,,,1065.530464899999,1005,24,female,True
327,0.4849399868747158,25,down,up,0.333896399999503,1.5386890380791045,,experiment,cRDM,0.0,,,,1067.863616300001,1005,24,female,True
328,0.4849399868747158,25,down,down,0.497208300002967,1.657833568230333,,experiment,cRDM,0.0,,,,1070.1969357000016,1005,24,female,True
329,0.4849399868747158,25,up,down,0.6032293999996909,0.3530560638023542,,experiment,cRDM,0.0,,,,1071.2968825000023,1005,24,female,True
330,0.4849399868747158,25,down,up,0.5036526000003505,1.541903436238481,,experiment,cRDM,0.0,,,,1073.7134588000008,1005,24,female,True
331,0.4849399868747158,25,down,down,0.5020573000001605,1.494063177214091,,experiment,cRDM,0.0,,,,1075.9800856000002,1005,24,female,True
332,0.4849399868747158,25,down,down,0.5258690000009665,0.76704581600279,,experiment,cRDM,0.0,,,,1077.513321800001,1005,24,female,True
333,0.4849399868747158,25,up,up,0.6008457000025373,0.7070211207927887,,experiment,cRDM,0.0,,,,1079.0132779000014,1005,24,female,True
334,0.4849399868747158,25,down,down,0.4416037999981199,1.9299178561629944,,experiment,cRDM,0.0,,,,1081.7965091000003,1005,24,female,True
335,0.4849399868747158,25,down,up,0.4002460999981849,1.0083559810588674,,experiment,cRDM,0.0,,,,1083.496453300002,1005,24,female,True
336,0.4849399868747158,25,down,down,0.5847170999986702,1.8199049556649165,,experiment,cRDM,0.0,,,,1085.9963927999995,1005,24,female,True
337,0.4849399868747158,25,up,up,0.5701646000015899,1.2766563859067432,,experiment,cRDM,0.0,,,,1088.1129414999996,1005,24,female,True
338,0.4849399868747158,25,up,up,0.7482613000029232,1.3091296393706695,,experiment,cRDM,0.0,,,,1090.262848000002,1005,24,female,True
339,0.4849399868747158,25,down,down,0.4823374000006879,1.0445210810495027,,experiment,cRDM,0.0,,,,1092.3127765999998,1005,24,female,True
340,0.4849399868747158,25,up,down,0.8033622000002651,0.7597584462525645,,experiment,cRDM,0.0,,,,1093.8127497000023,1005,24,female,True
341,0.4849399868747158,25,down,down,1.659773200000927,0.8891948645591166,,experiment,cRDM,0.0,,,,1095.7793502000022,1005,24,female,True
342,0.4849399868747158,25,up,up,0.4630447000017739,0.9868765427593088,,experiment,cRDM,0.0,,,,1098.6790656000012,1005,24,female,True
343,0.4849399868747158,25,up,up,0.4719704999988607,1.1366478067781216,,experiment,cRDM,0.0,,,,1100.529158199999,1005,24,female,True
344,130.0,25,M,up,0.8546330999997735,0.3906397050581929,,experiment,emotion,1.0,,,,1118.628473000001,1005,24,female,True
345,105.0,25,M,down,0.8626791999995476,1.215571877343958,,experiment,emotion,1.0,,,,1120.9784189999991,1005,24,female,True
346,122.0,25,F,,,1.0909207912882275,,experiment,emotion,1.0,,,,1123.2283057999994,1005,24,female,True
347,130.0,25,F,up,0.5029790999979014,1.508821523948992,,experiment,emotion,1.0,,,,1127.4281501000005,1005,24,female,True
348,122.0,25,M,up,1.222137799999473,1.4278946181830765,,experiment,emotion,1.0,,,,1129.6280657999996,1005,24,female,True
349,113.0,25,F,down,0.7341726000013296,1.5452813867464854,,experiment,emotion,1.0,,,,1132.6779577000016,1005,24,female,True
350,105.0,25,M,down,0.5745127999980468,1.2845617623600298,,experiment,emotion,1.0,,,,1134.994552799999,1005,24,female,True
351,113.0,25,M,down,1.1066527999973914,1.2997770973986411,,experiment,emotion,1.0,,,,1137.1444494999996,1005,24,female,True
352,130.0,25,F,up,0.6307042000007641,0.7665664139201476,,experiment,emotion,1.0,,,,1139.2943968,1005,24,female,True
353,113.0,25,F,down,0.8284660999997868,1.0692715234781445,,experiment,emotion,1.0,,,,1141.2776618999997,1005,24,female,True
354,122.0,25,F,up,1.5899111999970046,1.540839398502596,,experiment,emotion,1.0,,,,1143.9441841000007,1005,24,female,True
355,130.0,25,F,up,0.6139941000001272,0.8745317858708308,,experiment,emotion,1.0,,,,1146.6941172000006,1005,24,female,True
356,122.0,25,F,up,0.738080600000103,1.5579600372315607,,experiment,emotion,1.0,,,,1149.144009300002,1005,24,female,True
357,105.0,25,F,down,0.6786315999997896,1.894536558452693,,experiment,emotion,1.0,,,,1152.0604853000004,1005,24,female,True
358,113.0,25,M,up,1.1002864000001864,1.3815042157742423,,experiment,emotion,1.0,,,,1154.393818200002,1005,24,female,True
359,105.0,25,M,down,0.7643935999985842,1.6216797803723848,,experiment,emotion,1.0,,,,1157.3936961,1005,24,female,True
360,130.0,25,M,up,0.6224579000008816,0.9596543202862208,,experiment,emotion,1.0,,,,1159.3936356000013,1005,24,female,True
361,105.0,25,M,down,0.6112200999996276,1.331595079411983,,experiment,emotion,1.0,,,,1161.6268979000015,1005,24,female,True
362,122.0,25,F,up,1.669973399999435,1.8837916752867272,,experiment,emotion,1.0,,,,1164.4101348000004,1005,24,female,True
363,122.0,25,M,down,0.6097292000013113,0.7413270177025963,,experiment,emotion,1.0,,,,1167.0933805000022,1005,24,female,True
364,113.0,25,M,up,0.5344962000017404,0.5337472888877817,,experiment,emotion,1.0,,,,1168.5266040999995,1005,24,female,True
365,113.0,25,F,down,0.6895486999965215,1.7937063593241385,,experiment,emotion,1.0,,,,1171.1265354000025,1005,24,female,True
366,105.0,25,M,down,0.6353642000030959,1.5713798632332907,,experiment,emotion,1.0,,,,1173.659752800002,1005,24,female,True
367,130.0,25,F,,,0.4399841484072082,,experiment,emotion,1.0,,,,1175.0263870000017,1005,24,female,True
368,122.0,25,F,down,0.9198423999987426,0.8215112053238278,,experiment,emotion,1.0,,,,1178.5262590999992,1005,24,female,True
369,105.0,25,M,down,0.7146916999990935,1.7244815779161875,,experiment,emotion,1.0,,,,1181.459393000001,1005,24,female,True
370,130.0,25,M,up,0.7040008000003581,1.62302130617244,,experiment,emotion,1.0,,,,1184.0760885000018,1005,24,female,True
371,130.0,25,F,up,0.6964195000000473,0.9252117627296356,,experiment,emotion,1.0,,,,1185.992653199999,1005,24,female,True
372,113.0,25,M,up,1.704523500000505,0.8568097357750937,,experiment,emotion,1.0,,,,1187.8425676000006,1005,24,female,True
373,105.0,25,F,down,0.689280399998097,0.5921468666306311,,experiment,emotion,1.0,,,,1190.4258131999995,1005,24,female,True
374,113.0,25,F,down,1.708000500002527,1.5159118422193898,,experiment,emotion,1.0,,,,1192.9090682999995,1005,24,female,True
375,122.0,25,F,down,0.8884656999980507,0.6798430143966709,,experiment,emotion,1.0,,,,1195.5756423999992,1005,24,female,True
376,105.0,25,M,down,0.6618849000005866,0.957735806239092,,experiment,emotion,1.0,,,,1197.6922005000015,1005,24,female,True
377,130.0,25,M,up,0.756558799999766,0.3645016585740517,,experiment,emotion,1.0,,,,1198.975516300001,1005,24,female,True
378,122.0,25,M,up,0.5910193999989133,1.7508275826829325,,experiment,emotion,1.0,,,,1201.742051000001,1005,24,female,True
379,130.0,25,F,up,0.623763700001291,0.5170828137213861,,experiment,emotion,1.0,,,,1203.1253510999995,1005,24,female,True
380,105.0,25,F,down,0.611841199999617,1.5033318788395529,,experiment,emotion,1.0,,,,1205.5252621,1005,24,female,True
381,122.0,25,M,up,0.629183600001852,0.6877135030191965,,experiment,emotion,1.0,,,,1207.0918894999995,1005,24,female,True
382,113.0,25,F,down,0.698951099999249,1.7683267557840263,,experiment,emotion,1.0,,,,1209.7751076999994,1005,24,female,True
383,113.0,25,M,down,0.6450607999977365,1.7864283227197464,,experiment,emotion,1.0,,,,1212.5250053000018,1005,24,female,True
384,122.0,25,M,up,1.1189527999995337,1.6764370500777142,,experiment,emotion,1.0,,,,1215.108230400001,1005,24,female,True
385,130.0,25,M,up,0.6222759999982372,1.40882676603846,,experiment,emotion,1.0,,,,1217.924804000002,1005,24,female,True
386,113.0,25,F,down,1.073181100000511,1.2407016815015155,,experiment,emotion,1.0,,,,1220.057904199999,1005,24,female,True
387,105.0,25,F,down,0.712832500001241,1.689774416350553,,experiment,emotion,1.0,,,,1223.091279100001,1005,24,female,True
388,105.0,25,M,down,0.4992104999982985,0.3298868139481531,,experiment,emotion,1.0,,,,1224.4078924000023,1005,24,female,True
389,113.0,25,F,down,0.7992849000002025,1.7353109878339692,,experiment,emotion,1.0,,,,1226.9078104,1005,24,female,True
390,130.0,25,F,up,0.5900712000002386,1.9025850414880825,,experiment,emotion,1.0,,,,1229.8910369000005,1005,24,female,True
391,122.0,25,M,down,0.7284876000012446,1.736746361634141,,experiment,emotion,1.0,,,,1232.5075954999993,1005,24,female,True
392,105.0,25,M,down,0.647274800001469,1.630229832991007,,experiment,emotion,1.0,,,,1235.140804900002,1005,24,female,True
393,130.0,25,F,up,0.6290111999987857,1.6482493133522935,,experiment,emotion,1.0,,,,1237.7240894999995,1005,24,female,True
394,122.0,25,M,down,0.6098266999979387,0.6430131985940712,,experiment,emotion,1.0,,,,1239.2572523000017,1005,24,female,True
395,122.0,25,F,down,1.424840799998492,1.9606809634907272,,experiment,emotion,1.0,,,,1242.1072311000023,1005,24,female,True
396,105.0,25,F,down,0.6196610000006331,1.4290386224964848,,experiment,emotion,1.0,,,,1245.2404121,1005,24,female,True
397,113.0,25,F,down,0.7140051999995194,1.1090664994502963,,experiment,emotion,1.0,,,,1247.2570741000018,1005,24,female,True
398,130.0,25,M,up,0.7304416000006313,1.681653116492921,,experiment,emotion,1.0,,,,1249.9236333000008,1005,24,female,True
399,113.0,25,M,up,1.4015661000012187,0.3052498908582907,,experiment,emotion,1.0,,,,1251.2235484000012,1005,24,female,True
400,113.0,25,F,down,0.8809182000004512,0.4404953496196627,,experiment,emotion,1.0,,,,1253.340154100002,1005,24,female,True
401,113.0,25,F,down,1.0423188999993729,1.3113125644547103,,experiment,emotion,1.0,,,,1255.806752200002,1005,24,female,True
402,130.0,25,M,up,0.7467314999994414,1.0932357659365644,,experiment,emotion,1.0,,,,1258.223343900001,1005,24,female,True
403,122.0,25,M,up,1.4027024999995774,1.2017382761476925,,experiment,emotion,1.0,,,,1260.4564231000004,1005,24,female,True
404,105.0,25,M,down,0.8672321999983978,0.3904113077108924,,experiment,emotion,1.0,,,,1262.5398237000009,1005,24,female,True
405,105.0,25,M,down,0.5997050000005402,1.937864392837325,,experiment,emotion,1.0,,,,1265.6063735000023,1005,24,female,True
406,122.0,25,M,up,1.1201256999993348,1.1524638756837366,,experiment,emotion,1.0,,,,1267.6229449999992,1005,24,female,True
407,130.0,25,F,up,0.6986208999987866,0.8572105745276299,,experiment,emotion,1.0,,,,1269.8895645000011,1005,24,female,True
408,130.0,25,F,up,1.1886373999986972,1.201616180849586,,experiment,emotion,1.0,,,,1272.0394608000024,1005,24,female,True
409,105.0,25,M,down,0.532027699999162,1.8169165281592168,,experiment,emotion,1.0,,,,1275.3060275000023,1005,24,female,True
410,130.0,25,F,up,0.8453493999986676,1.363618632571634,,experiment,emotion,1.0,,,,1277.4558063000004,1005,24,female,True
411,113.0,25,F,down,1.0675475999996706,0.9890178790652148,,experiment,emotion,1.0,,,,1279.5725238000014,1005,24,female,True
412,122.0,25,F,down,1.4849811999993108,1.127803254048978,,experiment,emotion,1.0,,,,1282.039093899999,1005,24,female,True
413,113.0,25,M,down,1.1847565000025495,1.563880751430283,,experiment,emotion,1.0,,,,1285.3723143000025,1005,24,female,True
414,105.0,25,F,down,1.0022437000006903,1.853457471076925,,experiment,emotion,1.0,,,,1288.6888817,1005,24,female,True
415,122.0,25,F,down,0.9693042000035348,0.7833591662362158,,experiment,emotion,1.0,,,,1290.7387653000003,1005,24,female,True
416,113.0,25,F,up,1.4607035000008182,1.9350307345529807,,experiment,emotion,1.0,,,,1293.9053218000008,1005,24,female,True
417,122.0,25,M,up,0.6645117000007303,0.7982780617401761,,experiment,emotion,1.0,,,,1296.4385471000023,1005,24,female,True
418,105.0,25,M,,,0.5478055775768583,,experiment,emotion,1.0,,,,1297.9218201000003,1005,24,female,True
419,130.0,25,F,up,0.6980672999998205,1.7756095197641557,,experiment,emotion,1.0,,,,1302.4049974000009,1005,24,female,True
420,122.0,25,M,up,1.4301177999986976,0.9272768113025812,,experiment,emotion,1.0,,,,1304.3049457000016,1005,24,female,True
421,130.0,25,F,up,0.7608676000018022,0.390069871295397,,experiment,emotion,1.0,,,,1306.388184899999,1005,24,female,True
422,105.0,25,M,down,0.8192147000008845,0.6233162433817594,,experiment,emotion,1.0,,,,1308.0548268999992,1005,24,female,True
423,113.0,25,M,down,0.8011596000033023,1.6777865155378184,,experiment,emotion,1.0,,,,1310.837905700002,1005,24,female,True
424,0.4849399868747158,25,up,up,0.7752276999999594,1.6126668447794843,,experiment,cRDM,1.0,,,,1334.853824400001,1005,24,female,True
425,0.4849399868747158,25,up,up,0.4763086999992083,0.8147655025922655,,experiment,cRDM,1.0,,,,1336.7037459999992,1005,24,female,True
426,0.4849399868747158,25,down,down,0.4002274999984365,1.2580792077190823,,experiment,cRDM,1.0,,,,1338.7036976000018,1005,24,female,True
427,0.4849399868747158,25,down,up,0.4758500999996613,1.9948041379767103,,experiment,cRDM,1.0,,,,1341.3702618999996,1005,24,female,True
428,0.4849399868747158,25,up,up,0.4935552999995707,0.4828034382361663,,experiment,cRDM,1.0,,,,1342.6035365000023,1005,24,female,True
429,0.4849399868747158,25,down,up,0.5709504000005836,1.3594449865647222,,experiment,cRDM,1.0,,,,1344.7201114000018,1005,24,female,True
430,0.4849399868747158,25,up,up,0.767993800000113,1.716629348701742,,experiment,cRDM,1.0,,,,1347.270043299999,1005,24,female,True
431,0.4849399868747158,25,up,up,0.516127900002175,1.0239397458979882,,experiment,cRDM,1.0,,,,1349.3199301000022,1005,24,female,True
432,0.4849399868747158,25,down,up,0.5095147000029101,0.354143987514303,,experiment,cRDM,1.0,,,,1350.4365526,1005,24,female,True
433,0.4849399868747158,25,down,down,0.7802477000004728,1.2124248632414112,,experiment,cRDM,1.0,,,,1352.4198198000013,1005,24,female,True
434,0.4849399868747158,25,down,down,0.6246312000002945,0.4873688762398724,,experiment,cRDM,1.0,,,,1353.9364252000014,1005,24,female,True
435,0.4849399868747158,25,down,down,0.4807673000032082,0.8007716929376707,,experiment,cRDM,1.0,,,,1355.6363512000023,1005,24,female,True
436,0.4849399868747158,25,down,up,0.4167870999990555,1.922608604197846,,experiment,cRDM,1.0,,,,1358.3029418000006,1005,24,female,True
437,0.4849399868747158,25,down,down,0.5821948999982851,1.1189124398460784,,experiment,cRDM,1.0,,,,1360.1028665000013,1005,24,female,True
438,0.4849399868747158,25,up,up,0.4930481000010331,1.696091628074191,,experiment,cRDM,1.0,,,,1362.6360931000015,1005,24,female,True
439,0.4849399868747158,25,up,up,0.5650152999987768,0.7888990894541335,,experiment,cRDM,1.0,,,,1364.1860516000015,1005,24,female,True
440,0.4849399868747158,25,up,up,0.5070985999991535,1.1662951363122758,,experiment,cRDM,1.0,,,,1366.1859800999991,1005,24,female,True
441,0.4849399868747158,25,up,up,0.4398255999985849,0.7749652573021488,,experiment,cRDM,1.0,,,,1367.7192689000003,1005,24,female,True
442,0.4849399868747158,25,down,down,0.3838091999969037,1.8095427898183685,,experiment,cRDM,1.0,,,,1370.2358311000023,1005,24,female,True
443,0.4849399868747158,25,up,up,0.6269238999993831,0.4567274951285586,,experiment,cRDM,1.0,,,,1371.3691345000009,1005,24,female,True
444,0.4849399868747158,25,up,up,0.7097586999989289,0.4934124195517895,,experiment,cRDM,1.0,,,,1372.7523206000003,1005,24,female,True
445,0.4849399868747158,25,down,down,0.3671801000018604,0.7757127831065109,,experiment,cRDM,1.0,,,,1374.5023364000008,1005,24,female,True
446,0.4849399868747158,25,up,up,0.5227907999978925,1.2294177553956545,,experiment,cRDM,1.0,,,,1376.4022631000007,1005,24,female,True
447,0.4849399868747158,25,down,down,0.400228700000298,1.5165660796310507,,experiment,cRDM,1.0,,,,1378.70219,1005,24,female,True
448,0.4849399868747158,25,down,down,0.4392613999989407,1.070807819822899,,experiment,cRDM,1.0,,,,1380.4687842999992,1005,24,female,True
449,0.4849399868747158,25,up,up,0.5327871999979834,1.8650183289719031,,experiment,cRDM,1.0,,,,1383.0352669999993,1005,24,female,True
450,0.4849399868747158,25,up,up,0.4825094999978319,0.7364977953308393,,experiment,cRDM,1.0,,,,1384.5686072999997,1005,24,female,True
451,0.4849399868747158,25,down,down,0.4741896999985329,1.995917354028473,,experiment,cRDM,1.0,,,,1387.3018660000016,1005,24,female,True
452,0.4849399868747158,25,up,down,0.6509421999980987,1.835934360665187,,experiment,cRDM,1.0,,,,1389.8850781,1005,24,female,True
453,0.4849399868747158,25,down,down,0.4220433999980741,1.4959018202422083,,experiment,cRDM,1.0,,,,1392.2850070000022,1005,24,female,True
454,0.4849399868747158,25,down,down,0.4217580000004091,0.3061672835313378,,experiment,cRDM,1.0,,,,1393.2683056999997,1005,24,female,True
455,0.4849399868747158,25,down,down,0.3504639999991923,1.1045377487668968,,experiment,cRDM,1.0,,,,1395.0682545000018,1005,24,female,True
456,0.4849399868747158,25,up,up,0.6433166999995592,1.390813956849426,,experiment,cRDM,1.0,,,,1397.1347275000007,1005,24,female,True
457,0.4849399868747158,25,up,down,0.4168769000025349,0.5983275972210869,,experiment,cRDM,1.0,,,,1398.6347349000025,1005,24,female,True
458,0.4849399868747158,25,up,down,0.4416479999999865,0.8263245838284408,,experiment,cRDM,1.0,,,,1400.1514184000007,1005,24,female,True
459,0.4849399868747158,25,down,down,0.3671641000000818,0.678683650649319,,experiment,cRDM,1.0,,,,1401.517996900002,1005,24,female,True
460,0.4849399868747158,25,down,down,0.3504126999978325,0.960658325918343,,experiment,cRDM,1.0,,,,1403.151341299999,1005,24,female,True
461,0.4849399868747158,25,up,up,0.5131613999983529,1.5826429979617456,,experiment,cRDM,1.0,,,,1405.417890200002,1005,24,female,True
462,0.4849399868747158,25,down,down,0.3671668999995745,1.1857716771077662,,experiment,cRDM,1.0,,,,1407.3844461000008,1005,24,female,True
463,0.4849399868747158,25,up,up,0.4167363000015029,0.5585128869008931,,experiment,cRDM,1.0,,,,1408.6343979000012,1005,24,female,True
464,0.4849399868747158,25,up,down,0.419761400000425,1.621662174525594,,experiment,cRDM,1.0,,,,1410.934316499999,1005,24,female,True
465,0.4849399868747158,25,up,up,0.4467884999976377,1.613144314909677,,experiment,cRDM,1.0,,,,1413.2342151000012,1005,24,female,True
466,0.4849399868747158,25,down,down,0.5252309999996214,1.063833108284694,,experiment,cRDM,1.0,,,,1415.0008310000012,1005,24,female,True
467,0.4849399868747158,25,down,down,1.000587300000916,1.779897828913185,,experiment,cRDM,1.0,,,,1417.5674393000008,1005,24,female,True
468,0.4849399868747158,25,up,up,0.5493790000000445,0.4656929655057728,,experiment,cRDM,1.0,,,,1419.3006705000007,1005,24,female,True
469,0.4849399868747158,25,down,down,1.4401625999998942,1.9685201956596663,,experiment,cRDM,1.0,,,,1422.0839253000013,1005,24,female,True
470,0.4849399868747158,25,down,down,0.7145529999979772,1.3061676906093496,,experiment,cRDM,1.0,,,,1425.1004925000016,1005,24,female,True
471,0.4849399868747158,25,up,up,0.5953267999975651,0.865506682858209,,experiment,cRDM,1.0,,,,1426.9337195000007,1005,24,female,True
472,0.4849399868747158,25,up,up,1.4107769000002008,0.3103254352664063,,experiment,cRDM,1.0,,,,1428.1003065000004,1005,24,female,True
473,0.4849399868747158,25,down,down,0.6110741999982565,0.80381227609159,,experiment,cRDM,1.0,,,,1430.5669688000016,1005,24,female,True
474,0.4849399868747158,25,up,up,0.602168299999903,1.6732360220597458,,experiment,cRDM,1.0,,,,1433.1168488000003,1005,24,female,True
475,0.4849399868747158,25,down,down,0.4336326000011468,0.5535216439351089,,experiment,cRDM,1.0,,,,1434.533426599999,1005,24,female,True
476,0.4849399868747158,25,down,up,0.4676421000003756,0.4065172333455923,,experiment,cRDM,1.0,,,,1435.633402200001,1005,24,female,True
477,0.4849399868747158,25,down,down,0.3671393000004173,0.6165127639908896,,experiment,cRDM,1.0,,,,1436.9833368,1005,24,female,True
478,0.4849399868747158,25,up,up,0.4002559000000474,1.2099501321981352,,experiment,cRDM,1.0,,,,1438.8832815000023,1005,24,female,True
479,0.4849399868747158,25,up,down,0.416795600001933,1.4597137979159127,,experiment,cRDM,1.0,,,,1441.0165326000024,1005,24,female,True
480,0.4849399868747158,25,down,down,0.6719797000005201,1.9268564534046029,,experiment,cRDM,1.0,,,,1443.6330713999996,1005,24,female,True
481,0.4849399868747158,25,down,down,0.528290600002947,0.7640049297848239,,experiment,cRDM,1.0,,,,1445.3497441,1005,24,female,True
482,0.4849399868747158,25,up,up,0.6447718999988865,1.4125627581259752,,experiment,cRDM,1.0,,,,1447.5662866999992,1005,24,female,True
483,0.4849399868747158,25,up,up,0.4398529999998573,0.4879161172753196,,experiment,cRDM,1.0,,,,1448.9662137000014,1005,24,female,True
484,0.4849399868747158,25,up,up,0.6278796999977203,0.5929021073865306,,experiment,cRDM,1.0,,,,1450.2661924999993,1005,24,female,True
485,0.4849399868747158,25,up,down,1.7012854000022344,1.886419186456104,,experiment,cRDM,1.0,,,,1453.0327510000025,1005,24,female,True
486,0.4849399868747158,25,up,up,0.5426614999996673,0.5628230496816884,,experiment,cRDM,1.0,,,,1455.549358700002,1005,24,female,True
487,0.4849399868747158,25,down,down,0.5080911999975797,1.3010077021843736,,experiment,cRDM,1.0,,,,1457.6659486999995,1005,24,female,True
488,0.4849399868747158,25,down,down,0.5678540999979305,1.0676959887578068,,experiment,cRDM,1.0,,,,1459.499185200002,1005,24,female,True
489,0.4849399868747158,25,up,up,0.5839477999979863,1.6694970138032397,,experiment,cRDM,1.0,,,,1461.999100500001,1005,24,female,True
490,0.4849399868747158,25,down,down,0.4973850999995193,1.5646323030179103,,experiment,cRDM,1.0,,,,1464.4156478000004,1005,24,female,True
491,0.4849399868747158,25,down,down,0.6858589000003121,1.6551873475352998,,experiment,cRDM,1.0,,,,1466.8322009000003,1005,24,female,True
492,0.4849399868747158,25,down,down,0.5436047000002873,1.190791619695179,,experiment,cRDM,1.0,,,,1468.9655005000022,1005,24,female,True
493,0.4849399868747158,25,up,up,0.4002607000002172,1.5773273296445105,,experiment,cRDM,1.0,,,,1471.348774000002,1005,24,female,True
494,0.4849399868747158,25,down,down,0.4380803999993077,1.860059170065962,,experiment,cRDM,1.0,,,,1473.881978400001,1005,24,female,True
495,0.4849399868747158,25,down,down,0.4914859999989858,1.410505970463071,,experiment,cRDM,1.0,,,,1475.9985478000017,1005,24,female,True
496,0.4849399868747158,25,down,down,0.6927969999997003,0.4034072976811308,,experiment,cRDM,1.0,,,,1477.1652278,1005,24,female,True
497,0.4849399868747158,25,up,up,1.6312879999968573,1.3545449247205643,,experiment,cRDM,1.0,,,,1479.481774,1005,24,female,True
498,0.4849399868747158,25,up,up,0.6474438000004739,0.8523092564408501,,experiment,cRDM,1.0,,,,1482.2315509,1005,24,female,True
499,0.4849399868747158,25,down,down,0.5760814999994182,0.3638725597528669,,experiment,cRDM,1.0,,,,1483.5149548000009,1005,24,female,True
500,0.4849399868747158,25,up,up,0.5681833000016923,1.363902540210364,,experiment,cRDM,1.0,,,,1485.7148646000023,1005,24,female,True
501,0.4849399868747158,25,down,down,0.6146550999983447,0.8371950031254523,,experiment,cRDM,1.0,,,,1487.3814792000012,1005,24,female,True
502,0.4849399868747158,25,up,up,0.7289221000028192,0.6029443355848263,,experiment,cRDM,1.0,,,,1488.8481419000018,1005,24,female,True
503,0.4849399868747158,25,up,up,1.2633930999982113,1.5812117782413788,,experiment,cRDM,1.0,,,,1491.414670500002,1005,24,female,True
504,130.0,25,M,up,0.7712430999999924,0.4075920852179641,,experiment,emotion,2.0,,,,1524.1467773000004,1005,24,female,True
505,105.0,25,M,down,1.4646524000017962,1.7119064569245792,,experiment,emotion,2.0,,,,1526.913347900001,1005,24,female,True
506,122.0,25,F,up,0.762491500001488,1.6304671191693552,,experiment,emotion,2.0,,,,1530.2965568,1005,24,female,True
507,130.0,25,F,up,1.670936200000142,1.5355496070845316,,experiment,emotion,2.0,,,,1532.863150000001,1005,24,female,True
508,122.0,25,M,up,0.8205156000003626,0.8273750738880403,,experiment,emotion,2.0,,,,1535.6295361000011,1005,24,female,True
509,113.0,25,F,up,0.6895977999993192,0.7897199536973781,,experiment,emotion,2.0,,,,1537.529438900001,1005,24,female,True
510,105.0,25,M,down,0.6648301999994146,1.495907347194238,,experiment,emotion,2.0,,,,1539.9961938000015,1005,24,female,True
511,113.0,25,M,up,0.7356680999982927,0.5095711471950332,,experiment,emotion,2.0,,,,1541.4293916999995,1005,24,female,True
512,130.0,25,F,up,0.7681909000020823,0.6767364146636607,,experiment,emotion,2.0,,,,1543.1128262999991,1005,24,female,True
513,113.0,25,F,down,1.3458447000011802,1.968260123625911,,experiment,emotion,2.0,,,,1546.1291775999998,1005,24,female,True
514,122.0,25,F,up,0.5741391999981715,1.204154293881179,,experiment,emotion,2.0,,,,1548.945894299999,1005,24,female,True
515,130.0,25,F,down,1.2508822999989206,0.7354302265148094,,experiment,emotion,2.0,,,,1550.529126100002,1005,24,female,True
516,122.0,25,F,down,0.8191445999982534,1.876512797472212,,experiment,emotion,2.0,,,,1553.9289059000002,1005,24,female,True
517,105.0,25,F,down,0.5990875000024971,1.6543587522520309,,experiment,emotion,2.0,,,,1556.678910900002,1005,24,female,True
518,113.0,25,M,down,0.5751865999991423,1.2149896926994332,,experiment,emotion,2.0,,,,1558.7788433000023,1005,24,female,True
519,105.0,25,M,down,0.5326623000000836,1.8292003792421825,,experiment,emotion,2.0,,,,1561.4453520000025,1005,24,female,True
520,130.0,25,M,up,0.6753184999979567,1.026795700818542,,experiment,emotion,2.0,,,,1563.2786629000002,1005,24,female,True
521,105.0,25,M,down,0.7844030000014754,1.0458013760067846,,experiment,emotion,2.0,,,,1565.2786125999992,1005,24,female,True
522,122.0,25,F,down,0.6265663000012864,1.479089420660458,,experiment,emotion,2.0,,,,1567.8284891000003,1005,24,female,True
523,122.0,25,M,down,0.7795589000015752,1.0531543949588982,,experiment,emotion,2.0,,,,1569.7784283,1005,24,female,True
524,113.0,25,M,down,0.4619538000006287,0.5772809621095911,,experiment,emotion,2.0,,,,1571.3950671999992,1005,24,female,True
525,113.0,25,F,down,0.4626881000003777,0.6670922698636437,,experiment,emotion,2.0,,,,1572.778334300001,1005,24,female,True
526,105.0,25,M,down,0.5594062999989546,0.9940851538021104,,experiment,emotion,2.0,,,,1574.5116128000009,1005,24,female,True
527,130.0,25,F,down,0.600506899998436,1.3181902185315526,,experiment,emotion,2.0,,,,1576.6615290000009,1005,24,female,True
528,122.0,25,F,down,0.5819951999983459,0.3526961874881539,,experiment,emotion,2.0,,,,1577.8781149999995,1005,24,female,True
529,105.0,25,M,down,0.4469916000016383,1.115536373782601,,experiment,emotion,2.0,,,,1579.8280465999997,1005,24,female,True
530,130.0,25,M,down,1.3913891999982295,1.850189378417492,,experiment,emotion,2.0,,,,1582.394619499999,1005,24,female,True
531,130.0,25,F,up,0.5197769000005792,0.6028815221693353,,experiment,emotion,2.0,,,,1584.6612607999996,1005,24,female,True
532,113.0,25,M,down,0.794174099999509,0.4698187922054206,,experiment,emotion,2.0,,,,1585.9278379999996,1005,24,female,True
533,105.0,25,F,down,0.7102525999980571,0.7454437425842939,,experiment,emotion,2.0,,,,1587.7277749000025,1005,24,female,True
534,113.0,25,F,down,0.6509095000001253,0.678352721834945,,experiment,emotion,2.0,,,,1589.3943688,1005,24,female,True
535,122.0,25,F,up,0.5477247000017087,1.972835772811604,,experiment,emotion,2.0,,,,1592.2942822000005,1005,24,female,True
536,105.0,25,M,down,0.7521120999990671,0.603865989014339,,experiment,emotion,2.0,,,,1593.7109208000002,1005,24,female,True
537,130.0,25,M,up,0.5522699000030116,1.3791577028033892,,experiment,emotion,2.0,,,,1596.1107962000024,1005,24,female,True
538,122.0,25,M,up,0.6573079999980109,1.377468148099778,,experiment,emotion,2.0,,,,1598.3107008000006,1005,24,female,True
539,130.0,25,F,up,0.5369955999995,0.3478003137750302,,experiment,emotion,2.0,,,,1599.594012900001,1005,24,female,True
540,105.0,25,F,down,0.5184743000027083,1.301710051736504,,experiment,emotion,2.0,,,,1601.7105625000004,1005,24,female,True
541,122.0,25,M,up,0.5748506000018097,1.6872462043985237,,experiment,emotion,2.0,,,,1604.1771603000016,1005,24,female,True
542,113.0,25,F,up,0.6945352000002458,0.7192291673797915,,experiment,emotion,2.0,,,,1605.7604715000016,1005,24,female,True
543,113.0,25,M,up,2.029074499998387,1.693170291206073,,experiment,emotion,2.0,,,,1608.4269286000017,1005,24,female,True
544,122.0,25,M,up,0.6342206000008446,1.6885068796644371,,experiment,emotion,2.0,,,,1612.4267863999994,1005,24,female,True
545,130.0,25,M,down,0.9158992000011494,0.7746713724614562,,experiment,emotion,2.0,,,,1614.1101290000006,1005,24,female,True
546,113.0,25,F,up,0.6890085999984876,1.151748935109256,,experiment,emotion,2.0,,,,1616.4600415000025,1005,24,female,True
547,105.0,25,F,down,0.6755793999982416,0.4864681986234781,,experiment,emotion,2.0,,,,1617.9264390999997,1005,24,female,True
548,105.0,25,M,down,1.0521162000004551,1.895099401979294,,experiment,emotion,2.0,,,,1620.7598859999998,1005,24,female,True
549,113.0,25,F,down,0.7992411999985052,1.037976032463442,,experiment,emotion,2.0,,,,1623.1097728000022,1005,24,female,True
550,130.0,25,F,up,0.6009626999984903,1.4643963205839865,,experiment,emotion,2.0,,,,1625.6430468,1005,24,female,True
551,122.0,25,M,up,2.2113800999977684,1.687183570401396,,experiment,emotion,2.0,,,,1628.2096175000006,1005,24,female,True
552,105.0,25,M,down,0.7205037000021548,1.3994469457919858,,experiment,emotion,2.0,,,,1632.109462200002,1005,24,female,True
553,130.0,25,F,up,0.8165991999994731,0.7105615025501906,,experiment,emotion,2.0,,,,1633.8093965000007,1005,24,female,True
554,122.0,25,M,up,1.009701700000733,1.7045144452226286,,experiment,emotion,2.0,,,,1636.6092935000015,1005,24,female,True
555,122.0,25,F,up,0.6553174000000581,1.9253897940241091,,experiment,emotion,2.0,,,,1639.825668900001,1005,24,female,True
556,105.0,25,F,down,0.9415135000017472,0.6460511888327862,,experiment,emotion,2.0,,,,1641.3924521000008,1005,24,female,True
557,113.0,25,F,down,1.108303299999534,0.4433890264814741,,experiment,emotion,2.0,,,,1643.0757240999992,1005,24,female,True
558,130.0,25,M,up,0.6477182999988145,1.6463535868963612,,experiment,emotion,2.0,,,,1646.0922802999994,1005,24,female,True
559,113.0,25,M,up,0.6358208999990893,1.8788851811470453,,experiment,emotion,2.0,,,,1648.8921756000018,1005,24,female,True
560,113.0,25,F,up,0.608213399998931,0.97589678103584,,experiment,emotion,2.0,,,,1650.7587838,1005,24,female,True
561,113.0,25,F,up,0.7289573000016389,1.0622306091806553,,experiment,emotion,2.0,,,,1652.6920480000008,1005,24,female,True
562,130.0,25,M,up,0.6573755999997957,1.018358794020038,,experiment,emotion,2.0,,,,1654.7086373999991,1005,24,female,True
563,122.0,25,M,up,0.6267781000024115,1.6068380415487646,,experiment,emotion,2.0,,,,1657.2752045000016,1005,24,female,True
564,105.0,25,M,down,0.6523070000002917,0.4747428227005376,,experiment,emotion,2.0,,,,1658.6417309999997,1005,24,female,True
565,105.0,25,M,down,0.5012736999997287,1.339884085503292,,experiment,emotion,2.0,,,,1660.8917490999993,1005,24,female,True
566,122.0,25,M,down,2.3636993000000075,1.199410043483506,,experiment,emotion,2.0,,,,1662.8583289000017,1005,24,female,True
567,130.0,25,F,up,0.7057963000006566,0.421432888010386,,experiment,emotion,2.0,,,,1665.9081987999998,1005,24,female,True
568,130.0,25,F,up,0.6902157999975316,1.248393696915219,,experiment,emotion,2.0,,,,1668.1247838000018,1005,24,female,True
569,105.0,25,M,down,0.5142930000001797,1.848578318202813,,experiment,emotion,2.0,,,,1670.9247109000023,1005,24,female,True
570,130.0,25,F,up,0.5903671000014583,1.2550144055119683,,experiment,emotion,2.0,,,,1672.974637700001,1005,24,female,True
571,113.0,25,F,down,0.5201636000019789,1.7016581478987247,,experiment,emotion,2.0,,,,1675.5578577000017,1005,24,female,True
572,122.0,25,F,down,0.7051814000005834,0.8560716158350554,,experiment,emotion,2.0,,,,1677.2078077000006,1005,24,female,True
573,113.0,25,M,down,0.59859890000007,0.3434037302217074,,experiment,emotion,2.0,,,,1678.5243902000002,1005,24,female,True
574,105.0,25,F,down,0.4946688999989419,1.3878416521139243,,experiment,emotion,2.0,,,,1680.7743240000018,1005,24,female,True
575,122.0,25,F,down,0.5317954000020109,0.8381149562383283,,experiment,emotion,2.0,,,,1682.3742647,1005,24,female,True
576,113.0,25,F,down,0.6361227000015788,1.2600925661661848,,experiment,emotion,2.0,,,,1684.4408746000008,1005,24,female,True
577,122.0,25,M,up,1.1606548000017938,1.958250754104084,,experiment,emotion,2.0,,,,1687.307399199999,1005,24,female,True
578,105.0,25,M,down,0.626180100000056,1.4917837201716382,,experiment,emotion,2.0,,,,1690.2238436000007,1005,24,female,True
579,130.0,25,F,up,0.5807463999990432,0.4786071279890811,,experiment,emotion,2.0,,,,1691.6072445999998,1005,24,female,True
580,122.0,25,M,up,0.8161569999974745,0.4651898475015383,,experiment,emotion,2.0,,,,1692.923834199999,1005,24,female,True
581,130.0,25,F,down,0.9154052000012598,1.3076060998949797,,experiment,emotion,2.0,,,,1695.323681599999,1005,24,female,True
582,105.0,25,M,down,0.6646830999998201,1.8882621115540668,,experiment,emotion,2.0,,,,1698.3903262999993,1005,24,female,True
583,113.0,25,M,down,0.6180435999995098,0.723333434826313,,experiment,emotion,2.0,,,,1700.0569431000004,1005,24,female,True
584,0.4849399868747158,25,up,up,1.1874043999996502,1.3905498871262794,,experiment,cRDM,2.0,,,,1738.4555421000005,1005,24,female,True
585,0.4849399868747158,25,up,up,0.8666155999999319,1.9982150606606903,,experiment,cRDM,2.0,,,,1741.9053865999997,1005,24,female,True
586,0.4849399868747158,25,down,down,1.3719683999988774,1.53636249186877,,experiment,cRDM,2.0,,,,1744.5719824000007,1005,24,female,True
587,0.4849399868747158,25,down,up,0.6174573999996937,0.590393524917803,,experiment,cRDM,2.0,,,,1746.7885399000006,1005,24,female,True
588,0.4849399868747158,25,up,down,0.5796642999994219,1.18367678663618,,experiment,cRDM,2.0,,,,1748.8383123999993,1005,24,female,True
589,0.4849399868747158,25,down,down,0.571249299999181,0.9467421124326604,,experiment,cRDM,2.0,,,,1750.6217198000013,1005,24,female,True
590,0.4849399868747158,25,up,up,0.6187090999992506,1.1322391406650612,,experiment,cRDM,2.0,,,,1752.5883218000015,1005,24,female,True
591,0.4849399868747158,25,up,up,0.6190741999998863,1.1282654778063,,experiment,cRDM,2.0,,,,1754.6049196000022,1005,24,female,True
592,0.4849399868747158,25,down,down,0.7081149000005098,0.6223608545977747,,experiment,cRDM,2.0,,,,1756.1048616000007,1005,24,female,True
593,0.4849399868747158,25,down,down,0.5535723000029975,1.9525668615598324,,experiment,cRDM,2.0,,,,1759.0214056000004,1005,24,female,True
594,0.4849399868747158,25,down,down,0.7219813000010618,1.5855203122353383,,experiment,cRDM,2.0,,,,1761.4379936000005,1005,24,female,True
595,0.4849399868747158,25,down,down,0.4740407999997842,1.7098356902707732,,experiment,cRDM,2.0,,,,1764.1379406000017,1005,24,female,True
596,0.4849399868747158,25,down,down,0.4285340999995242,0.5613702728467724,,experiment,cRDM,2.0,,,,1765.454511399999,1005,24,female,True
597,0.4849399868747158,25,down,down,0.4321539000011398,0.3447479924214647,,experiment,cRDM,2.0,,,,1766.4878181000022,1005,24,female,True
598,0.4849399868747158,25,up,down,0.4167673000010836,0.4047074224958918,,experiment,cRDM,2.0,,,,1767.5877801000024,1005,24,female,True
599,0.4849399868747158,25,up,up,0.5085875000004307,0.6921821836592701,,experiment,cRDM,2.0,,,,1768.9544041000008,1005,24,female,True
600,0.4849399868747158,25,up,up,0.5550050000019837,1.6586877623152685,,experiment,cRDM,2.0,,,,1771.370969399999,1005,24,female,True
601,0.4849399868747158,25,up,up,0.4793945999990683,0.3078192052013241,,experiment,cRDM,2.0,,,,1772.487591000001,1005,24,female,True
602,0.4849399868747158,25,down,down,0.5460877000004984,0.8905164391799438,,experiment,cRDM,2.0,,,,1774.1208899000012,1005,24,female,True
603,0.4849399868747158,25,up,up,0.4674353000009432,1.9987587102719249,,experiment,cRDM,2.0,,,,1776.920615400002,1005,24,female,True
604,0.4849399868747158,25,up,down,0.3503860999990138,1.236609586267446,,experiment,cRDM,2.0,,,,1778.8707128000024,1005,24,female,True
605,0.4849399868747158,25,down,down,0.3338016000016068,1.4067350791171405,,experiment,cRDM,2.0,,,,1780.9539597000005,1005,24,female,True
606,0.4849399868747158,25,up,up,0.5095105000000331,1.9399651047841715,,experiment,cRDM,2.0,,,,1783.5705082000022,1005,24,female,True
607,0.4849399868747158,25,down,down,0.5819029999984195,0.5926367470876062,,experiment,cRDM,2.0,,,,1784.9371494000006,1005,24,female,True
608,0.4849399868747158,25,down,down,0.7772839999997814,1.81615236432707,,experiment,cRDM,2.0,,,,1787.6036859000014,1005,24,female,True
609,0.4849399868747158,25,up,up,0.5066903999977512,1.583711312898552,,experiment,cRDM,2.0,,,,1790.2202493000004,1005,24,female,True
610,0.4849399868747158,25,up,up,0.5501318999995419,1.5932228758664182,,experiment,cRDM,2.0,,,,1792.5868363000009,1005,24,female,True
611,0.4849399868747158,25,down,down,0.4218751000007614,1.564870300550954,,experiment,cRDM,2.0,,,,1794.970088800001,1005,24,female,True
612,0.4849399868747158,25,up,up,0.6689721000002464,1.713362004441869,,experiment,cRDM,2.0,,,,1797.3700516999995,1005,24,female,True
613,0.4849399868747158,25,down,down,0.6134055000002263,0.4314706882177258,,experiment,cRDM,2.0,,,,1798.736646100002,1005,24,female,True
614,0.4849399868747158,25,down,down,0.4374285000012605,1.418820957695328,,experiment,cRDM,2.0,,,,1801.0365674000022,1005,24,female,True
615,0.4849399868747158,25,down,down,0.4168721000023652,0.5365034253999391,,experiment,cRDM,2.0,,,,1802.2698127000003,1005,24,female,True
616,0.4849399868747158,25,up,down,0.3671318000015162,0.955875464741845,,experiment,cRDM,2.0,,,,1803.9031109000025,1005,24,female,True
617,0.4849399868747158,25,up,up,0.3337698000032105,1.6943741958102652,,experiment,cRDM,2.0,,,,1806.2696964000024,1005,24,female,True
618,0.4849399868747158,25,up,up,0.4856612000003224,0.8989036021864119,,experiment,cRDM,2.0,,,,1807.836304200002,1005,24,female,True
619,0.4849399868747158,25,down,down,0.4168684000032954,1.981341882577246,,experiment,cRDM,2.0,,,,1810.5695177000016,1005,24,female,True
620,0.4849399868747158,25,down,down,0.5372840000018186,1.2495542681458889,,experiment,cRDM,2.0,,,,1812.502754000001,1005,24,female,True
621,0.4849399868747158,25,up,up,0.4646294000012858,1.768691862731552,,experiment,cRDM,2.0,,,,1815.0693420000025,1005,24,female,True
622,0.4849399868747158,25,down,down,0.4377645000022312,1.7738186712179294,,experiment,cRDM,2.0,,,,1817.5692560000025,1005,24,female,True
623,0.4849399868747158,25,up,up,0.5444509999979346,0.6823664409779159,,experiment,cRDM,2.0,,,,1818.9525367999995,1005,24,female,True
624,0.4849399868747158,25,up,up,0.6591267000003427,1.4659385771149802,,experiment,cRDM,2.0,,,,1821.2358267000016,1005,24,female,True
625,0.4849399868747158,25,up,up,0.4949278999993112,0.8066159861218891,,experiment,cRDM,2.0,,,,1822.969037900002,1005,24,female,True
626,0.4849399868747158,25,down,down,0.4922922000005201,0.7516528975407851,,experiment,cRDM,2.0,,,,1824.4856655000003,1005,24,female,True
627,0.4849399868747158,25,down,down,0.6655146000011882,1.7058889439438147,,experiment,cRDM,2.0,,,,1826.935460200002,1005,24,female,True
628,0.4849399868747158,25,up,up,0.4320991999993566,1.6584325640602435,,experiment,cRDM,2.0,,,,1829.518835400002,1005,24,female,True
629,0.4849399868747158,25,down,down,0.4596014999988256,0.6120603203240793,,experiment,cRDM,2.0,,,,1830.8353418000008,1005,24,female,True
630,0.4849399868747158,25,down,down,0.6429151000011188,0.7377512219758461,,experiment,cRDM,2.0,,,,1832.302042700001,1005,24,female,True
631,0.4849399868747158,25,up,up,0.5919562000017322,0.7483431766565574,,experiment,cRDM,2.0,,,,1833.9520011000025,1005,24,female,True
632,0.4849399868747158,25,up,up,0.5617013999981282,1.182212557313707,,experiment,cRDM,2.0,,,,1835.9852327000008,1005,24,female,True
633,0.4849399868747158,25,down,down,0.7204533999974956,0.9598884545808548,,experiment,cRDM,2.0,,,,1837.768510599999,1005,24,female,True
634,0.4849399868747158,25,up,up,0.6046500999982527,1.3680527503533242,,experiment,cRDM,2.0,,,,1840.1183180000007,1005,24,female,True
635,0.4849399868747158,25,down,down,0.4739193999994313,0.6207304608360912,,experiment,cRDM,2.0,,,,1841.5850379000003,1005,24,female,True
636,0.4849399868747158,25,down,down,0.6226726999993843,0.4483960863009599,,experiment,cRDM,2.0,,,,1842.7683180000024,1005,24,female,True
637,0.4849399868747158,25,down,down,0.5736570999979449,0.6207022884746861,,experiment,cRDM,2.0,,,,1844.2682609000003,1005,24,female,True
638,0.4849399868747158,25,up,up,0.4724302000031457,0.3507790192634581,,experiment,cRDM,2.0,,,,1845.4515630000024,1005,24,female,True
639,0.4849399868747158,25,up,up,0.6625512999999046,1.8214849909171889,,experiment,cRDM,2.0,,,,1848.001446000002,1005,24,female,True
640,0.4849399868747158,25,down,down,0.5119078999996418,1.7321080523566863,,experiment,cRDM,2.0,,,,1850.6680471,1005,24,female,True
641,0.4849399868747158,25,down,down,0.4769933999996283,0.5111691020478449,,experiment,cRDM,2.0,,,,1851.9679834000017,1005,24,female,True
642,0.4849399868747158,25,up,up,0.4793706999989808,0.3727330702182675,,experiment,cRDM,2.0,,,,1853.0846241,1005,24,female,True
643,0.4849399868747158,25,up,up,0.5988493000004382,1.075783343731986,,experiment,cRDM,2.0,,,,1854.9011821000024,1005,24,female,True
644,0.4849399868747158,25,up,up,0.5999864000004891,1.6299726049344427,,experiment,cRDM,2.0,,,,1857.401091300002,1005,24,female,True
645,0.4849399868747158,25,up,up,0.4655701999981829,0.9707498223836172,,experiment,cRDM,2.0,,,,1859.2344183000023,1005,24,female,True
646,0.4849399868747158,25,up,up,0.4846159000007901,0.5174519988436126,,experiment,cRDM,2.0,,,,1860.4843396,1005,24,female,True
647,0.4849399868747158,25,down,down,0.3671078999977908,1.2080012614988789,,experiment,cRDM,2.0,,,,1862.4509050000013,1005,24,female,True
648,0.4849399868747158,25,down,down,0.3004822000002605,1.038863206406472,,experiment,cRDM,2.0,,,,1864.167521200001,1005,24,female,True
649,0.4849399868747158,25,up,up,0.5467912000021897,0.9838826902330082,,experiment,cRDM,2.0,,,,1865.8341683,1005,24,female,True
650,0.4849399868747158,25,down,down,0.7555740999996488,1.5273698045698445,,experiment,cRDM,2.0,,,,1868.1673801,1005,24,female,True
651,0.4849399868747158,25,down,down,2.1556864000012865,1.986154383617736,,experiment,cRDM,2.0,,,,1871.1672810000016,1005,24,female,True
652,0.4849399868747158,25,down,down,0.5171742999991693,1.9978897195555316,,experiment,cRDM,2.0,,,,1875.5837789,1005,24,female,True
653,0.4849399868747158,25,up,up,0.5252559000000474,1.1264165032596367,,experiment,cRDM,2.0,,,,1877.483701000001,1005,24,female,True
654,0.4849399868747158,25,down,down,0.4168167999996512,1.1768067488687135,,experiment,cRDM,2.0,,,,1879.450294300001,1005,24,female,True
655,0.4849399868747158,25,down,down,0.4767296999998507,1.2232618404842523,,experiment,cRDM,2.0,,,,1881.3502239000009,1005,24,female,True
656,0.4849399868747158,25,down,down,0.4274827000008372,1.5843909142895054,,experiment,cRDM,2.0,,,,1883.6834970000016,1005,24,female,True
657,0.4849399868747158,25,up,down,0.7785311000006914,0.407548795206859,,experiment,cRDM,2.0,,,,1884.7834238,1005,24,female,True
658,0.4849399868747158,25,up,up,0.8709195000010368,0.6113052254311683,,experiment,cRDM,2.0,,,,1886.450029,1005,24,female,True
659,0.4849399868747158,25,down,down,0.7640183000003162,0.5183991590088974,,experiment,cRDM,2.0,,,,1888.0999611000009,1005,24,female,True
660,0.4849399868747158,25,up,up,0.4168338999988918,1.436943762518735,,experiment,cRDM,2.0,,,,1890.5665455000017,1005,24,female,True
661,0.4849399868747158,25,down,down,0.4885484999977052,1.1811265589307949,,experiment,cRDM,2.0,,,,1892.4164019000016,1005,24,female,True
662,0.4849399868747158,25,up,up,0.5352343000013207,0.3343949671700751,,experiment,cRDM,2.0,,,,1893.4997698000009,1005,24,female,True
663,0.4849399868747158,25,up,up,0.5462373000009393,0.8502505716161897,,experiment,cRDM,2.0,,,,1895.1497122,1005,24,female,True
664,130.0,25,M,up,0.6991144999992684,1.680603347945951,,experiment,emotion,3.0,,,,1906.9158773000015,1005,24,female,True
665,105.0,25,M,down,0.7547502999987046,1.3470887054079457,,experiment,emotion,3.0,,,,1909.2491906,1005,24,female,True
666,122.0,25,F,up,1.1828310999990208,0.5244168743805987,,experiment,emotion,3.0,,,,1910.7991127999996,1005,24,female,True
667,130.0,25,F,up,0.829946399997425,1.1823211078539,,experiment,emotion,3.0,,,,1913.4490363000004,1005,24,female,True
668,122.0,25,M,,,1.223832588861243,,experiment,emotion,3.0,,,,1915.7822818000025,1005,24,female,True
669,113.0,25,F,up,1.055826600000728,1.7504729365647176,,experiment,emotion,3.0,,,,1920.232129,1005,24,female,True
670,105.0,25,M,up,0.6078949000002467,0.7065553332862793,,experiment,emotion,3.0,,,,1922.282061400001,1005,24,female,True
671,113.0,25,M,up,0.9850857999990694,1.262588595133682,,experiment,emotion,3.0,,,,1924.4319572999996,1005,24,female,True
672,130.0,25,F,up,0.6844266000007337,0.4051844407990647,,experiment,emotion,3.0,,,,1926.0985365000013,1005,24,female,True
673,113.0,25,F,up,0.9502470000006724,1.880336174013004,,experiment,emotion,3.0,,,,1928.9317279000024,1005,24,female,True
674,122.0,25,F,up,0.8289363000003505,1.293478876430623,,experiment,emotion,3.0,,,,1931.4650262,1005,24,female,True
675,130.0,25,F,up,0.64570200000162,0.923221537760851,,experiment,emotion,3.0,,,,1933.4982743,1005,24,female,True
676,122.0,25,F,up,0.4863753000026918,0.9267059609824068,,experiment,emotion,3.0,,,,1935.3315724999995,1005,24,female,True
677,105.0,25,F,down,0.6547525000023597,0.7578724615957924,,experiment,emotion,3.0,,,,1936.848186700001,1005,24,female,True
678,113.0,25,M,up,0.7134079999996175,1.925691073475368,,experiment,emotion,3.0,,,,1939.7145361000005,1005,24,female,True
679,105.0,25,M,down,0.6072924999971292,0.5644726399586384,,experiment,emotion,3.0,,,,1941.2646755000023,1005,24,female,True
680,130.0,25,M,up,0.5336462000013853,0.4406600838849509,,experiment,emotion,3.0,,,,1942.5812848999997,1005,24,female,True
681,105.0,25,M,down,0.4168002000005799,1.1107585207940398,,experiment,emotion,3.0,,,,1944.4812335000024,1005,24,female,True
682,122.0,25,F,down,0.9454428999997616,0.5017485763681978,,experiment,emotion,3.0,,,,1945.6644978000004,1005,24,female,True
683,122.0,25,M,down,0.608921700000792,0.7469590978199625,,experiment,emotion,3.0,,,,1947.631045099999,1005,24,female,True
684,113.0,25,M,down,1.5145281000004616,1.3125398294392556,,experiment,emotion,3.0,,,,1949.814366900002,1005,24,female,True
685,113.0,25,F,down,0.8633530999977665,0.6877479593800605,,experiment,emotion,3.0,,,,1952.2975972999996,1005,24,female,True
686,105.0,25,M,down,1.5729599999976926,1.3044097447724674,,experiment,emotion,3.0,,,,1954.7139835000016,1005,24,female,True
687,130.0,25,F,up,0.7149981000002299,0.9424263002688168,,experiment,emotion,3.0,,,,1957.5139421000024,1005,24,female,True
688,122.0,25,F,up,1.0086026999997555,1.5483168124418714,,experiment,emotion,3.0,,,,1960.0473411999992,1005,24,female,True
689,105.0,25,M,down,0.6822969000022567,1.9877375941853284,,experiment,emotion,3.0,,,,1963.313747,1005,24,female,True
690,130.0,25,M,up,0.6444748000030813,0.7076884624749915,,experiment,emotion,3.0,,,,1964.9804573,1005,24,female,True
691,130.0,25,F,up,0.8775604000002204,0.7386885610001519,,experiment,emotion,3.0,,,,1966.6304076000013,1005,24,female,True
692,113.0,25,M,down,0.7916172000004735,1.1441218297831228,,experiment,emotion,3.0,,,,1968.9303236000012,1005,24,female,True
693,105.0,25,F,down,0.5605093000012857,0.4151667611748289,,experiment,emotion,3.0,,,,1970.4134641000016,1005,24,female,True
694,113.0,25,F,down,0.4277853999992658,0.6227462380640003,,experiment,emotion,3.0,,,,1971.8801764000016,1005,24,female,True
695,122.0,25,F,down,0.4002089999994496,0.4761417012376697,,experiment,emotion,3.0,,,,1973.063488,1005,24,female,True
696,105.0,25,M,down,0.4608158000010007,0.8289540528436254,,experiment,emotion,3.0,,,,1974.5801139,1005,24,female,True
697,130.0,25,M,up,0.5579268000001321,1.706851623046122,,experiment,emotion,3.0,,,,1977.0300328000008,1005,24,female,True
698,122.0,25,M,up,0.5523743000012473,0.9982817533847153,,experiment,emotion,3.0,,,,1978.8465896000016,1005,24,female,True
699,130.0,25,F,up,0.562848399997165,0.9453470883087508,,experiment,emotion,3.0,,,,1980.6131442000003,1005,24,female,True
700,105.0,25,F,down,0.6124817000018083,1.5650618317212253,,experiment,emotion,3.0,,,,1982.996450999999,1005,24,female,True
701,122.0,25,M,up,0.6795142999981181,0.570029706258731,,experiment,emotion,3.0,,,,1984.4464129000007,1005,24,female,True
702,113.0,25,F,up,0.8979850000032457,1.8217342865678976,,experiment,emotion,3.0,,,,1987.2129423000008,1005,24,female,True
703,113.0,25,M,down,0.6860763999975461,0.391845338648232,,experiment,emotion,3.0,,,,1988.7629166000008,1005,24,female,True
704,122.0,25,M,up,0.592225899999903,0.6051281690014535,,experiment,emotion,3.0,,,,1990.3127314000008,1005,24,female,True
705,130.0,25,M,up,0.6485743999983242,1.765501955792158,,experiment,emotion,3.0,,,,1992.9294209,1005,24,female,True
706,113.0,25,F,up,0.6045875000017986,0.8232679387978385,,experiment,emotion,3.0,,,,1994.6793505999997,1005,24,female,True
707,105.0,25,F,down,1.2869944000012763,1.093611494418778,,experiment,emotion,3.0,,,,1996.6459514000016,1005,24,female,True
708,105.0,25,M,down,0.51048720000108,1.5192187098676069,,experiment,emotion,3.0,,,,1999.712443100001,1005,24,female,True
709,113.0,25,F,down,1.0511600999998336,1.2534686440937268,,experiment,emotion,3.0,,,,2001.7457695000007,1005,24,female,True
710,130.0,25,F,down,1.3845418999990216,0.9299459877624828,,experiment,emotion,3.0,,,,2004.012348100001,1005,24,female,True
711,122.0,25,M,up,0.996781000001647,1.5277821728068577,,experiment,emotion,3.0,,,,2007.2121770000008,1005,24,female,True
712,105.0,25,M,down,0.9588622000010218,1.2061008395747987,,experiment,emotion,3.0,,,,2009.712132100001,1005,24,female,True
713,130.0,25,F,down,1.0695621000013489,1.9436711470491728,,experiment,emotion,3.0,,,,2012.8953659,1005,24,female,True
714,122.0,25,M,,,1.3563232058633474,,experiment,emotion,3.0,,,,2015.595244,1005,24,female,True
715,122.0,25,F,up,0.9257746000002952,0.7799113700801836,,experiment,emotion,3.0,,,,2019.0451336000008,1005,24,female,True
716,105.0,25,F,,,0.8724717709025738,,experiment,emotion,3.0,,,,2021.128412099999,1005,24,female,True
717,113.0,25,F,down,0.5170456000014383,1.749731795755397,,experiment,emotion,3.0,,,,2025.5948762000007,1005,24,female,True
718,130.0,25,M,down,1.2021492999992915,1.3558790324344048,,experiment,emotion,3.0,,,,2027.7447987000012,1005,24,female,True
719,113.0,25,M,down,0.6192260999996506,0.9697807091248234,,experiment,emotion,3.0,,,,2030.1946974999992,1005,24,female,True
720,113.0,25,F,down,0.6832985999972152,1.4130628561501022,,experiment,emotion,3.0,,,,2032.4946253000016,1005,24,female,True
721,113.0,25,F,down,0.8370390000018233,1.2246458834222842,,experiment,emotion,3.0,,,,2034.6778799999995,1005,24,female,True
722,130.0,25,M,up,0.7478029000012612,1.7785565437017068,,experiment,emotion,3.0,,,,2037.5611186000024,1005,24,female,True
723,122.0,25,M,down,0.7411788999997952,0.4831056218216424,,experiment,emotion,3.0,,,,2039.077767499999,1005,24,female,True
724,105.0,25,M,down,0.6251775999990059,1.8967415252421764,,experiment,emotion,3.0,,,,2042.010743499999,1005,24,female,True
725,105.0,25,M,down,0.6334860999995726,0.92126511209348,,experiment,emotion,3.0,,,,2043.8274499,1005,24,female,True
726,122.0,25,M,down,0.7004229999984091,0.7605275767922874,,experiment,emotion,3.0,,,,2045.477483999999,1005,24,female,True
727,130.0,25,F,down,0.5641919000008784,1.555665798469211,,experiment,emotion,3.0,,,,2048.0107258000025,1005,24,female,True
728,130.0,25,F,up,0.9079577999982577,1.5047582241749364,,experiment,emotion,3.0,,,,2050.343966700002,1005,24,female,True
729,105.0,25,M,down,0.5870476999989478,0.8762059452947581,,experiment,emotion,3.0,,,,2052.3938904000024,1005,24,female,True
