,stimLvl,stimTime,rand,response,rt,precedingITI,trialNumber,trialType,stimuli,block,estIntens,estThres,estSlope,trialStart,subject,age,gender,headRest
0,150.0,100,F,,,0.9382687218570352,,introTrial,emotion,,,,,116.1067550999578,19,24,female,True
1,0.9,100,down,,,1.236907986874852,,introTrial,cRDM,,,,,121.2731498000212,19,24,female,True
2,0.9,25,up,up,0.6752486999612302,1.9237567748388056,,tutorial,cRDM,,,,,165.22178289992735,19,24,female,True
3,0.9,25,down,down,0.4790018000639975,1.0503151738944725,,tutorial,cRDM,,,,,167.2050459999591,19,24,female,True
4,0.9,25,down,down,0.5420129999984056,0.757945084281765,,tutorial,cRDM,,,,,168.7050106000388,19,24,female,True
5,0.9,25,down,down,0.4935159999877214,1.3065262481470885,,tutorial,cRDM,,,,,170.821576599963,19,24,female,True
6,0.9,25,up,up,0.4002240999834612,0.6185930690907537,,tutorial,cRDM,,,,,172.20488189999014,19,24,female,True
7,0.9,25,down,down,0.383814400061965,1.8424225673105428,,tutorial,cRDM,,,,,174.75476619997062,19,24,female,True
8,0.9,25,up,up,0.4756860000779852,0.5710262189278482,,tutorial,cRDM,,,,,176.02138299995568,19,24,female,True
9,0.9,25,up,up,0.6113679999252781,0.5961329234767939,,tutorial,cRDM,,,,,177.3546711000381,19,24,female,True
10,0.9,25,up,up,0.5274474000325426,1.51429275506509,,tutorial,cRDM,,,,,179.7545821999665,19,24,female,True
11,0.9,25,down,down,0.4168289001099765,1.5301397495871918,,tutorial,cRDM,,,,,182.08785779995375,19,24,female,True
12,200.0,25,M,up,0.5162087999051437,0.7559251282819546,,tutorial,emotion,,,,,188.67090389993973,19,24,female,True
13,200.0,25,M,up,0.4834839999675751,1.2496854091348206,,tutorial,emotion,,,,,190.7375128000276,19,24,female,True
14,200.0,25,F,up,0.5019259999971837,0.8418579292907944,,tutorial,emotion,,,,,192.3541196000297,19,24,female,True
15,0.0,25,F,down,0.350204800022766,0.7991826204533232,,tutorial,emotion,,,,,193.95405569998547,19,24,female,True
16,0.0,25,M,down,0.4880601000040769,0.4022170496503764,,tutorial,emotion,,,,,195.05400460003875,19,24,female,True
17,200.0,25,F,up,0.5314407000551,1.087688896623605,,tutorial,emotion,,,,,196.92061539995484,19,24,female,True
18,0.0,25,M,down,0.4169123000465333,0.3206145532184681,,tutorial,emotion,,,,,198.07049449998885,19,24,female,True
19,200.0,25,M,down,0.8468793000793085,0.7958295075613913,,tutorial,emotion,,,,,199.5871886999812,19,24,female,True
20,0.0,25,F,down,0.6222736000781879,0.3425077252738085,,tutorial,emotion,,,,,201.0537839999888,19,24,female,True
21,0.0,25,F,down,0.6742582999868318,0.3345852510726411,,tutorial,emotion,,,,,202.303754499997,19,24,female,True
22,0.29,25,up,up,0.5996128000551835,0.9310289743455312,,psi_staircase_training,cRDM,,0.25,0.2569312402994632,0.105,210.90344969998117,19,24,female,True
23,0.25,25,up,up,0.5129961000056937,1.848184295770474,,psi_staircase_training,cRDM,,0.2191026665318312,0.2260132002683492,0.1046863203387393,213.62000510003415,19,24,female,True
24,0.21,25,down,down,0.4368191000539809,1.8497772601614089,,psi_staircase_training,cRDM,,0.1900540959403307,0.1968497961554001,0.1029467298424999,216.2532192999497,19,24,female,True
25,0.18,25,down,down,0.5379197999136522,1.8883063442741088,,psi_staircase_training,cRDM,,0.1635257589279754,0.1701521334256793,0.1003816477568649,218.8531270000385,19,24,female,True
26,0.15,25,up,up,0.5193036999553442,0.3691710102122851,,psi_staircase_training,cRDM,,0.1401895574244936,0.1466013351187503,0.0971307628663642,220.01976970001124,19,24,female,True
27,0.13,25,down,down,0.4002576000057161,1.8098338715146152,,psi_staircase_training,cRDM,,0.1198760602145479,0.1260554767618333,0.0936107694196103,222.61967139993797,19,24,female,True
28,0.11,25,up,up,0.5477708999533206,1.471505592188646,,psi_staircase_training,cRDM,,0.1025773523696548,0.1084910344569865,0.0895852101993795,224.7862875999417,19,24,female,True
29,0.09,25,down,down,0.5534993000328541,1.690296267569566,,psi_staircase_training,cRDM,,0.087844325958594,0.0934818215320969,0.0854013148647635,227.31949689995963,19,24,female,True
30,0.08,25,down,up,0.4002662999555468,1.8866551261493667,,psi_staircase_training,cRDM,,0.0751852092118086,0.0805556301471181,0.0813554535472043,230.0360703000333,19,24,female,True
31,0.13,25,up,up,0.8013977999798954,1.2674297847909504,,psi_staircase_training,cRDM,,0.1145374077699418,0.1210371210567565,0.0984628819128368,232.00265879998915,19,24,female,True
32,0.13,25,down,down,0.7423849999904633,0.5135136198846577,,psi_staircase_training,cRDM,,0.1023941484636293,0.108577482786431,0.0936701190325844,233.60262579994745,19,24,female,True
33,0.12,25,down,down,0.7741737000178546,0.6273626095548985,,psi_staircase_training,cRDM,,0.093157405715179,0.098965388034743,0.0879839851464166,235.23586979997344,19,24,female,True
34,0.11,25,down,up,0.612621400039643,0.472527325730404,,psi_staircase_training,cRDM,,0.0859226620933624,0.0913701323342403,0.0825226583669993,236.75247049995232,19,24,female,True
35,0.15,25,up,up,0.5748825999908149,0.5328725020696641,,psi_staircase_training,cRDM,,0.1141934167107672,0.1210637349535964,0.1040771037115722,238.16912690002937,19,24,female,True
36,0.15,25,up,up,0.5946306000696495,0.9968405798932116,,psi_staircase_training,cRDM,,0.1056649708055436,0.1121603851274255,0.0983977577361473,240.0023825999815,19,24,female,True
37,0.14,25,down,down,0.5137617000145838,1.5929220572785052,,psi_staircase_training,cRDM,,0.0994886542311826,0.105585160193164,0.0923547732225673,242.45225430000573,19,24,female,True
38,0.14,25,down,down,0.6164934999542311,1.688251862007856,,psi_staircase_training,cRDM,,0.0948654236731782,0.1005718761515546,0.0864459294934451,244.9355143000139,19,24,female,True
39,0.1,25,up,up,0.4578884000657126,0.8127751915711092,,psi_staircase_training,cRDM,,0.0916829557289141,0.0970003570555478,0.0805522698931343,246.6521039999789,19,24,female,True
40,0.1,25,up,down,0.469660000060685,1.9848944456703217,,psi_staircase_training,cRDM,,0.0847774424416532,0.0904758612145288,0.0863242284643157,249.38537729997188,19,24,female,True
41,0.14,25,up,up,0.5431236999575049,1.8735108695792808,,psi_staircase_training,cRDM,,0.1026549570571436,0.1076155068231541,0.0751463955839825,252.00192509999036,19,24,female,True
42,0.14,25,up,up,0.4618427000241354,1.773665647193015,,psi_staircase_training,cRDM,,0.1002622889394677,0.1048145591645115,0.0689614488862284,254.58518970001023,19,24,female,True
43,0.12,25,down,down,0.6766314998967573,1.230545570054339,,psi_staircase_training,cRDM,,0.098790270288538,0.102958673115742,0.0631463169571986,256.55174459994305,19,24,female,True
44,0.11,25,down,down,0.5926924999803305,1.2132593691071218,,psi_staircase_training,cRDM,,0.0959895079410433,0.1000506512077823,0.0615214629105567,258.7183558000252,19,24,female,True
45,0.09,25,down,down,0.7015409000450745,1.2789897659084688,,psi_staircase_training,cRDM,,0.0919325777399079,0.0961593962019823,0.0640312439538666,260.86852989997715,19,24,female,True
46,0.09,25,up,up,0.5047829999821261,1.065378133305454,,psi_staircase_training,cRDM,,0.0854233563975856,0.0903656030289072,0.0748691249860368,262.9182102000341,19,24,female,True
47,0.09,25,up,up,0.4846239000326022,1.794704262254601,,psi_staircase_training,cRDM,,0.0785767583282905,0.0841962461781089,0.085128519390191,265.5014318999601,19,24,female,True
48,0.08,25,down,down,0.4833317999728024,0.8234772631550731,,psi_staircase_training,cRDM,,0.0718402395561813,0.0780473330480683,0.0940300420256104,267.0847606000025,19,24,female,True
49,0.08,25,down,down,0.5847297000000253,1.2182970648282103,,psi_staircase_training,cRDM,,0.065042171059889,0.0718397665439395,0.1029754409006087,269.0682657000143,19,24,female,True
50,0.08,25,up,up,0.4364972000475973,1.3830955049374376,,psi_staircase_training,cRDM,,0.058882345418044,0.0661272725911044,0.1097519809304911,271.33455969998613,19,24,female,True
51,0.08,25,up,down,0.6064632999477908,0.3528383737758273,,psi_staircase_training,cRDM,,0.0535275708494136,0.0610775505390479,0.1143731616797347,272.3845441000303,19,24,female,True
52,100.0,25,M,down,0.6648362000705674,1.9937505539120368,,psi_staircase_training,emotion,,100.0,100.0,25.00050000000001,280.5341988999862,19,24,female,True
53,145.0,25,M,up,1.1532339000841605,0.8910204903081553,,psi_staircase_training,emotion,,145.25719053245996,145.25719053245996,25.00050000000028,282.4507985999808,19,24,female,True
54,121.0,25,F,up,0.5709658999694511,1.0228422034112552,,psi_staircase_training,emotion,,120.36392901436103,120.36392901436103,25.71326925488699,284.984047099948,19,24,female,True
55,97.0,25,F,down,0.6904763000784442,1.953852697288288,,psi_staircase_training,emotion,,102.3887610608496,102.3887610608496,26.14633372628729,287.86753789999057,19,24,female,True
56,113.0,25,M,up,0.7185958999907598,1.651960607931554,,psi_staircase_training,emotion,,114.01123255420406,114.01123255420406,23.00305641778335,290.567457200028,19,24,female,True
57,105.0,25,F,up,0.9242036999203264,0.5966316455439606,,psi_staircase_training,emotion,,104.94359593877375,104.94359593877375,22.15060322358215,292.2337715999456,19,24,female,True
58,92.0,25,M,up,0.6956792999990284,1.289230025561632,,psi_staircase_training,emotion,,97.32104229908208,97.32104229908208,23.93307361449055,294.8003556999611,19,24,female,True
59,74.0,25,F,down,0.6311127000954002,0.8587620875084714,,psi_staircase_training,emotion,,86.47781129474322,86.47781129474322,31.611106717664093,296.71695769997314,19,24,female,True
60,78.0,25,F,down,0.6794172000372782,0.4917086851707221,,psi_staircase_training,emotion,,92.62262149239127,92.62262149239127,29.23899594163133,298.18357079999987,19,24,female,True
61,80.0,25,M,down,1.1112079999875275,0.7088406606566949,,psi_staircase_training,emotion,,96.600439253128,96.600439253128,27.10265348372516,299.9168335000286,19,24,female,True
62,115.0,25,F,up,0.7246622999664396,1.0645634663104484,,psi_staircase_training,emotion,,99.31700566148264,99.31700566148264,25.224425752927285,302.4334067000309,19,24,female,True
63,81.0,25,F,up,0.5906365000410005,0.4721508164804989,,psi_staircase_training,emotion,,97.09203600605318,97.09203600605318,23.38137491483773,303.98336219997145,19,24,female,True
64,69.0,25,F,down,0.6357466999907047,1.9506083452548928,,psi_staircase_training,emotion,,90.82289761999787,90.82289761999787,29.67906932052525,306.8832541999873,19,24,female,True
65,71.0,25,M,down,0.5618570999940857,1.4033877762206082,,psi_staircase_training,emotion,,92.89794236169143,92.89794236169143,28.16402140789405,309.28316859994084,19,24,female,True
66,115.0,25,M,up,0.8262564999749884,1.0242531514920352,,psi_staircase_training,emotion,,94.53200824805464,94.53200824805464,26.774399023655214,311.199740299955,19,24,female,True
67,72.0,25,F,down,0.9114296999759972,0.7878369809123547,,psi_staircase_training,emotion,,93.02066650761418,93.02066650761418,25.36545242338425,313.14969939994626,19,24,female,True
68,114.0,25,F,up,0.7094081999966875,0.9545236648957314,,psi_staircase_training,emotion,,94.28163060845456,94.28163060845456,23.998771166319187,315.3665477000177,19,24,female,True
69,73.0,25,M,down,0.7924869999988005,1.967793741749103,,psi_staircase_training,emotion,,93.1042148683568,93.1042148683568,22.644427427657877,318.3995031999657,19,24,female,True
70,112.0,25,M,down,1.201277200016193,1.4872471611491644,,psi_staircase_training,emotion,,94.08544729858733,94.08544729858733,21.37658885859889,321.0327209000243,19,24,female,True
71,122.0,25,M,up,0.5551321000093594,0.7857806072191502,,psi_staircase_training,emotion,,98.10728158441556,98.10728158441556,26.520678930927684,323.3658840999706,19,24,female,True
72,121.0,25,M,up,0.6187874999595806,0.4942674771795687,,psi_staircase_training,emotion,,97.09933631301529,97.09933631301529,25.34637352666229,324.7492391000269,19,24,female,True
73,74.0,25,F,down,0.7864500000141561,0.6664699863406642,,psi_staircase_training,emotion,,96.27063260849752,96.27063260849752,24.273927496781056,326.38254919997416,19,24,female,True
74,119.0,25,F,up,0.5909211999969557,1.1241517384632356,,psi_staircase_training,emotion,,97.11600150070204,97.11600150070204,23.18896077794952,328.6490985000273,19,24,female,True
75,76.0,25,F,down,0.7069456001045182,1.322799803468059,,psi_staircase_training,emotion,,96.39480888127548,96.39480888127548,22.19132470450644,330.89905829995405,19,24,female,True
76,118.0,25,M,up,0.6008287000004202,0.7147000696772977,,psi_staircase_training,emotion,,97.13766258532118,97.13766258532118,21.201636932499326,332.666199499974,19,24,female,True
77,78.0,25,M,down,0.7551776999607682,1.9714017003397064,,psi_staircase_training,emotion,,96.52996433570948,96.52996433570948,20.31436966908717,335.59885920002125,19,24,female,True
78,79.0,25,F,,,0.9673020371318664,,psi_staircase_training,emotion,,97.19903020748322,97.19903020748322,19.437211138092906,337.68211389996577,19,24,female,True
79,79.0,25,F,down,1.5019885000074282,0.9673020371318664,,psi_staircase_training,emotion,,97.19903020748322,97.19903020748322,19.437211138092906,341.3319885999663,19,24,female,True
80,116.0,25,F,up,0.7491330000339076,0.8050664671474497,,psi_staircase_training,emotion,,97.78223382448203,97.78223382448203,18.657683862519907,343.9818837000057,19,24,female,True
81,82.0,25,M,down,1.269657399971038,1.7837672980028283,,psi_staircase_training,emotion,,97.2288166391686,97.2288166391686,17.901075183315328,346.8653747999342,19,24,female,True
82,114.0,25,M,up,0.8121376999188215,1.894648289649712,,psi_staircase_training,emotion,,97.8263223200755,97.8263223200755,17.22064245071021,350.3648850999307,19,24,female,True
83,0.29,25,up,up,0.5837238999083638,1.9098449719936053,,psi_staircase,cRDM,,0.25,0.2569312402994632,0.105,366.56426719995216,19,24,female,True
84,0.25,25,up,up,0.5433878999901935,1.7035649549167986,,psi_staircase,cRDM,,0.2191026665318312,0.2260132002683492,0.1046863203387393,369.097617899999,19,24,female,True
85,0.21,25,down,down,0.4254218999994918,1.147532961030167,,psi_staircase,cRDM,,0.1900540959403307,0.1968497961554001,0.1029467298424999,371.0475781999994,19,24,female,True
86,0.18,25,down,down,0.5751838000724092,0.802114534180608,,psi_staircase,cRDM,,0.1635257589279754,0.1701521334256793,0.1003816477568649,372.5308326999657,19,24,female,True
87,0.15,25,up,up,0.5612412999616936,0.4090349128389602,,psi_staircase,cRDM,,0.1401895574244936,0.1466013351187503,0.0971307628663642,373.7807901999913,19,24,female,True
88,0.13,25,down,down,0.6466220000293106,1.697658432705284,,psi_staircase,cRDM,,0.1198760602145479,0.1260554767618333,0.0936107694196103,376.2973637999967,19,24,female,True
89,0.11,25,up,up,0.5823710999684408,1.715970322350189,,psi_staircase,cRDM,,0.1025773523696548,0.1084910344569865,0.0895852101993795,378.9305973999435,19,24,female,True
90,0.09,25,up,down,1.210800000000745,0.9493438625711216,,psi_staircase,cRDM,,0.087844325958594,0.0934818215320969,0.0854013148647635,380.7471896000207,19,24,female,True
91,0.15,25,down,down,0.7012140000006184,0.7807271649988069,,psi_staircase,cRDM,,0.131559124731803,0.1381188895520143,0.0993725908154588,383.0137836999493,19,24,female,True
92,0.14,25,down,down,0.9979299999540672,1.712950221960295,,psi_staircase,cRDM,,0.1176635618172359,0.1239020005991555,0.0945048856771392,385.6970627999399,19,24,female,True
93,0.13,25,down,down,0.6210649000713602,1.0831861985293465,,psi_staircase,cRDM,,0.106749225970393,0.1126411889911647,0.0892561923194218,388.0469141999493,19,24,female,True
94,0.12,25,down,down,0.5995274999877438,0.932785616550863,,psi_staircase,cRDM,,0.0981142898579903,0.1036778774167202,0.0842816968431869,389.86341410002206,19,24,female,True
95,0.12,25,down,down,0.7782364999875426,0.4693472481445426,,psi_staircase,cRDM,,0.0909622150781176,0.0962626731048912,0.0802955991663315,391.1968164999271,19,24,female,True
96,0.09,25,down,up,0.5500584999099374,1.097291790919265,,psi_staircase,cRDM,,0.0855532803686904,0.0905509687048282,0.0757090004995355,393.3300738999387,19,24,female,True
97,0.13,25,up,up,0.6390069999033585,1.9929954140153612,,psi_staircase,cRDM,,0.1041348780333583,0.1084244832016797,0.0649823874536027,396.1299755999353,19,24,female,True
98,0.13,25,up,down,0.6661248999880627,0.8002573268859143,,psi_staircase,cRDM,,0.1000979695976345,0.1039880748993266,0.0589304423205898,397.829899400007,19,24,female,True
99,0.15,25,up,up,0.7088539999676868,0.5957800035242083,,psi_staircase,cRDM,,0.1213236617475365,0.1281864229749844,0.1039626239675797,399.3631993000163,19,24,female,True
100,0.15,25,up,down,0.909869399969466,0.7897565643343731,,psi_staircase,cRDM,,0.113445530900913,0.1199115201446373,0.0979520029977358,401.1131142999511,19,24,female,True
101,0.19,25,down,down,0.7496398999355733,1.362839289911944,,psi_staircase,cRDM,,0.1455543752539801,0.1543455383896111,0.1331756062926778,403.6463499999372,19,24,female,True
102,0.18,25,up,up,0.6776065999874845,0.4227483014800129,,psi_staircase,cRDM,,0.1345833350605051,0.1431912975885431,0.1304003362160126,405.07962700002827,19,24,female,True
103,0.17,25,up,up,0.752797199995257,1.8243977128471789,,psi_staircase,cRDM,,0.125542527826427,0.1339349911074625,0.1271357803850737,407.8461855000351,19,24,female,True
104,0.17,25,down,down,0.662090600002557,0.4998084610415542,,psi_staircase,cRDM,,0.1180120498245583,0.1261734718796332,0.1236357821628586,409.36285779997706,19,24,female,True
105,0.14,25,up,up,0.4875886000227183,1.937192080908436,,psi_staircase,cRDM,,0.112007715273358,0.1199050134811709,0.1196346217984347,412.229396199924,19,24,female,True
106,0.14,25,down,down,0.6273008999414742,0.5379152707487252,,psi_staircase,cRDM,,0.1055748199308869,0.1133972069534981,0.1184998069447667,413.51266040001065,19,24,female,True
107,0.14,25,down,down,0.4927308999467641,0.7191936794546145,,psi_staircase,cRDM,,0.1001907075383619,0.1078725317677411,0.1163704487560876,415.1292570999358,19,24,female,True
108,0.15,25,up,up,0.6830403000349179,0.3622083158397143,,psi_staircase,cRDM,,0.0957677483682136,0.1032573403825731,0.1134583606297198,416.2459184000036,19,24,female,True
109,0.12,25,up,up,0.7447625999338925,0.845661496292976,,psi_staircase,cRDM,,0.092748521246824,0.0999490487712245,0.109079379360227,418.0291734000202,19,24,female,True
110,0.13,25,down,up,0.6357039000140503,1.918182396419154,,psi_staircase,cRDM,,0.0880102445809345,0.0952478133579643,0.1096405100320899,420.9623734999914,19,24,female,True
111,0.16,25,up,up,0.5666804000502452,1.559148851983515,,psi_staircase,cRDM,,0.1022957028952071,0.1104080912653567,0.1228929804859991,423.4122995999642,19,24,female,True
112,0.11,25,down,down,0.515813700039871,1.8818961671568373,,psi_staircase,cRDM,,0.0992166863369565,0.1070651409661483,0.1188947000046966,426.1122025999939,19,24,female,True
113,0.11,25,down,down,0.6606843000045046,0.3637348293735472,,psi_staircase,cRDM,,0.0929833364016807,0.1012227502546259,0.1248172646136992,427.26233019994106,19,24,female,True
114,0.11,25,down,down,0.7565607000142336,0.8708770303027584,,psi_staircase,cRDM,,0.0872746414590577,0.0957935404818269,0.1290511306410807,429.0454198999796,19,24,female,True
115,0.11,25,up,up,0.5916472000535578,1.175164891690005,,psi_staircase,cRDM,,0.0821440212188482,0.0908468309754776,0.1318371582813037,431.2453339999775,19,24,female,True
116,0.12,25,up,up,0.5714011999079958,1.1404920637734162,,psi_staircase,cRDM,,0.0775813705200959,0.0863906592414053,0.1334501872354818,433.2286182999378,19,24,female,True
117,0.12,25,up,down,0.8911560999695212,1.8542404535425008,,psi_staircase,cRDM,,0.073949830143016,0.0827361314022813,0.1331019546810831,435.9118325000163,19,24,female,True
118,0.11,25,down,down,0.7381348999915645,0.5757042091372764,,psi_staircase,cRDM,,0.0869960117907959,0.0960292066677619,0.1368420976769294,437.6448850999586,19,24,female,True
119,0.1,25,down,up,0.9806217999430372,0.9355853188825748,,psi_staircase,cRDM,,0.0823566562602872,0.0915379038297655,0.13908491888095,439.5784059999278,19,24,female,True
120,0.16,25,up,up,0.7737623000284657,1.9171941646303168,,psi_staircase,cRDM,,0.0956287983125494,0.1044055447520972,0.132957210590993,442.7282537999563,19,24,female,True
121,0.1,25,down,down,0.849422900006175,1.0468159375455883,,psi_staircase,cRDM,,0.0930977583739482,0.1016770333922301,0.1299657547566719,444.811510700034,19,24,female,True
122,0.1,25,up,up,0.7042187999468297,0.5164737500667236,,psi_staircase,cRDM,,0.0881247029623775,0.0970054152120946,0.1345321682603492,446.44476280000526,19,24,female,True
123,0.1,25,up,down,0.9388758999994024,1.1218488575952972,,psi_staircase,cRDM,,0.0835488941571796,0.0926485019849386,0.1378481744441438,448.52805379999336,19,24,female,True
124,0.16,25,up,up,0.7766744999680668,0.872949833811669,,psi_staircase,cRDM,,0.0959722750490584,0.1046173017986329,0.1309618148393464,450.61132539995015,19,24,female,True
125,0.1,25,down,down,0.738131400081329,1.5171925729297733,,psi_staircase,cRDM,,0.0938032659248984,0.102240842133881,0.1278191872833753,453.1778933999594,19,24,female,True
126,0.1,25,down,down,0.7295587999979034,1.6129961317967791,,psi_staircase,cRDM,,0.0890694475008808,0.0978307165307631,0.1327227463472697,455.7944358999375,19,24,female,True
127,0.1,25,up,up,0.6363202000502497,1.4355856721505582,,psi_staircase,cRDM,,0.0847052827076903,0.0937055040761719,0.1363425884633878,458.22770309995394,19,24,female,True
128,0.09,25,down,down,0.608759600087069,1.15635715832683,,psi_staircase,cRDM,,0.0807072251883419,0.0898783125070186,0.1389310032340999,460.294257099973,19,24,female,True
129,0.17,25,down,down,0.6378350000595674,1.570351431396842,,psi_staircase,cRDM,,0.0769103875059293,0.0862326293092594,0.1412208128789673,462.744174499996,19,24,female,True
130,0.09,25,up,up,0.5678645999869332,0.9024059914955675,,psi_staircase,cRDM,,0.0751640158676053,0.084363896519808,0.1393671877969773,464.5441071999958,19,24,female,True
131,0.17,25,up,up,0.8289680000161752,0.6698605599665202,,psi_staircase,cRDM,,0.0717073449841654,0.0810250526153485,0.1411521255943163,466.0440490000183,19,24,female,True
132,0.09,25,down,down,0.6127073999959975,1.5884691026013458,,psi_staircase,cRDM,,0.070159781041131,0.0793639364924611,0.1394319458906216,468.727297800011,19,24,female,True
133,100.0,25,M,up,0.8420780000742525,1.949957953491657,,psi_staircase,emotion,,100.0,100.0,25.00050000000001,479.67690169997513,19,24,female,True
134,55.0,25,M,down,0.6671990000177175,1.023737333282284,,psi_staircase,emotion,,54.7428094675419,54.7428094675419,25.00050000000011,481.87682100001257,19,24,female,True
135,79.0,25,F,down,1.3575577998999506,0.8943235636752573,,psi_staircase,emotion,,79.636070985635,79.636070985635,25.713269254886413,483.7934431999456,19,24,female,True
136,103.0,25,F,up,0.431969300028868,0.7016279376389118,,psi_staircase,emotion,,97.61123893914808,97.61123893914808,26.1463337262867,486.20998709998094,19,24,female,True
137,87.0,25,M,down,0.9243734000483528,0.8745100781324793,,psi_staircase,emotion,,85.98876744579668,85.98876744579668,23.003056417783498,487.8766064000083,19,24,female,True
138,95.0,25,F,up,0.7735217000590637,1.7347450615334572,,psi_staircase,emotion,,95.05640406123077,95.05640406123077,22.150603223582728,490.87649249995593,19,24,female,True
139,84.0,25,M,down,1.4855224000057206,0.7807602478298844,,psi_staircase,emotion,,88.41622646561945,88.41622646561945,20.597853251064077,492.7764523000224,19,24,female,True
140,92.0,25,F,up,0.6454357000766322,1.7557288721844193,,psi_staircase,emotion,,92.48012886422012,92.48012886422012,17.547034846052444,496.3595413999865,19,24,female,True
141,84.0,25,F,up,0.986148600000888,1.6682312588216588,,psi_staircase,emotion,,88.47501306238608,88.47501306238608,16.344870876655484,498.9928617000114,19,24,female,True
142,71.0,25,M,up,0.7352441999828443,1.8814445979115395,,psi_staircase,emotion,,83.10533381706729,83.10533381706729,23.858932145845728,502.19273060001433,19,24,female,True
143,57.0,25,F,up,0.5632927999831736,0.6227199632804876,,psi_staircase,emotion,,75.78496656206578,75.78496656206578,31.228802366190468,503.8926782000344,19,24,female,True
144,47.0,25,F,down,0.5457076999591663,1.0737157276423257,,psi_staircase,emotion,,67.7258640881999,67.7258640881999,36.08241476512544,505.8592846000101,19,24,female,True
145,49.0,25,F,up,0.7700661999406293,1.10874960252785,,psi_staircase,emotion,,70.86854104026828,70.86854104026828,34.89813424079888,507.8758918000385,19,24,female,True
146,42.0,25,M,down,0.8979139999719337,1.3854455298405983,,psi_staircase,emotion,,63.92184488422365,63.92184488422365,37.96949466466688,510.4090823000297,19,24,female,True
147,43.0,25,M,down,0.9083191000390798,1.9479845550800616,,psi_staircase,emotion,,66.60344985090366,66.60344985090366,37.128674993775824,513.6256741000107,19,24,female,True
148,44.0,25,F,down,1.3681682999012992,1.836020690324088,,psi_staircase,emotion,,68.84673508158563,68.84673508158563,36.32208738795147,516.7088814999443,19,24,female,True
149,45.0,25,F,up,1.1815922999521715,1.678138492287356,,psi_staircase,emotion,,70.75514591963622,70.75514591963622,35.54817091243876,520.1254511999432,19,24,female,True
150,40.0,25,M,down,0.266833100002259,1.7175879147496742,,psi_staircase,emotion,,65.56732720855999,65.56732720855999,37.887666633450685,523.408634499996,19,24,female,True
151,93.0,25,M,up,0.5757062000920996,0.6039715709578617,,psi_staircase,emotion,,67.3041353370926,67.3041353370926,37.272361878087146,524.7752539999783,19,24,female,True
152,38.0,25,M,down,0.8424919999670237,0.9854805940811784,,psi_staircase,emotion,,65.72162463065064,65.72162463065064,36.659638634777,526.7084989999421,19,24,female,True
153,95.0,25,M,up,0.7615294998977333,0.5537461798044228,,psi_staircase,emotion,,67.13780269942451,67.13780269942451,35.98941611921551,528.4584392999532,19,24,female,True
154,37.0,25,F,down,0.6993154999800026,0.6604666533256703,,psi_staircase,emotion,,65.85016551738136,65.85016551738136,35.32289703594081,530.2416849000147,19,24,female,True
155,96.0,25,F,up,0.8434203000506386,1.3845448264888218,,psi_staircase,emotion,,67.03811966782371,67.03811966782371,34.611369703562126,532.6585877999896,19,24,female,True
156,37.0,25,F,down,0.7037956999847665,0.4771430863633446,,psi_staircase,emotion,,65.95912431004174,65.95912431004174,33.90771244309172,534.3082342999987,19,24,female,True
157,96.0,25,M,up,0.8085401999996975,1.7971685216389834,,psi_staircase,emotion,,66.98627166718566,66.98627166718566,33.16706564972018,537.1414590999484,19,24,female,True
158,37.0,25,M,down,0.7310813000658527,0.5715883433263207,,psi_staircase,emotion,,66.0525117342654,66.0525117342654,32.4396844933752,538.8578865999589,19,24,female,True
159,96.0,25,F,up,0.6507271999726072,0.6381113911808387,,psi_staircase,emotion,,66.94050471853409,66.94050471853409,31.687105009953324,540.5582566999365,19,24,female,True
160,37.0,25,F,down,0.7093939000042155,1.7868472055674098,,psi_staircase,emotion,,66.13218265365182,66.13218265365182,30.95415793951457,543.3245535999304,19,24,female,True
161,96.0,25,M,down,1.1034557999810204,1.109290728870052,,psi_staircase,emotion,,66.89981069612436,66.89981069612436,30.20867589343984,545.4745027000317,19,24,female,True
162,101.0,25,M,up,0.7479506999952719,0.8169249197478732,,psi_staircase,emotion,,70.23619013673911,70.23619013673911,33.63673720302702,547.741039399989,19,24,female,True
163,38.0,25,F,down,0.7206952000269666,1.4411259620824552,,psi_staircase,emotion,,69.46653754453894,69.46653754453894,32.98469935493984,550.2743120000232,19,24,female,True
164,101.0,25,M,up,0.6567370999837294,1.500778973166925,,psi_staircase,emotion,,70.16551767138418,70.16551767138418,32.34473100420093,552.8242180999368,19,24,female,True
165,39.0,25,F,down,0.7368413000367582,0.4865321416935942,,psi_staircase,emotion,,69.48605889178478,69.48605889178478,31.69400016691026,554.3241627999814,19,24,female,True
166,101.0,25,M,up,0.692881099996157,1.6765064643666727,,psi_staircase,emotion,,70.1278648874168,70.1278648874168,31.053281583418407,557.0740483999252,19,24,female,True
167,40.0,25,F,down,0.6760353000136092,1.590788584765457,,psi_staircase,emotion,,69.5278136199024,69.5278136199024,30.416474995895783,559.7239685000386,19,24,female,True
168,100.0,25,M,up,0.7597151999361813,0.9535253307881042,,psi_staircase,emotion,,70.1187974420049,70.1187974420049,29.787017459575857,561.7072138999356,19,24,female,True
169,40.0,25,F,down,0.6215627000201494,1.5397536455533498,,psi_staircase,emotion,,69.56691854510531,69.56691854510531,29.167864491478728,564.3573886000086,19,24,female,True
170,99.0,25,M,up,0.7016596000175923,1.809082519484366,,psi_staircase,emotion,,70.09164084966206,70.09164084966206,28.566521085380003,567.1403356000083,19,24,female,True
171,41.0,25,M,down,0.6497048999881372,1.943227147459932,,psi_staircase,emotion,,69.58193667554278,69.58193667554278,27.974676105975927,570.1402318000328,19,24,female,True
172,98.0,25,F,up,0.6946126000257209,1.0188560788815857,,psi_staircase,emotion,,70.06981840446605,70.06981840446605,27.402317424993324,572.1573543000268,19,24,female,True
173,42.0,25,F,down,0.6425723999273032,0.7321343901905588,,psi_staircase,emotion,,69.59638888077305,69.59638888077305,26.84431929225103,573.923426699941,19,24,female,True
174,97.0,25,F,down,1.5269512999802828,0.375249624764418,,psi_staircase,emotion,,70.05288718442922,70.05288718442922,26.30626875825431,575.2900458000368,19,24,female,True
175,103.0,25,M,up,0.6260112000163645,0.6257447092587824,,psi_staircase,emotion,,72.39150527754693,72.39150527754693,29.054324574669373,577.7899680000264,19,24,female,True
176,43.0,25,M,down,0.7087250000331551,0.4580125751822438,,psi_staircase,emotion,,71.95973915948072,71.95973915948072,28.519025670226227,579.2232461000094,19,24,female,True
177,102.0,25,F,up,0.5577792000258341,0.8401338619346517,,psi_staircase,emotion,,72.40015214996251,72.40015214996251,27.99467521176165,581.1231826000148,19,24,female,True
178,44.0,25,F,down,0.6577165999915451,1.43538842014579,,psi_staircase,emotion,,71.99568807729062,71.99568807729062,27.48869077251336,583.4561941999709,19,24,female,True
179,101.0,25,F,down,0.8976155000273138,1.39009708515797,,psi_staircase,emotion,,72.41364541898967,72.41364541898967,26.992433206101868,585.856358799967,19,24,female,True
180,106.0,25,M,up,0.5443755000596866,1.591725543380995,,psi_staircase,emotion,,74.54577798494986,74.54577798494986,29.643144416843352,588.6895747999661,19,24,female,True
181,44.0,25,M,down,0.6908057999098673,0.530143380930058,,psi_staircase,emotion,,74.15610340405752,74.15610340405752,29.146288196283265,590.1061723999446,19,24,female,True
182,106.0,25,M,up,0.6315750000067055,1.2019905664292945,,psi_staircase,emotion,,74.54606403006552,74.54606403006552,28.664657146618623,592.3394068999914,19,24,female,True
183,0.0670272726620893,25,down,up,1.052737000049092,0.3827908962064011,,experiment,cRDM,0.0,,,,617.9051660000114,19,24,female,True
184,0.0670272726620893,25,up,up,0.919594099977985,1.2556713572598672,,experiment,cRDM,0.0,,,,620.4883889999473,19,24,female,True
185,0.0670272726620893,25,down,down,0.7733510000398383,1.3559816680336103,,experiment,cRDM,0.0,,,,623.0216373000294,19,24,female,True
186,0.0670272726620893,25,up,up,0.7567503000609577,0.3351274282085859,,experiment,cRDM,0.0,,,,624.3882403000025,19,24,female,True
187,0.0670272726620893,25,down,up,0.8244603000348434,1.869724825695426,,experiment,cRDM,0.0,,,,627.2714610999683,19,24,female,True
188,0.0670272726620893,25,down,down,0.6419963000807911,1.6848124848803954,,experiment,cRDM,0.0,,,,630.0550226999912,19,24,female,True
189,0.0670272726620893,25,up,up,0.676363299950026,1.5311068739147975,,experiment,cRDM,0.0,,,,632.5046184000093,19,24,female,True
190,0.0670272726620893,25,down,up,0.5960931000299752,1.2831786681703965,,experiment,cRDM,0.0,,,,634.7378412999678,19,24,female,True
191,0.0670272726620893,25,up,down,0.665469600004144,0.3079840115287156,,experiment,cRDM,0.0,,,,635.9045161999529,19,24,female,True
192,0.0670272726620893,25,up,up,0.5765206000069156,0.8634759738245588,,experiment,cRDM,0.0,,,,637.704415599932,19,24,female,True
193,0.0670272726620893,25,down,down,0.5123643000843003,1.403235415454818,,experiment,cRDM,0.0,,,,639.9376808999805,19,24,female,True
194,0.0670272726620893,25,up,up,0.4833481999812647,1.1820474822017095,,experiment,cRDM,0.0,,,,641.8876011000248,19,24,female,True
195,0.0670272726620893,25,up,down,0.4587852999102324,1.728158105486124,,experiment,cRDM,0.0,,,,644.3541081999429,19,24,female,True
196,0.0670272726620893,25,up,up,0.477213800069876,1.4565874744493068,,experiment,cRDM,0.0,,,,646.5207886999706,19,24,female,True
197,0.0670272726620893,25,down,down,0.9076045999536292,1.1844783517460595,,experiment,cRDM,0.0,,,,648.4373646000167,19,24,female,True
198,0.0670272726620893,25,down,down,0.5288273000624031,1.2487740592779617,,experiment,cRDM,0.0,,,,650.8542073999997,19,24,female,True
199,0.0670272726620893,25,up,up,0.4787152999779209,0.6878452483670778,,experiment,cRDM,0.0,,,,652.3372096000239,19,24,female,True
200,0.0670272726620893,25,up,down,0.7738441999536008,1.9705057374909007,,experiment,cRDM,0.0,,,,655.0371241000248,19,24,female,True
201,0.0670272726620893,25,down,down,0.8762412000214681,1.5303785320304155,,experiment,cRDM,0.0,,,,657.6037002999801,19,24,female,True
202,0.0670272726620893,25,down,up,0.7707526000449434,1.5114673175894635,,experiment,cRDM,0.0,,,,660.270259700017,19,24,female,True
203,0.0670272726620893,25,up,up,0.7434264000039548,0.9542766994424688,,experiment,cRDM,0.0,,,,662.2535483000102,19,24,female,True
204,0.0670272726620893,25,down,down,1.1168824000051245,1.24607761040582,,experiment,cRDM,0.0,,,,664.5200938000344,19,24,female,True
205,0.0670272726620893,25,up,up,0.8329371999716386,0.9768600241449568,,experiment,cRDM,0.0,,,,666.8700461999979,19,24,female,True
206,0.0670272726620893,25,down,down,1.0190434999531135,1.3056629226300394,,experiment,cRDM,0.0,,,,669.2699397000251,19,24,female,True
207,0.0670272726620893,25,down,up,1.1291802000487223,0.7641749778265003,,experiment,cRDM,0.0,,,,671.3198195999721,19,24,female,True
208,0.0670272726620893,25,up,up,0.7352337000193074,1.2695224305644723,,experiment,cRDM,0.0,,,,673.9697490999242,19,24,female,True
209,0.0670272726620893,25,up,down,0.762302799965255,1.012505574933379,,experiment,cRDM,0.0,,,,675.9696832000045,19,24,female,True
210,0.0670272726620893,25,down,down,1.0413324000546709,0.3747538289937087,,experiment,cRDM,0.0,,,,677.3696161999833,19,24,female,True
211,0.0670272726620893,25,up,up,0.8183659000787884,1.091022869932589,,experiment,cRDM,0.0,,,,679.769548399956,19,24,female,True
212,0.0670272726620893,25,down,down,0.8735265000723302,1.7054991460084157,,experiment,cRDM,0.0,,,,682.5694527999731,19,24,female,True
213,0.0670272726620893,25,up,up,0.8009137000190094,0.8282670526517262,,experiment,cRDM,0.0,,,,684.5360242000315,19,24,female,True
214,0.0670272726620893,25,down,up,1.0859720999142155,0.3843688104209103,,experiment,cRDM,0.0,,,,685.9859711999306,19,24,female,True
215,0.0670272726620893,25,up,down,0.8344017000636086,0.559493306493285,,experiment,cRDM,0.0,,,,687.902581900009,19,24,female,True
216,0.0670272726620893,25,down,up,0.5158087000017986,1.1567321785324889,,experiment,cRDM,0.0,,,,690.1691910999361,19,24,female,True
217,0.0670272726620893,25,up,down,0.7195247000781819,0.5711004836666501,,experiment,cRDM,0.0,,,,691.5024555999553,19,24,female,True
218,0.0670272726620893,25,down,up,0.6246819000225514,0.6580247785930835,,experiment,cRDM,0.0,,,,693.1522853999631,19,24,female,True
219,0.0670272726620893,25,up,down,0.7226274000713602,1.552297691076963,,experiment,cRDM,0.0,,,,695.6023378999671,19,24,female,True
220,0.0670272726620893,25,down,up,0.872812099987641,0.8580881806688081,,experiment,cRDM,0.0,,,,697.4521681999322,19,24,female,True
221,0.0670272726620893,25,up,up,0.9031463999999688,1.53598023857212,,experiment,cRDM,0.0,,,,700.1188149999361,19,24,female,True
222,0.0670272726620893,25,down,down,0.9575884999940172,1.003439056019806,,experiment,cRDM,0.0,,,,702.2853840999305,19,24,female,True
223,0.0670272726620893,25,down,down,0.5129634999902919,0.5099293087219994,,experiment,cRDM,0.0,,,,704.0020045000128,19,24,female,True
224,0.0670272726620893,25,up,up,0.953788800048642,1.6819277515213662,,experiment,cRDM,0.0,,,,706.4521736999741,19,24,female,True
225,0.0670272726620893,25,down,down,0.7441795999184251,0.387091595181676,,experiment,cRDM,0.0,,,,708.0517451999476,19,24,female,True
226,0.0670272726620893,25,up,up,0.946870099985972,1.2767722867180784,,experiment,cRDM,0.0,,,,710.3350679000141,19,24,female,True
227,0.0670272726620893,25,up,down,0.9063073999714106,1.1512564646872174,,experiment,cRDM,0.0,,,,712.7016707999865,19,24,female,True
228,0.0670272726620893,25,down,up,0.7953077999409288,0.732449941674487,,experiment,cRDM,0.0,,,,714.6016300999327,19,24,female,True
229,0.0670272726620893,25,down,down,0.5354414000175893,1.4288019411001234,,experiment,cRDM,0.0,,,,717.1015030000126,19,24,female,True
230,0.0670272726620893,25,up,down,0.9672095000278204,1.0189857646562768,,experiment,cRDM,0.0,,,,718.9347449999768,19,24,female,True
231,0.0670272726620893,25,down,down,1.0576372999930754,1.7923967096704705,,experiment,cRDM,0.0,,,,721.9513219000073,19,24,female,True
232,0.0670272726620893,25,up,up,0.5456881000427529,0.7266804288043902,,experiment,cRDM,0.0,,,,724.0012521999888,19,24,female,True
233,0.0670272726620893,25,up,up,0.6697691000299528,1.1044314583212351,,experiment,cRDM,0.0,,,,725.9011917000171,19,24,female,True
234,0.0670272726620893,25,up,down,0.902481000055559,0.5050201115216002,,experiment,cRDM,0.0,,,,727.3344522999832,19,24,female,True
235,0.0670272726620893,25,up,up,0.7718506000237539,0.9638256016378736,,experiment,cRDM,0.0,,,,729.4510598999914,19,24,female,True
236,0.0670272726620893,25,up,down,0.6316586999455467,1.5430130201898145,,experiment,cRDM,0.0,,,,732.034278600011,19,24,female,True
237,0.0670272726620893,25,down,down,0.6126823000377044,0.3965217579729178,,experiment,cRDM,0.0,,,,733.3342516999692,19,24,female,True
238,0.0670272726620893,25,down,down,0.7490627000806853,0.4869045324158991,,experiment,cRDM,0.0,,,,734.7008740999736,19,24,female,True
239,0.0670272726620893,25,down,down,0.5361230000853539,0.5933955364188234,,experiment,cRDM,0.0,,,,736.3008439999539,19,24,female,True
240,0.0670272726620893,25,up,down,0.9852511999197304,1.6047620804594414,,experiment,cRDM,0.0,,,,738.7007135000313,19,24,female,True
241,0.0670272726620893,25,down,up,0.4167153000598773,0.5852312433082787,,experiment,cRDM,0.0,,,,740.533970199991,19,24,female,True
242,0.0670272726620893,25,down,down,0.9797303000232204,1.561842403926029,,experiment,cRDM,0.0,,,,742.7672351000365,19,24,female,True
243,0.0670272726620893,25,down,up,0.4167577000334859,1.7696459614701168,,experiment,cRDM,0.0,,,,745.767149799969,19,24,female,True
244,0.0670272726620893,25,up,down,0.5303515000268817,1.9996959014818627,,experiment,cRDM,0.0,,,,748.4506172999972,19,24,female,True
245,0.0670272726620893,25,down,up,1.0306374999927357,1.4220873561244096,,experiment,cRDM,0.0,,,,750.6503001999808,19,24,female,True
246,0.0670272726620893,25,up,up,1.3911096000811085,1.816448145924174,,experiment,cRDM,0.0,,,,753.7668269999558,19,24,female,True
247,0.0670272726620893,25,up,down,0.7061924000736326,0.8508741641949344,,experiment,cRDM,0.0,,,,756.2667385999812,19,24,female,True
248,0.0670272726620893,25,down,down,1.5299353000009432,1.4683074776770926,,experiment,cRDM,0.0,,,,758.6999772000127,19,24,female,True
249,0.0670272726620893,25,up,up,0.5663888999260962,1.0625681836747976,,experiment,cRDM,0.0,,,,761.5665411000373,19,24,female,True
250,0.0670272726620893,25,down,down,0.3171209000283852,0.7141894531878183,,experiment,cRDM,0.0,,,,763.0998159999726,19,24,female,True
251,0.0670272726620893,25,up,down,1.227540299994871,1.193151345089326,,experiment,cRDM,0.0,,,,764.9664206999587,19,24,female,True
252,0.0670272726620893,25,down,up,1.0093026000540704,1.1417165079849605,,experiment,cRDM,0.0,,,,767.5996475999709,19,24,female,True
253,0.0670272726620893,25,up,down,0.6730523000005633,1.1974307306760337,,experiment,cRDM,0.0,,,,770.0829016999342,19,24,female,True
254,0.0670272726620893,25,down,down,0.835370899992995,0.532612794697417,,experiment,cRDM,0.0,,,,771.5495373000158,19,24,female,True
255,0.0670272726620893,25,down,up,0.3338401999790221,0.8583471307920496,,experiment,cRDM,0.0,,,,773.5161008000141,19,24,female,True
256,0.0670272726620893,25,down,down,0.7983639999292791,1.1250611427246586,,experiment,cRDM,0.0,,,,775.3325635000365,19,24,female,True
257,0.0670272726620893,25,down,up,0.8400181999895722,1.8204700918129668,,experiment,cRDM,0.0,,,,778.2159225000069,19,24,female,True
258,0.0670272726620893,25,down,down,0.7786948999855667,0.3340287385146349,,experiment,cRDM,0.0,,,,779.6492368000327,19,24,female,True
259,0.0670272726620893,25,up,up,1.3215486000990495,1.9997194831933007,,experiment,cRDM,0.0,,,,782.682417999953,19,24,female,True
260,0.0670272726620893,25,up,down,0.4952947999117896,1.7885293185594215,,experiment,cRDM,0.0,,,,786.0656700999243,19,24,female,True
261,0.0670272726620893,25,up,up,0.865414600004442,1.2052202653058215,,experiment,cRDM,0.0,,,,788.015548299998,19,24,female,True
262,0.0670272726620893,25,up,down,0.7621058000950143,1.1693845694908778,,experiment,cRDM,0.0,,,,790.2987964999629,19,24,female,True
263,85.0,25,M,down,1.1887561000185087,0.6332400366499424,,experiment,emotion,0.0,,,,816.6311709999572,19,24,female,True
264,63.0,25,M,down,0.9655334999551995,1.163864374261449,,experiment,emotion,0.0,,,,819.2644239999354,19,24,female,True
265,77.0,25,F,up,0.7476243000710383,1.2971458687071102,,experiment,emotion,0.0,,,,821.8143465999747,19,24,female,True
266,85.0,25,F,up,0.8200733000412583,1.8971322991410569,,experiment,emotion,0.0,,,,824.7308873999864,19,24,female,True
267,77.0,25,M,up,0.8160733999684453,1.09680025416855,,experiment,emotion,0.0,,,,826.9308089999249,19,24,female,True
268,70.0,25,F,down,0.7069022000068799,1.3694426383478084,,experiment,emotion,0.0,,,,829.4140471999999,19,24,female,True
269,63.0,25,M,down,0.7053568999981508,1.929916554483713,,experiment,emotion,0.0,,,,832.3306008999934,19,24,female,True
270,70.0,25,M,up,0.795378000009805,1.3791806046983506,,experiment,emotion,0.0,,,,834.6805424999911,19,24,female,True
271,85.0,25,F,up,0.6158513999544084,1.6606284510302958,,experiment,emotion,0.0,,,,837.3971290999325,19,24,female,True
272,70.0,25,F,down,0.8029012000188231,1.0159368982963892,,experiment,emotion,0.0,,,,839.2970160000259,19,24,female,True
273,77.0,25,F,up,1.0799633000278843,1.318739090448286,,experiment,emotion,0.0,,,,841.6969319999916,19,24,female,True
274,85.0,25,F,down,0.8141189999878407,1.9499673666015145,,experiment,emotion,0.0,,,,844.9968032999896,19,24,female,True
275,77.0,25,F,down,0.7903702000621706,0.7736173310224617,,experiment,emotion,0.0,,,,846.8465627999976,19,24,female,True
276,63.0,25,F,down,0.6499041999923065,0.5645150921697741,,experiment,emotion,0.0,,,,848.4800161999883,19,24,female,True
277,70.0,25,M,up,0.7150070999050513,1.3776946891039803,,experiment,emotion,0.0,,,,850.7799286999507,19,24,female,True
278,63.0,25,M,down,1.0204617000417784,0.4831236396091589,,experiment,emotion,0.0,,,,852.2464947999688,19,24,female,True
279,85.0,25,M,up,0.7431227000197396,1.7436205597737244,,experiment,emotion,0.0,,,,855.2797914999537,19,24,female,True
280,63.0,25,M,up,0.7832408000249416,1.446551496282841,,experiment,emotion,0.0,,,,857.7296783999773,19,24,female,True
281,77.0,25,F,down,0.5456722999224439,1.561834008621264,,experiment,emotion,0.0,,,,860.3462629999267,19,24,female,True
282,77.0,25,M,down,0.8921254000160843,1.3924174417353132,,experiment,emotion,0.0,,,,862.562810100033,19,24,female,True
283,70.0,25,M,up,0.8701639000792056,1.678595869906011,,experiment,emotion,0.0,,,,865.4127117999597,19,24,female,True
284,70.0,25,F,,,0.3374136115793175,,experiment,emotion,0.0,,,,866.8793473999249,19,24,female,True
285,63.0,25,M,,,1.1106972378421454,,experiment,emotion,0.0,,,,870.69586420001,19,24,female,True
286,85.0,25,F,down,1.0111835000570863,1.148635371730124,,experiment,emotion,0.0,,,,874.5457270999905,19,24,female,True
287,77.0,25,F,up,0.8350260000443086,1.4888017220754015,,experiment,emotion,0.0,,,,877.3289190999931,19,24,female,True
288,63.0,25,M,down,1.581123000010848,1.400065592101455,,experiment,emotion,0.0,,,,879.8287966999924,19,24,female,True
289,85.0,25,M,up,0.5978468999965116,1.7344244142102183,,experiment,emotion,0.0,,,,883.4120615000138,19,24,female,True
290,85.0,25,F,up,0.6719169000862166,1.3829308180605628,,experiment,emotion,0.0,,,,885.6619955999777,19,24,female,True
291,70.0,25,M,up,0.6450229999609292,1.5318779875322834,,experiment,emotion,0.0,,,,888.1618937000167,19,24,female,True
292,63.0,25,F,up,0.7867501999717206,0.3125802536780604,,experiment,emotion,0.0,,,,889.3951708000386,19,24,female,True
293,70.0,25,F,down,1.099262899952009,1.321825247350216,,experiment,emotion,0.0,,,,891.7616563999327,19,24,female,True
294,77.0,25,F,down,0.8796693000476807,0.8753901154055292,,experiment,emotion,0.0,,,,894.0283157000085,19,24,female,True
295,63.0,25,M,up,0.6417477000504732,1.2974830647622912,,experiment,emotion,0.0,,,,896.4782733999891,19,24,female,True
296,85.0,25,M,down,0.6900447000516579,0.4480473402226709,,experiment,emotion,0.0,,,,897.844866200001,19,24,female,True
297,77.0,25,M,,,1.7534875302649588,,experiment,emotion,0.0,,,,900.5614498000359,19,24,female,True
298,85.0,25,F,down,0.4166880999691784,1.552976534088054,,experiment,emotion,0.0,,,,904.8112604999916,19,24,female,True
299,63.0,25,F,up,0.4204101000213995,1.1901942232364455,,experiment,emotion,0.0,,,,906.694548600004,19,24,female,True
300,77.0,25,M,up,0.6251471999567002,0.6420572997082106,,experiment,emotion,0.0,,,,908.0277558999368,19,24,female,True
301,70.0,25,F,up,1.0228857999900356,0.5093061539827693,,experiment,emotion,0.0,,,,909.4280285999412,19,24,female,True
302,70.0,25,M,down,0.8435291999485344,0.967192383860982,,experiment,emotion,0.0,,,,911.6943430999528,19,24,female,True
303,77.0,25,M,up,0.7355682000052184,1.0860319747805716,,experiment,emotion,0.0,,,,913.8943048999644,19,24,female,True
304,85.0,25,M,up,0.6691018999554217,1.4148329260605812,,experiment,emotion,0.0,,,,916.3108368000248,19,24,female,True
305,70.0,25,F,up,0.6104409000836313,0.4293506494625592,,experiment,emotion,0.0,,,,917.677497799974,19,24,female,True
306,63.0,25,F,down,0.9731265000300482,0.4382757883821547,,experiment,emotion,0.0,,,,919.0107531999238,19,24,female,True
307,63.0,25,M,down,0.7456825999543071,0.5766366929759479,,experiment,emotion,0.0,,,,920.8272408000194,19,24,female,True
308,70.0,25,F,down,0.6020098000299186,1.5724064876045227,,experiment,emotion,0.0,,,,923.3939253999852,19,24,female,True
309,85.0,25,F,down,0.4433716000057757,0.4863759862509474,,experiment,emotion,0.0,,,,924.7605597999644,19,24,female,True
310,77.0,25,M,down,0.8084509000182152,1.3746876565456778,,experiment,emotion,0.0,,,,926.8604708999628,19,24,female,True
311,63.0,25,M,up,0.7938964000204578,1.0756656190934717,,experiment,emotion,0.0,,,,929.0269960999722,19,24,female,True
312,85.0,25,F,down,0.9188531000399962,0.6008918948080975,,experiment,emotion,0.0,,,,930.6770101999864,19,24,female,True
313,77.0,25,M,down,0.6969917000969872,1.8125337404682715,,experiment,emotion,0.0,,,,933.6769150999608,19,24,female,True
314,77.0,25,F,down,0.835558999911882,1.4951040095049015,,experiment,emotion,0.0,,,,936.1433681999332,19,24,female,True
315,63.0,25,F,up,0.835881800041534,0.7304369977799419,,experiment,emotion,0.0,,,,937.960061299964,19,24,female,True
316,70.0,25,F,down,0.983975899987854,1.7711413194652903,,experiment,emotion,0.0,,,,940.8599542999872,19,24,female,True
317,85.0,25,M,down,0.6534526000032201,0.8127297965615983,,experiment,emotion,0.0,,,,942.926442499971,19,24,female,True
318,70.0,25,M,down,0.4385131999151781,0.4834966175740282,,experiment,emotion,0.0,,,,944.3264803999336,19,24,female,True
319,70.0,25,F,down,0.5937687000259757,0.3473457950860391,,experiment,emotion,0.0,,,,945.3931208000286,19,24,female,True
320,70.0,25,F,down,0.9418361999560148,0.3482505847398673,,experiment,emotion,0.0,,,,946.5930838999338,19,24,female,True
321,85.0,25,M,down,0.8336046999320388,0.9221442105769776,,experiment,emotion,0.0,,,,948.7263212000252,19,24,female,True
322,77.0,25,M,down,0.8083018000470474,0.3340046779950103,,experiment,emotion,0.0,,,,950.159628399997,19,24,female,True
323,63.0,25,M,down,1.1911686999956146,1.9957623627282424,,experiment,emotion,0.0,,,,953.2428279999876,19,24,female,True
324,63.0,25,M,down,1.3998705999692902,1.48424504883027,,experiment,emotion,0.0,,,,956.1760645000032,19,24,female,True
325,77.0,25,M,up,0.6589681999757886,0.5814492277911538,,experiment,emotion,0.0,,,,958.4259703999852,19,24,female,True
326,85.0,25,F,up,0.4846323999809101,0.8475281710484779,,experiment,emotion,0.0,,,,960.209253399982,19,24,female,True
327,85.0,25,F,down,0.6660317000932992,1.4262276726289131,,experiment,emotion,0.0,,,,962.3758356999606,19,24,female,True
328,63.0,25,M,down,0.6885207000887021,1.2202745229307723,,experiment,emotion,0.0,,,,964.5423763999715,19,24,female,True
329,85.0,25,F,up,0.7942388999508694,1.6247757362682498,,experiment,emotion,0.0,,,,967.1256612000288,19,24,female,True
330,70.0,25,F,down,0.8627403000136837,0.6416079488683073,,experiment,emotion,0.0,,,,968.8421602000016,19,24,female,True
331,77.0,25,F,down,1.0007475999882445,1.772570153821717,,experiment,emotion,0.0,,,,971.7421467999228,19,24,female,True
332,70.0,25,M,up,0.6048005000920966,0.541888230929658,,experiment,emotion,0.0,,,,973.5420543999644,19,24,female,True
333,63.0,25,F,up,0.720944199943915,0.9159328876059988,,experiment,emotion,0.0,,,,975.3419536999428,19,24,female,True
334,77.0,25,F,up,0.6080726999789476,1.908250188606535,,experiment,emotion,0.0,,,,978.2418376000132,19,24,female,True
335,70.0,25,F,up,0.7650882999878377,0.8731753807378992,,experiment,emotion,0.0,,,,979.9918728999328,19,24,female,True
336,77.0,25,M,down,0.7558013999368995,1.1865378019132136,,experiment,emotion,0.0,,,,982.2250854999292,19,24,female,True
337,63.0,25,M,up,0.6565568000078201,1.702179756099626,,experiment,emotion,0.0,,,,984.9583560000174,19,24,female,True
338,85.0,25,F,up,0.7059764999430627,1.58533361555552,,experiment,emotion,0.0,,,,987.4749196999472,19,24,female,True
339,77.0,25,M,down,0.7811028000432998,1.81870132701488,,experiment,emotion,0.0,,,,990.2747970999916,19,24,female,True
340,85.0,25,F,up,0.7805099999532104,1.0674185125077624,,experiment,emotion,0.0,,,,992.3913895000004,19,24,female,True
341,63.0,25,M,down,0.5786085000727326,1.8491970884839104,,experiment,emotion,0.0,,,,995.2912907999709,19,24,female,True
342,70.0,25,M,down,0.7643665000796318,1.615002624626223,,experiment,emotion,0.0,,,,997.774549499969,19,24,female,True
343,0.0670272726620893,25,up,up,0.5849623000249267,1.680342905334576,,experiment,cRDM,1.0,,,,1012.5239816999529,19,24,female,True
344,0.0670272726620893,25,up,up,0.6426539999665692,1.0287507738939643,,experiment,cRDM,1.0,,,,1014.407236799947,19,24,female,True
345,0.0670272726620893,25,down,down,0.5287919000256807,1.838206719533619,,experiment,cRDM,1.0,,,,1017.1571504999883,19,24,female,True
346,0.0670272726620893,25,down,down,0.63342470000498,0.5009269612078179,,experiment,cRDM,1.0,,,,1018.4404729999368,19,24,female,True
347,0.0670272726620893,25,up,up,0.5673350000288337,1.679522385512087,,experiment,cRDM,1.0,,,,1021.023559299996,19,24,female,True
348,0.0670272726620893,25,down,up,0.5569375000195578,0.7075058229855085,,experiment,cRDM,1.0,,,,1022.5569546000334,19,24,female,True
349,0.0670272726620893,25,up,down,0.5629894000012428,0.8817977837198041,,experiment,cRDM,1.0,,,,1024.256899500033,19,24,female,True
350,0.0670272726620893,25,up,up,0.4431066999677568,1.1311543773395951,,experiment,cRDM,1.0,,,,1026.2067975000243,19,24,female,True
351,0.0670272726620893,25,down,up,0.6191279999911785,1.503689405633104,,experiment,cRDM,1.0,,,,1028.4067209999776,19,24,female,True
352,0.0670272726620893,25,down,up,0.5032943999394774,1.0198676260278088,,experiment,cRDM,1.0,,,,1030.3066465000156,19,24,female,True
353,0.0670272726620893,25,down,down,0.5529341000365093,0.5017732795736152,,experiment,cRDM,1.0,,,,1031.589939799975,19,24,female,True
354,0.0670272726620893,25,down,up,0.3671836999710649,1.6555893877961905,,experiment,cRDM,1.0,,,,1034.0731923999265,19,24,female,True
355,0.0670272726620893,25,down,up,0.5107393000507727,0.9160082907761432,,experiment,cRDM,1.0,,,,1035.6731389999622,19,24,female,True
356,0.0670272726620893,25,down,down,0.5016398000298068,1.6816619177293342,,experiment,cRDM,1.0,,,,1038.123316799989,19,24,female,True
357,0.0670272726620893,25,up,up,0.5742922000354156,1.5575621010233576,,experiment,cRDM,1.0,,,,1040.4396391999908,19,24,female,True
358,0.0670272726620893,25,up,down,0.5420176000334322,0.7460098221947566,,experiment,cRDM,1.0,,,,1042.0228774999268,19,24,female,True
359,0.0670272726620893,25,up,up,0.485741600045003,1.384674761822212,,experiment,cRDM,1.0,,,,1044.2061511999927,19,24,female,True
360,0.0670272726620893,25,up,up,0.5404882999137044,1.6439642971135136,,experiment,cRDM,1.0,,,,1046.5893981999252,19,24,female,True
361,0.0670272726620893,25,down,down,0.5828933999873698,0.4187570907238755,,experiment,cRDM,1.0,,,,1047.806006800034,19,24,female,True
362,0.0670272726620893,25,up,down,0.7402714999625459,0.9197289768367134,,experiment,cRDM,1.0,,,,1049.5726230000146,19,24,female,True
363,0.0670272726620893,25,up,up,0.6230069999583066,1.5222746770742086,,experiment,cRDM,1.0,,,,1052.105851499946,19,24,female,True
364,0.0670272726620893,25,down,down,0.7760906000621617,0.5684863309848576,,experiment,cRDM,1.0,,,,1053.555832299986,19,24,female,True
365,0.0670272726620893,25,up,up,0.5328092999989167,1.006940778906836,,experiment,cRDM,1.0,,,,1055.5890762000345,19,24,female,True
366,0.0670272726620893,25,down,up,0.7012791000306606,0.5144629181409047,,experiment,cRDM,1.0,,,,1056.9056715000188,19,24,female,True
367,0.0670272726620893,25,down,down,0.4808976999484002,1.015912907556889,,experiment,cRDM,1.0,,,,1058.8889947999269,19,24,female,True
368,0.0670272726620893,25,up,up,0.5256997999968007,1.1382675017204926,,experiment,cRDM,1.0,,,,1060.7722111999756,19,24,female,True
369,0.0670272726620893,25,up,down,0.6263941000215709,0.4445359738834732,,experiment,cRDM,1.0,,,,1062.0055057000136,19,24,female,True
370,0.0670272726620893,25,down,down,0.7044838999863714,1.6066077386050146,,experiment,cRDM,1.0,,,,1064.5054044999415,19,24,female,True
371,0.0670272726620893,25,up,down,0.7415428999811411,0.7840872887800596,,experiment,cRDM,1.0,,,,1066.2553440999473,19,24,female,True
372,0.0670272726620893,25,down,down,0.7421036000596359,1.0520227608799515,,experiment,cRDM,1.0,,,,1068.3218533999752,19,24,female,True
373,0.0670272726620893,25,down,down,0.5540552000747994,1.6479659786829162,,experiment,cRDM,1.0,,,,1070.9718322999545,19,24,female,True
374,0.0670272726620893,25,down,down,0.6520966000389308,1.367661983356519,,experiment,cRDM,1.0,,,,1073.1717503999826,19,24,female,True
375,0.0670272726620893,25,up,down,0.985839999979362,0.7658328494944328,,experiment,cRDM,1.0,,,,1074.8550497000106,19,24,female,True
376,0.0670272726620893,25,up,down,0.8611981999129057,0.7110160545621735,,experiment,cRDM,1.0,,,,1076.8216178999282,19,24,female,True
377,0.0670272726620893,25,up,down,0.5754269999451935,1.6717387751067825,,experiment,cRDM,1.0,,,,1079.6214536000043,19,24,female,True
378,0.0670272726620893,25,down,down,0.4780591999879107,0.4973178425062525,,experiment,cRDM,1.0,,,,1080.954825700028,19,24,female,True
379,0.0670272726620893,25,down,up,0.6094759999541566,0.7749458281674106,,experiment,cRDM,1.0,,,,1082.4714119000128,19,24,female,True
380,0.0670272726620893,25,up,up,1.1371946000726894,1.106795427318786,,experiment,cRDM,1.0,,,,1084.4547085999511,19,24,female,True
381,0.0670272726620893,25,down,down,0.5333252000855282,0.3462515904647829,,experiment,cRDM,1.0,,,,1086.204617499956,19,24,female,True
382,0.0670272726620893,25,up,down,0.6246989000355825,1.5700792523520606,,experiment,cRDM,1.0,,,,1088.5711849000072,19,24,female,True
383,0.0670272726620893,25,up,down,0.6514215000206605,1.0999764427540362,,experiment,cRDM,1.0,,,,1090.5544554999797,19,24,female,True
384,0.0670272726620893,25,up,up,0.702530900016427,1.7749873472464706,,experiment,cRDM,1.0,,,,1093.2543721999973,19,24,female,True
385,0.0670272726620893,25,down,down,0.50728010002058,0.7158704607128188,,experiment,cRDM,1.0,,,,1094.93760309997,19,24,female,True
386,0.0670272726620893,25,down,down,0.669628500007093,1.5460799474554636,,experiment,cRDM,1.0,,,,1097.254237200017,19,24,female,True
387,0.0670272726620893,25,up,up,0.8080938000930473,0.721898964558594,,experiment,cRDM,1.0,,,,1098.9207988999551,19,24,female,True
388,0.0670272726620893,25,down,up,0.8994724999647588,1.3978993371635997,,experiment,cRDM,1.0,,,,1101.3874039000366,19,24,female,True
389,0.0670272726620893,25,down,down,0.8677007000660524,1.8753372100489003,,experiment,cRDM,1.0,,,,1104.4371823000256,19,24,female,True
390,0.0670272726620893,25,up,down,0.9876944000134243,0.6600415473500558,,experiment,cRDM,1.0,,,,1106.2371832999634,19,24,female,True
391,0.0670272726620893,25,up,down,0.7751066000200808,1.4695638741150645,,experiment,cRDM,1.0,,,,1108.9537770999596,19,24,female,True
392,0.0670272726620893,25,down,down,0.7291642000200227,0.8127493916167257,,experiment,cRDM,1.0,,,,1110.803712300025,19,24,female,True
393,0.0670272726620893,25,up,up,0.540912099997513,1.1001589001802132,,experiment,cRDM,1.0,,,,1112.8869674999733,19,24,female,True
394,0.0670272726620893,25,down,down,0.6820566999958828,1.3387126301555423,,experiment,cRDM,1.0,,,,1115.0368175000183,19,24,female,True
395,0.0670272726620893,25,down,down,0.8427005000412464,0.494375115262834,,experiment,cRDM,1.0,,,,1116.4702008999884,19,24,female,True
396,0.0670272726620893,25,down,down,0.6021527999546379,1.0496040218922558,,experiment,cRDM,1.0,,,,1118.6367286000168,19,24,female,True
397,0.0670272726620893,25,up,up,0.515537399915047,1.74051532067025,,experiment,cRDM,1.0,,,,1121.253340999945,19,24,female,True
398,0.0670272726620893,25,up,up,0.4699796999339014,1.0528731302717818,,experiment,cRDM,1.0,,,,1123.0699247999582,19,24,female,True
399,0.0670272726620893,25,down,up,0.5976911999750882,1.4909821926412612,,experiment,cRDM,1.0,,,,1125.3031869999832,19,24,female,True
400,0.0670272726620893,25,down,down,0.7754009999334812,0.4273754023653745,,experiment,cRDM,1.0,,,,1126.5864599000197,19,24,female,True
401,0.0670272726620893,25,up,down,1.0844628000631928,0.9619397087843032,,experiment,cRDM,1.0,,,,1128.5863952999937,19,24,female,True
402,0.0670272726620893,25,up,up,0.6033127999398857,1.843845402370736,,experiment,cRDM,1.0,,,,1131.7696044000331,19,24,female,True
403,0.0670272726620893,25,up,down,0.7816548000555485,0.5049507608896804,,experiment,cRDM,1.0,,,,1133.1362482999684,19,24,female,True
404,0.0670272726620893,25,up,down,0.8147495000157505,1.948136946135336,,experiment,cRDM,1.0,,,,1136.1361279999835,19,24,female,True
405,0.0670272726620893,25,up,up,0.6339115001028404,1.7835937625482363,,experiment,cRDM,1.0,,,,1138.9860192999477,19,24,female,True
406,0.0670272726620893,25,down,up,0.7272472999757156,1.410752739041353,,experiment,cRDM,1.0,,,,1141.3025688999332,19,24,female,True
407,0.0670272726620893,25,down,down,0.556622700067237,0.3869269562255381,,experiment,cRDM,1.0,,,,1142.6692095999606,19,24,female,True
408,0.0670272726620893,25,up,up,0.7324461999814957,0.8561643857729686,,experiment,cRDM,1.0,,,,1144.352480200003,19,24,female,True
409,0.0670272726620893,25,down,down,0.900480900076218,0.7943693856952984,,experiment,cRDM,1.0,,,,1146.1524108999874,19,24,female,True
410,0.0670272726620893,25,down,down,0.7392273000441492,1.4716994318959662,,experiment,cRDM,1.0,,,,1148.7856480999617,19,24,female,True
411,0.0670272726620893,25,down,up,0.506306100054644,1.7946558331740683,,experiment,cRDM,1.0,,,,1151.5855640999507,19,24,female,True
412,0.0670272726620893,25,up,down,0.4884333999361843,1.9328619336377084,,experiment,cRDM,1.0,,,,1154.285441600019,19,24,female,True
413,0.0670272726620893,25,down,up,0.4558578000869602,1.9294599380743505,,experiment,cRDM,1.0,,,,1156.952017399948,19,24,female,True
414,0.0670272726620893,25,down,down,0.4167603000532835,1.5591674459291225,,experiment,cRDM,1.0,,,,1159.235285399947,19,24,female,True
415,0.0670272726620893,25,down,up,0.2838103000540286,1.751096475255952,,experiment,cRDM,1.0,,,,1161.6851712999633,19,24,female,True
416,0.0670272726620893,25,up,up,0.5280905000399798,0.8027871485799631,,experiment,cRDM,1.0,,,,1163.1517840999877,19,24,female,True
417,0.0670272726620893,25,up,down,0.8561840000329539,1.473269577689809,,experiment,cRDM,1.0,,,,1165.4016888999613,19,24,female,True
418,0.0670272726620893,25,down,up,0.6449480999726802,1.7679186137912737,,experiment,cRDM,1.0,,,,1168.2849248999264,19,24,female,True
419,0.0670272726620893,25,up,up,0.5610070000402629,0.8910090857427673,,experiment,cRDM,1.0,,,,1170.0848670999983,19,24,female,True
420,0.0670272726620893,25,down,down,0.6814146999968216,1.4311287790216078,,experiment,cRDM,1.0,,,,1172.351455600001,19,24,female,True
421,0.0670272726620893,25,up,up,0.3670689000282436,1.638774528542313,,experiment,cRDM,1.0,,,,1174.934706500033,19,24,female,True
422,0.0670272726620893,25,up,up,0.607263799989596,1.3757395639903889,,experiment,cRDM,1.0,,,,1176.9846122999445,19,24,female,True
423,85.0,25,M,up,1.0126121999928728,0.8666419366117704,,experiment,emotion,1.0,,,,1196.7672479000175,19,24,female,True
424,63.0,25,M,up,1.0117622000398114,1.5445860165604302,,experiment,emotion,1.0,,,,1199.6171056999592,19,24,female,True
425,77.0,25,F,up,1.4511416000314057,1.1230173219767168,,experiment,emotion,1.0,,,,1202.0337015999248,19,24,female,True
426,85.0,25,F,up,0.6722812000662088,1.1769798940576568,,experiment,emotion,1.0,,,,1204.9335850999923,19,24,female,True
427,77.0,25,M,down,0.6070281999418512,1.3780048013318282,,experiment,emotion,1.0,,,,1207.266840599943,19,24,female,True
428,70.0,25,F,up,0.6601015999913216,1.6134504989097638,,experiment,emotion,1.0,,,,1209.7667389999842,19,24,female,True
429,63.0,25,M,down,0.8574923999840394,0.5393346526309991,,experiment,emotion,1.0,,,,1211.2333790999835,19,24,female,True
430,70.0,25,M,down,0.6415736000053585,0.331209374854896,,experiment,emotion,1.0,,,,1212.6832951999968,19,24,female,True
431,85.0,25,F,down,0.5285855000838637,0.8379093932789567,,experiment,emotion,1.0,,,,1214.4332605999662,19,24,female,True
432,70.0,25,F,up,0.7343467000173405,1.0375898873187108,,experiment,emotion,1.0,,,,1216.266515300027,19,24,female,True
433,77.0,25,F,up,0.4830697999568656,0.4696510439681723,,experiment,emotion,1.0,,,,1217.7497885000191,19,24,female,True
434,85.0,25,F,up,0.6585182999260724,1.7486359849395297,,experiment,emotion,1.0,,,,1220.2663473000284,19,24,female,True
435,77.0,25,F,down,0.9592686999822037,1.9992845571787248,,experiment,emotion,1.0,,,,1223.1995965000242,19,24,female,True
436,63.0,25,F,up,0.6494208999210969,0.8438120450646929,,experiment,emotion,1.0,,,,1225.29948279995,19,24,female,True
437,70.0,25,M,down,0.7980957999825478,1.1606670913342965,,experiment,emotion,1.0,,,,1227.3827636999777,19,24,female,True
438,63.0,25,M,up,0.8185431000310928,1.3930969671930633,,experiment,emotion,1.0,,,,1229.8493289999897,19,24,female,True
439,85.0,25,M,up,0.6835800999542698,1.2223152487300215,,experiment,emotion,1.0,,,,1232.14927179995,19,24,female,True
440,63.0,25,M,down,1.213344599935226,0.8280679613207806,,experiment,emotion,1.0,,,,1233.9325401999522,19,24,female,True
441,77.0,25,F,up,0.9527858999790624,1.453430323389085,,experiment,emotion,1.0,,,,1236.899082500022,19,24,female,True
442,77.0,25,M,up,0.704883600003086,1.095491868138558,,experiment,emotion,1.0,,,,1239.1989757999545,19,24,female,True
443,70.0,25,M,down,0.7229995999950916,1.5097249241842623,,experiment,emotion,1.0,,,,1241.6988857999677,19,24,female,True
444,70.0,25,F,up,0.7080750000895932,1.5077589268147669,,experiment,emotion,1.0,,,,1244.1988240999635,19,24,female,True
445,63.0,25,M,down,0.7784626999637112,1.0650887920919092,,experiment,emotion,1.0,,,,1246.2654028999386,19,24,female,True
446,85.0,25,F,up,0.6702096000080928,0.8100108116957778,,experiment,emotion,1.0,,,,1248.1486618999625,19,24,female,True
447,77.0,25,F,down,0.8736326000653207,1.869286880725871,,experiment,emotion,1.0,,,,1250.965231899987,19,24,female,True
448,63.0,25,M,down,0.8286703999619931,0.3543572496804535,,experiment,emotion,1.0,,,,1252.4651738000102,19,24,female,True
449,85.0,25,M,down,0.7988450999837369,0.8603413416505066,,experiment,emotion,1.0,,,,1254.4149885999504,19,24,female,True
450,85.0,25,F,up,0.6718576999846846,0.9386374742656756,,experiment,emotion,1.0,,,,1256.415012500016,19,24,female,True
451,70.0,25,M,down,0.6178748999955133,1.2023838084704783,,experiment,emotion,1.0,,,,1258.5649852999486,19,24,female,True
452,63.0,25,F,down,0.932724800077267,0.9908780253083898,,experiment,emotion,1.0,,,,1260.4482159999898,19,24,female,True
453,70.0,25,F,down,0.7945010999683291,1.628231983292527,,experiment,emotion,1.0,,,,1263.2814385000383,19,24,female,True
454,77.0,25,F,down,0.9736151000251994,1.0887205017087975,,experiment,emotion,1.0,,,,1265.4312475000042,19,24,female,True
455,63.0,25,M,up,0.6945612999843433,0.6088679933475301,,experiment,emotion,1.0,,,,1267.2813098999904,19,24,female,True
456,85.0,25,M,up,0.8953094999305904,1.0997411974137985,,experiment,emotion,1.0,,,,1269.3645482999273,19,24,female,True
457,77.0,25,M,up,0.3501538999844342,1.2122753417386172,,experiment,emotion,1.0,,,,1271.747797899996,19,24,female,True
458,85.0,25,F,up,0.8622181999962777,1.0813259443720025,,experiment,emotion,1.0,,,,1273.5146637000144,19,24,female,True
459,63.0,25,F,down,0.5815188999986276,0.4136413748338112,,experiment,emotion,1.0,,,,1275.0643342999974,19,24,female,True
460,77.0,25,M,down,0.728984700050205,0.6070578781433129,,experiment,emotion,1.0,,,,1276.5308698000154,19,24,female,True
461,70.0,25,F,up,1.1319796000607312,1.5065224276479467,,experiment,emotion,1.0,,,,1279.0308803999797,19,24,female,True
462,70.0,25,M,up,0.5234759000595659,1.4712274744678366,,experiment,emotion,1.0,,,,1281.8974114999874,19,24,female,True
463,77.0,25,M,up,0.9262355000246316,0.4253635566218893,,experiment,emotion,1.0,,,,1283.1306365999626,19,24,female,True
464,85.0,25,M,up,1.1933150000404569,1.1187335535236478,,experiment,emotion,1.0,,,,1285.430525999982,19,24,female,True
465,70.0,25,F,down,0.3501747000264004,1.6954211317966033,,experiment,emotion,1.0,,,,1288.5805084999884,19,24,female,True
466,63.0,25,F,down,0.6010659000603482,0.5835483039998361,,experiment,emotion,1.0,,,,1289.8637901999757,19,24,female,True
467,63.0,25,M,down,0.6177892999257892,0.7943949060972642,,experiment,emotion,1.0,,,,1291.5470803999342,19,24,female,True
468,70.0,25,F,up,0.7595748000312597,1.7322871039309988,,experiment,emotion,1.0,,,,1294.1802868000232,19,24,female,True
469,85.0,25,F,up,0.6342552999267355,1.2676730973259591,,experiment,emotion,1.0,,,,1296.4635735999327,19,24,female,True
470,77.0,25,M,up,0.832037000101991,1.1575871177644057,,experiment,emotion,1.0,,,,1298.5468240999617,19,24,female,True
471,63.0,25,M,up,0.6708128999453038,0.674742759565137,,experiment,emotion,1.0,,,,1300.3300401000306,19,24,female,True
472,85.0,25,F,down,0.8331718000117689,0.5379294514825237,,experiment,emotion,1.0,,,,1301.7966878999723,19,24,female,True
473,77.0,25,M,down,0.7042454000329599,1.044453917573943,,experiment,emotion,1.0,,,,1303.946606399957,19,24,female,True
474,77.0,25,F,down,0.5589741000439972,0.8182112179715764,,experiment,emotion,1.0,,,,1305.7298784999875,19,24,female,True
475,63.0,25,F,down,0.9343142999568954,0.6373212476023504,,experiment,emotion,1.0,,,,1307.196522800019,19,24,female,True
476,70.0,25,F,down,1.0691716000437737,1.6608885300514844,,experiment,emotion,1.0,,,,1310.079727399978,19,24,female,True
477,85.0,25,M,up,0.6052641000133008,1.554539557069734,,experiment,emotion,1.0,,,,1312.9796097000362,19,24,female,True
478,70.0,25,M,down,0.48763260000851,1.4029712973179749,,experiment,emotion,1.0,,,,1315.2462080999976,19,24,female,True
479,70.0,25,F,up,0.8944505000254139,1.374366111212165,,experiment,emotion,1.0,,,,1317.379463099991,19,24,female,True
480,70.0,25,F,up,0.6744523000670597,0.7270678829724757,,experiment,emotion,1.0,,,,1319.2793823999818,19,24,female,True
481,85.0,25,M,up,0.919521400006488,0.3631215152637929,,experiment,emotion,1.0,,,,1320.5793678000337,19,24,female,True
482,77.0,25,M,up,0.7559008999960497,0.3669165430478266,,experiment,emotion,1.0,,,,1322.1459438999882,19,24,female,True
483,63.0,25,M,up,0.3502124999649822,0.8891065935406217,,experiment,emotion,1.0,,,,1324.06254850002,19,24,female,True
484,63.0,25,M,down,2.324701700010337,0.5740589805879657,,experiment,emotion,1.0,,,,1325.3291479999898,19,24,female,True
485,77.0,25,M,up,0.8238193999277428,1.953072904108055,,experiment,emotion,1.0,,,,1329.8790127999382,19,24,female,True
486,85.0,25,F,up,0.7497387999901548,1.8368450991479612,,experiment,emotion,1.0,,,,1332.8121143999742,19,24,female,True
487,85.0,25,F,down,0.7198303999612108,1.8778401075100484,,experiment,emotion,1.0,,,,1335.712015899946,19,24,female,True
488,63.0,25,M,down,0.9641965000191705,1.975615600056403,,experiment,emotion,1.0,,,,1338.6786740999669,19,24,female,True
489,85.0,25,F,up,0.7196235998999327,0.6721814305565459,,experiment,emotion,1.0,,,,1340.595257099951,19,24,female,True
490,70.0,25,F,up,0.8866362000117078,0.851182884936259,,experiment,emotion,1.0,,,,1342.4452123999365,19,24,female,True
491,77.0,25,F,down,0.6924049999797717,1.716835123886744,,experiment,emotion,1.0,,,,1345.3284337000223,19,24,female,True
492,70.0,25,M,down,0.7835373000707477,1.522845267417732,,experiment,emotion,1.0,,,,1347.8283347999677,19,24,female,True
493,63.0,25,F,down,0.9744089000159876,1.8385565888242323,,experiment,emotion,1.0,,,,1350.7114541999763,19,24,female,True
494,77.0,25,F,down,0.7387078000465408,0.9075658317283182,,experiment,emotion,1.0,,,,1352.8781365000175,19,24,female,True
495,70.0,25,F,down,0.6097312000347301,0.5548673928638881,,experiment,emotion,1.0,,,,1354.4281131000023,19,24,female,True
496,77.0,25,M,up,0.6698670999612659,1.0232968509088658,,experiment,emotion,1.0,,,,1356.3280016999925,19,24,female,True
497,63.0,25,M,down,0.7472431999631226,1.3780131621971168,,experiment,emotion,1.0,,,,1358.644606799935,19,24,female,True
498,85.0,25,F,up,0.6603245000587776,1.770770309936922,,experiment,emotion,1.0,,,,1361.4444990999764,19,24,female,True
499,77.0,25,M,down,0.8218039000639692,1.425444650917693,,experiment,emotion,1.0,,,,1363.811105699977,19,24,female,True
500,85.0,25,F,up,0.6608061000006273,1.2578165426496797,,experiment,emotion,1.0,,,,1366.1610022999812,19,24,female,True
501,63.0,25,M,down,0.9699191000545396,1.474841563330987,,experiment,emotion,1.0,,,,1368.5609238999896,19,24,female,True
502,70.0,25,M,up,0.6463446000125259,1.1070642109720468,,experiment,emotion,1.0,,,,1370.9274996999884,19,24,female,True
503,0.0670272726620893,25,up,up,0.6244199000066146,0.5162610781842354,,experiment,cRDM,2.0,,,,1381.8604219999395,19,24,female,True
504,0.0670272726620893,25,up,up,0.8052097000181675,1.7524936372978792,,experiment,cRDM,2.0,,,,1384.493621599977,19,24,female,True
505,0.0670272726620893,25,down,down,0.5749101999681443,0.6707625833398496,,experiment,cRDM,2.0,,,,1386.2269431999885,19,24,female,True
506,0.0670272726620893,25,down,up,0.5153652000008151,1.3300524276550494,,experiment,cRDM,2.0,,,,1388.3934935999569,19,24,female,True
507,0.0670272726620893,25,up,down,0.59005190001335,1.5019439405010004,,experiment,cRDM,2.0,,,,1390.6767690000124,19,24,female,True
508,0.0670272726620893,25,down,down,0.6401628999738023,1.4973778785522869,,experiment,cRDM,2.0,,,,1393.0267143000383,19,24,female,True
509,0.0670272726620893,25,up,up,0.7099066999508068,0.8833532932399155,,experiment,cRDM,2.0,,,,1394.8099373999285,19,24,female,True
510,0.0670272726620893,25,up,down,0.5636298999888822,1.4507655369618149,,experiment,cRDM,2.0,,,,1397.243197600008,19,24,female,True
511,0.0670272726620893,25,down,down,0.6973117000889033,1.950095459293616,,experiment,cRDM,2.0,,,,1400.026491199969,19,24,female,True
512,0.0670272726620893,25,down,down,0.8192712999880314,1.412102827617237,,experiment,cRDM,2.0,,,,1402.4095637999708,19,24,female,True
513,0.0670272726620893,25,down,down,0.6042513999855146,1.1771911798823242,,experiment,cRDM,2.0,,,,1404.659573999932,19,24,female,True
514,0.0670272726620893,25,down,down,0.5220147999934852,1.4603096141001106,,experiment,cRDM,2.0,,,,1406.992824099958,19,24,female,True
515,0.0670272726620893,25,down,down,0.501080600079149,0.9211737663934942,,experiment,cRDM,2.0,,,,1408.6927570999833,19,24,female,True
516,0.0670272726620893,25,down,down,0.601648100069724,1.654244107103738,,experiment,cRDM,2.0,,,,1411.1092017999615,19,24,female,True
517,0.0670272726620893,25,up,up,0.8023112999508157,0.6261245339934517,,experiment,cRDM,2.0,,,,1412.592607800034,19,24,female,True
518,0.0670272726620893,25,up,down,0.5569782999809831,1.608062864060409,,experiment,cRDM,2.0,,,,1415.2758574000327,19,24,female,True
519,0.0670272726620893,25,up,down,0.7881152000045404,1.3769018161492017,,experiment,cRDM,2.0,,,,1417.4757712000282,19,24,female,True
520,0.0670272726620893,25,up,up,0.8688160999445245,1.1821301087368032,,experiment,cRDM,2.0,,,,1419.7090341999428,19,24,female,True
521,0.0670272726620893,25,down,down,0.6462267999304458,1.632141403036768,,experiment,cRDM,2.0,,,,1422.475607899949,19,24,female,True
522,0.0670272726620893,25,up,down,1.1143237999640403,1.9371230769399197,,experiment,cRDM,2.0,,,,1425.325514300028,19,24,female,True
523,0.0670272726620893,25,up,down,0.8334758999990299,1.730203604097777,,experiment,cRDM,2.0,,,,1428.425406399998,19,24,female,True
524,0.0670272726620893,25,down,up,1.4095220000017434,1.2873051383768377,,experiment,cRDM,2.0,,,,1430.825311099994,19,24,female,True
525,0.0670272726620893,25,up,down,0.7880430999211967,0.3949390488588019,,experiment,cRDM,2.0,,,,1432.8918526000343,19,24,female,True
526,0.0670272726620893,25,down,down,0.7016804000595585,0.8883094399221556,,experiment,cRDM,2.0,,,,1434.8251739999978,19,24,female,True
527,0.0670272726620893,25,down,up,1.2188461000332609,0.3243765202901572,,experiment,cRDM,2.0,,,,1436.125062200008,19,24,female,True
528,0.0670272726620893,25,up,down,0.8081784999230877,1.0313932307804263,,experiment,cRDM,2.0,,,,1438.6416420999449,19,24,female,True
529,0.0670272726620893,25,up,down,0.6614032000070438,1.88574632038434,,experiment,cRDM,2.0,,,,1441.591474100016,19,24,female,True
530,0.0670272726620893,25,down,down,0.8926466999109834,0.5892507103295141,,experiment,cRDM,2.0,,,,1443.1081582999325,19,24,female,True
531,0.0670272726620893,25,up,down,1.0450240999925882,0.412968193437256,,experiment,cRDM,2.0,,,,1444.6747948999982,19,24,female,True
532,0.0670272726620893,25,down,down,0.7340792000759393,0.5528120967512693,,experiment,cRDM,2.0,,,,1446.5247321999632,19,24,female,True
533,0.0670272726620893,25,down,down,0.9052255999995396,0.9540027061779284,,experiment,cRDM,2.0,,,,1448.4746340999843,19,24,female,True
534,0.0670272726620893,25,down,down,0.7729864000575617,1.717366045630122,,experiment,cRDM,2.0,,,,1451.35787409998,19,24,female,True
535,0.0670272726620893,25,up,down,0.7383748999563977,0.3713913545216703,,experiment,cRDM,2.0,,,,1452.7744610999944,19,24,female,True
536,0.0670272726620893,25,up,down,0.8414344000630081,0.3409611942679979,,experiment,cRDM,2.0,,,,1454.1244338999968,19,24,female,True
537,0.0670272726620893,25,up,up,0.7611599999945611,1.9699947940848053,,experiment,cRDM,2.0,,,,1457.2076635999838,19,24,female,True
538,0.0670272726620893,25,down,down,0.7862967998953536,1.5384813694091846,,experiment,cRDM,2.0,,,,1459.757575799944,19,24,female,True
539,0.0670272726620893,25,down,down,0.7566730999387801,0.9271798824622972,,experiment,cRDM,2.0,,,,1461.7241547999438,19,24,female,True
540,0.0670272726620893,25,up,down,1.008779100026004,1.883813336050668,,experiment,cRDM,2.0,,,,1464.6240564000327,19,24,female,True
541,0.0670272726620893,25,down,down,0.8835091000655666,0.9090044427972186,,experiment,cRDM,2.0,,,,1466.8073590999702,19,24,female,True
542,0.0670272726620893,25,up,up,0.8639141999883577,1.077397634221093,,experiment,cRDM,2.0,,,,1469.023919499945,19,24,female,True
543,0.0670272726620893,25,up,down,0.5933837000047788,1.138189148975999,,experiment,cRDM,2.0,,,,1471.2904480999568,19,24,female,True
544,0.0670272726620893,25,up,down,0.8537936999928206,1.064671283283601,,experiment,cRDM,2.0,,,,1473.2070301999338,19,24,female,True
545,0.0670272726620893,25,down,up,1.1206010000314564,1.8616110500455976,,experiment,cRDM,2.0,,,,1476.1902642999776,19,24,female,True
546,0.0670272726620893,25,down,down,0.9116355000296608,1.217542114741751,,experiment,cRDM,2.0,,,,1478.790194900008,19,24,female,True
547,0.0670272726620893,25,up,up,0.8890058000106364,0.8416568217547318,,experiment,cRDM,2.0,,,,1480.806812099996,19,24,female,True
548,0.0670272726620893,25,down,down,0.705381799954921,0.7271461602750284,,experiment,cRDM,2.0,,,,1482.6733454000205,19,24,female,True
549,0.0670272726620893,25,down,up,1.3171840000431985,0.915397292711602,,experiment,cRDM,2.0,,,,1484.556645500008,19,24,female,True
550,0.0670272726620893,25,up,down,0.5252997000934556,1.5166307919885196,,experiment,cRDM,2.0,,,,1487.6565199999604,19,24,female,True
551,0.0670272726620893,25,up,down,0.9350434000371024,0.7843456767166803,,experiment,cRDM,2.0,,,,1489.239803000004,19,24,female,True
552,0.0670272726620893,25,down,down,1.0261580999940634,1.1998579260756208,,experiment,cRDM,2.0,,,,1491.6397038999712,19,24,female,True
553,0.0670272726620893,25,up,up,0.8221823999192566,0.4077621343309187,,experiment,cRDM,2.0,,,,1493.339659799938,19,24,female,True
554,0.0670272726620893,25,down,down,0.6635455000214279,0.4798681705517917,,experiment,cRDM,2.0,,,,1494.9062778999796,19,24,female,True
555,0.0670272726620893,25,down,down,0.6779786000261083,0.7873646406081121,,experiment,cRDM,2.0,,,,1496.6228893999942,19,24,female,True
556,0.0670272726620893,25,down,down,0.5197743999306113,1.1403041473478197,,experiment,cRDM,2.0,,,,1498.706052799942,19,24,female,True
557,0.0670272726620893,25,up,down,0.7144690999994054,1.7443679020893434,,experiment,cRDM,2.0,,,,1501.239356599981,19,24,female,True
558,0.0670272726620893,25,up,down,0.8785569999599829,1.0674119772923645,,experiment,cRDM,2.0,,,,1503.289264400024,19,24,female,True
559,0.0670272726620893,25,down,down,0.692312499973923,1.8921558009478745,,experiment,cRDM,2.0,,,,1506.3225346999243,19,24,female,True
560,0.0670272726620893,25,down,down,0.4002389999805018,1.1068427035718864,,experiment,cRDM,2.0,,,,1508.389116599923,19,24,female,True
561,0.0670272726620893,25,up,up,0.499309099977836,1.5384335774566589,,experiment,cRDM,2.0,,,,1510.605512799928,19,24,female,True
562,0.0670272726620893,25,up,down,0.94716639991384,1.1421424009416392,,experiment,cRDM,2.0,,,,1512.5056335999398,19,24,female,True
563,0.0670272726620893,25,up,up,0.8986444999463856,1.862444425046063,,experiment,cRDM,2.0,,,,1515.5721813000273,19,24,female,True
564,0.0670272726620893,25,up,down,0.7447312999283895,1.487089224807337,,experiment,cRDM,2.0,,,,1518.222090199939,19,24,female,True
565,0.0670272726620893,25,up,down,0.775810300023295,0.5324855383016175,,experiment,cRDM,2.0,,,,1519.7720118999714,19,24,female,True
566,0.0670272726620893,25,down,down,0.6925234999507666,0.9604094457350132,,experiment,cRDM,2.0,,,,1521.7552911000091,19,24,female,True
567,0.0670272726620893,25,down,down,0.6473218000028282,1.8211299675623165,,experiment,cRDM,2.0,,,,1524.538520699949,19,24,female,True
568,0.0670272726620893,25,up,down,0.6450836999574676,0.724872379118755,,experiment,cRDM,2.0,,,,1526.171773899929,19,24,female,True
569,0.0670272726620893,25,down,down,0.7414739000378177,1.6003567330816029,,experiment,cRDM,2.0,,,,1528.6883420000086,19,24,female,True
570,0.0670272726620893,25,down,down,0.777178299962543,0.3738629039631932,,experiment,cRDM,2.0,,,,1530.0716311000288,19,24,female,True
571,0.0670272726620893,25,down,up,0.7002085000276566,0.6112146170719903,,experiment,cRDM,2.0,,,,1531.7215985000366,19,24,female,True
572,0.0670272726620893,25,up,up,0.9646514999913052,0.4943210765430855,,experiment,cRDM,2.0,,,,1533.1881681999655,19,24,female,True
573,0.0670272726620893,25,down,down,0.7153925000457093,1.8488951688295887,,experiment,cRDM,2.0,,,,1536.271386999986,19,24,female,True
574,0.0670272726620893,25,down,up,0.2838930001016706,1.8251273629199831,,experiment,cRDM,2.0,,,,1539.087950599962,19,24,female,True
575,0.0670272726620893,25,down,down,0.8139506001025438,0.9191548319828424,,experiment,cRDM,2.0,,,,1540.6878927999642,19,24,female,True
576,0.0670272726620893,25,up,down,0.6849824000382796,0.6631711718111406,,experiment,cRDM,2.0,,,,1542.4378355999943,19,24,female,True
577,0.0670272726620893,25,up,up,1.5306869000196457,0.9303480888879468,,experiment,cRDM,2.0,,,,1544.3211397000125,19,24,female,True
578,0.0670272726620893,25,down,up,0.92743389995303,0.4913893081907441,,experiment,cRDM,2.0,,,,1546.6043826999376,19,24,female,True
579,0.0670272726620893,25,up,down,0.7028065000195056,0.3347492485687072,,experiment,cRDM,2.0,,,,1548.1210087999934,19,24,female,True
580,0.0670272726620893,25,down,up,0.8089004999492317,0.5940867983135701,,experiment,cRDM,2.0,,,,1549.6709149000235,19,24,female,True
581,0.0670272726620893,25,up,up,0.6659678000723943,1.3296787820659848,,experiment,cRDM,2.0,,,,1552.0708304999862,19,24,female,True
582,0.0670272726620893,25,up,up,0.7640730999410152,1.5647824446752103,,experiment,cRDM,2.0,,,,1554.57073139993,19,24,female,True
583,85.0,25,M,down,1.059967799927108,0.8468733038973058,,experiment,emotion,2.0,,,,1579.3198478999548,19,24,female,True
584,63.0,25,M,down,0.6724317000480369,1.559257743151109,,experiment,emotion,2.0,,,,1582.2363795000128,19,24,female,True
585,77.0,25,F,up,0.6218652999959886,1.318592066761177,,experiment,emotion,2.0,,,,1584.5029488999862,19,24,female,True
586,85.0,25,F,up,0.7169998000608757,1.8401917442393527,,experiment,emotion,2.0,,,,1587.2528594000032,19,24,female,True
587,77.0,25,M,up,0.5923321000300348,1.0890004837198075,,experiment,emotion,2.0,,,,1589.319459500024,19,24,female,True
588,70.0,25,F,up,0.5931445000460371,1.2707174448929652,,experiment,emotion,2.0,,,,1591.4527076999657,19,24,female,True
589,63.0,25,M,down,0.5864879000000656,0.3677459936012512,,experiment,emotion,2.0,,,,1592.6693221000023,19,24,female,True
590,70.0,25,M,down,0.839243600028567,1.18006759700365,,experiment,emotion,2.0,,,,1594.702591600013,19,24,female,True
591,85.0,25,F,up,0.7116504999576136,1.700350697494553,,experiment,emotion,2.0,,,,1597.519162899931,19,24,female,True
592,70.0,25,F,down,0.677431600051932,1.3561098990530371,,experiment,emotion,2.0,,,,1599.8523998999735,19,24,female,True
593,77.0,25,F,down,0.7103527000872418,1.4843903172371826,,experiment,emotion,2.0,,,,1602.285650899983,19,24,female,True
594,85.0,25,F,up,0.7642470999853685,1.674766224703982,,experiment,emotion,2.0,,,,1604.93555569998,19,24,female,True
595,77.0,25,F,up,0.7722212000517175,0.4614813222395633,,experiment,emotion,2.0,,,,1606.4354957999894,19,24,female,True
596,63.0,25,F,down,0.735703100101091,0.5474125481601217,,experiment,emotion,2.0,,,,1608.0520996999694,19,24,female,True
597,70.0,25,M,up,0.5259283999912441,1.686060680905549,,experiment,emotion,2.0,,,,1610.7520066000288,19,24,female,True
598,63.0,25,M,down,0.5829282000195235,1.7031700643507222,,experiment,emotion,2.0,,,,1613.251902799937,19,24,female,True
599,85.0,25,M,up,0.7727360000135377,0.3937702977791231,,experiment,emotion,2.0,,,,1614.4851307999345,19,24,female,True
600,63.0,25,M,down,0.7074270999291912,1.9588692775836596,,experiment,emotion,2.0,,,,1617.4684042999288,19,24,female,True
601,77.0,25,F,up,0.5418301000026986,1.6277355114574763,,experiment,emotion,2.0,,,,1620.0850098000374,19,24,female,True
602,77.0,25,M,up,0.6499136000638828,1.8408731718775924,,experiment,emotion,2.0,,,,1622.7348937999925,19,24,female,True
603,70.0,25,M,down,0.8252826000098139,0.6722360374552998,,experiment,emotion,2.0,,,,1624.3515038000187,19,24,female,True
604,70.0,25,F,up,0.860060500097461,1.051512629174312,,experiment,emotion,2.0,,,,1626.4847208999563,19,24,female,True
605,63.0,25,M,down,0.6474331000354141,1.7374203813500382,,experiment,emotion,2.0,,,,1629.3513015999924,19,24,female,True
606,85.0,25,F,up,0.9095647999783978,0.5669932054842044,,experiment,emotion,2.0,,,,1630.851242100005,19,24,female,True
607,77.0,25,F,down,0.668552799965255,0.5434481205715972,,experiment,emotion,2.0,,,,1632.584426800022,19,24,female,True
608,63.0,25,M,up,0.7722859000787139,0.7236546530285454,,experiment,emotion,2.0,,,,1634.234478999977,19,24,female,True
609,85.0,25,M,up,0.8466931999428198,0.66739903398341,,experiment,emotion,2.0,,,,1635.9510837999403,19,24,female,True
610,85.0,25,F,up,0.7464560000225902,0.5124552721094728,,experiment,emotion,2.0,,,,1637.5843276999658,19,24,female,True
611,70.0,25,M,up,0.7791950000682846,0.5651459964038991,,experiment,emotion,2.0,,,,1639.1676080999896,19,24,female,True
612,63.0,25,F,down,0.8849077000049874,0.8243900659180154,,experiment,emotion,2.0,,,,1641.0508974000113,19,24,female,True
613,70.0,25,F,down,0.9307734000030904,1.2684668550595748,,experiment,emotion,2.0,,,,1643.4840279000346,19,24,female,True
614,77.0,25,F,up,0.7838001999771222,1.9330368950200143,,experiment,emotion,2.0,,,,1646.6340074000182,19,24,female,True
615,63.0,25,M,down,0.8109912000363693,0.8899654061641811,,experiment,emotion,2.0,,,,1648.5838535999646,19,24,female,True
616,85.0,25,M,up,0.6885864000068977,0.5330979647751064,,experiment,emotion,2.0,,,,1650.2172162999632,19,24,female,True
617,77.0,25,M,up,0.6016661999747157,1.0496349364175048,,experiment,emotion,2.0,,,,1652.2171509999316,19,24,female,True
618,85.0,25,F,down,0.8880751000251621,0.5978941656417687,,experiment,emotion,2.0,,,,1653.6837367999833,19,24,female,True
619,63.0,25,F,up,0.3336249999701977,1.7499132567566429,,experiment,emotion,2.0,,,,1656.5835738999303,19,24,female,True
620,77.0,25,M,down,0.7928571000229567,1.5102998730669963,,experiment,emotion,2.0,,,,1658.7668964000186,19,24,female,True
621,70.0,25,F,up,1.2506286000134423,1.7974054854392951,,experiment,emotion,2.0,,,,1661.6501473999815,19,24,female,True
622,70.0,25,M,,,0.5407421583113109,,experiment,emotion,2.0,,,,1663.7167157999938,19,24,female,True
623,77.0,25,M,up,0.8594939999748021,1.0343483229646844,,experiment,emotion,2.0,,,,1667.433249900001,19,24,female,True
624,85.0,25,M,up,0.7282804000424221,0.9439065426049242,,experiment,emotion,2.0,,,,1669.5165003000293,19,24,female,True
625,70.0,25,F,up,0.6923462999984622,0.74737715629081,,experiment,emotion,2.0,,,,1671.2664539000252,19,24,female,True
626,63.0,25,F,down,0.7230805000290275,0.5992001890648022,,experiment,emotion,2.0,,,,1672.8497155000225,19,24,female,True
627,63.0,25,M,down,0.7452378999441862,1.6581385164798326,,experiment,emotion,2.0,,,,1675.4995746000204,19,24,female,True
628,70.0,25,F,up,0.6546059000538662,0.7147872443104515,,experiment,emotion,2.0,,,,1677.216216800036,19,24,female,True
629,85.0,25,F,up,0.7001528999535367,0.446191816253164,,experiment,emotion,2.0,,,,1678.582822300028,19,24,female,True
630,77.0,25,M,up,0.7363408000674099,1.0884154841180862,,experiment,emotion,2.0,,,,1680.649443399976,19,24,female,True
631,63.0,25,M,down,0.6991390000330284,1.7789251009407574,,experiment,emotion,2.0,,,,1683.4326696000062,19,24,female,True
632,85.0,25,F,down,0.5861783999716863,0.3148842190485243,,experiment,emotion,2.0,,,,1684.7326186000137,19,24,female,True
633,77.0,25,M,up,0.8352340999990702,1.347482481324488,,experiment,emotion,2.0,,,,1686.9325453999918,19,24,female,True
634,77.0,25,F,down,0.6036495000589639,0.3020535829868437,,experiment,emotion,2.0,,,,1688.3491438999772,19,24,female,True
635,63.0,25,F,down,0.7413919999962673,1.7104444649225738,,experiment,emotion,2.0,,,,1690.9324095000047,19,24,female,True
636,70.0,25,F,up,0.6298535999376327,1.0237246801816473,,experiment,emotion,2.0,,,,1692.9989500000374,19,24,female,True
637,85.0,25,M,down,0.8308946000179276,1.344799485026264,,experiment,emotion,2.0,,,,1695.2488948999671,19,24,female,True
638,70.0,25,M,down,1.12665280001238,0.6851704531153241,,experiment,emotion,2.0,,,,1697.0321653999854,19,24,female,True
639,70.0,25,F,up,0.7491771000204608,0.3597318047894887,,experiment,emotion,2.0,,,,1698.7986184000038,19,24,female,True
640,70.0,25,F,up,0.7188077999744564,1.3707624830456586,,experiment,emotion,2.0,,,,1701.181999100023,19,24,female,True
641,85.0,25,M,up,0.8005342999240384,1.8007654234595891,,experiment,emotion,2.0,,,,1703.96523969993,19,24,female,True
642,77.0,25,M,down,0.6562814000062644,1.7925109513424935,,experiment,emotion,2.0,,,,1706.848461400019,19,24,female,True
643,63.0,25,M,down,0.8166805000510067,0.7634418325928074,,experiment,emotion,2.0,,,,1708.5651137999955,19,24,female,True
644,63.0,25,M,down,0.6208189999451861,1.2757626886904954,,experiment,emotion,2.0,,,,1710.914984999923,19,24,female,True
645,77.0,25,M,down,0.7991968999849632,1.178753350401955,,experiment,emotion,2.0,,,,1712.9815764999948,19,24,female,True
646,85.0,25,F,down,0.8129845000803471,1.115013630036609,,experiment,emotion,2.0,,,,1715.1648227999683,19,24,female,True
647,85.0,25,F,down,1.3754008999094367,0.8341223056814766,,experiment,emotion,2.0,,,,1717.0814045999432,19,24,female,True
648,63.0,25,M,down,0.7864894999656826,0.3927299586203751,,experiment,emotion,2.0,,,,1719.1313437999925,19,24,female,True
649,85.0,25,F,up,0.583193700062111,0.4792135344070678,,experiment,emotion,2.0,,,,1720.6646290000062,19,24,female,True
650,70.0,25,F,down,1.016209999914281,0.5881961290213287,,experiment,emotion,2.0,,,,1722.1145805999404,19,24,female,True
651,77.0,25,F,up,0.7170172999612987,0.9909096894163965,,experiment,emotion,2.0,,,,1724.3977693000345,19,24,female,True
652,70.0,25,M,down,0.6810813000192866,1.8626322717265973,,experiment,emotion,2.0,,,,1727.247713599936,19,24,female,True
653,63.0,25,F,up,0.9874526000348852,1.4530436708155563,,experiment,emotion,2.0,,,,1729.6643335999688,19,24,female,True
654,77.0,25,F,up,0.8599294999148697,0.8973016231693651,,experiment,emotion,2.0,,,,1731.8308854999486,19,24,female,True
655,70.0,25,F,down,0.6766022999072447,0.7322003806061487,,experiment,emotion,2.0,,,,1733.7141713999445,19,24,female,True
656,77.0,25,M,down,1.0511525000911206,1.7736562158832343,,experiment,emotion,2.0,,,,1736.4306939999806,19,24,female,True
657,63.0,25,M,down,0.7858204999938607,0.9322052366564726,,experiment,emotion,2.0,,,,1738.6639693999896,19,24,female,True
658,85.0,25,F,up,0.6278731999918818,0.3821757759959923,,experiment,emotion,2.0,,,,1740.1139152999967,19,24,female,True
659,77.0,25,M,down,0.7889024000614882,1.2060935694099786,,experiment,emotion,2.0,,,,1742.2138547999784,19,24,female,True
660,85.0,25,F,up,0.905702200019732,0.6323638067133458,,experiment,emotion,2.0,,,,1743.897044399986,19,24,female,True
661,63.0,25,M,down,0.7117486000061035,0.7707949306183721,,experiment,emotion,2.0,,,,1745.8470685000066,19,24,female,True
662,70.0,25,M,down,0.6975089999614283,0.9446614994347158,,experiment,emotion,2.0,,,,1747.7802789999405,19,24,female,True
663,0.0670272726620893,25,up,up,0.6932359000202268,0.3892439663519588,,experiment,cRDM,3.0,,,,1777.5625423999736,19,24,female,True
664,0.0670272726620893,25,up,up,0.7422361999051645,0.6957347447207447,,experiment,cRDM,3.0,,,,1779.212520299945,19,24,female,True
665,0.0670272726620893,25,down,down,0.5453398000681773,0.5449762287059841,,experiment,cRDM,3.0,,,,1780.762425599969,19,24,female,True
666,0.0670272726620893,25,down,down,0.6074616999831051,1.094372296731781,,experiment,cRDM,3.0,,,,1782.662349899998,19,24,female,True
667,0.0670272726620893,25,up,up,0.6368066999129951,0.5883839701738132,,experiment,cRDM,3.0,,,,1784.1290103000356,19,24,female,True
668,0.0670272726620893,25,down,down,0.6169170999201015,0.8536906716136843,,experiment,cRDM,3.0,,,,1785.8788580999244,19,24,female,True
669,0.0670272726620893,25,up,up,0.6459582999814302,0.9063570526761604,,experiment,cRDM,3.0,,,,1787.6788208000362,19,24,female,True
670,0.0670272726620893,25,up,up,0.8990775999845937,1.948529329731273,,experiment,cRDM,3.0,,,,1790.5287165000336,19,24,female,True
671,0.0670272726620893,25,down,down,0.6121405999874696,0.6886530290927237,,experiment,cRDM,3.0,,,,1792.3786584000336,19,24,female,True
672,0.0670272726620893,25,down,up,0.9298644000664352,0.9162352398279998,,experiment,cRDM,3.0,,,,1794.1619314999552,19,24,female,True
673,0.0670272726620893,25,down,down,0.6207930999808013,1.3420591309776595,,experiment,cRDM,3.0,,,,1796.6950106000295,19,24,female,True
674,0.0670272726620893,25,down,down,0.6386416000314057,1.7020085336647035,,experiment,cRDM,3.0,,,,1799.2951358000282,19,24,female,True
675,0.0670272726620893,25,down,down,0.7065506000071764,1.784023876874678,,experiment,cRDM,3.0,,,,1801.9782288999995,19,24,female,True
676,0.0670272726620893,25,down,down,0.5758743999758735,1.554799014007404,,experiment,cRDM,3.0,,,,1804.4949058999773,19,24,female,True
677,0.0670272726620893,25,up,down,0.636268200003542,0.778923966792294,,experiment,cRDM,3.0,,,,1806.1114908999295,19,24,female,True
678,0.0670272726620893,25,up,up,0.6226782000157982,1.5669971398895846,,experiment,cRDM,3.0,,,,1808.578043699963,19,24,female,True
679,0.0670272726620893,25,up,up,0.8141514000017196,1.9722358303948884,,experiment,cRDM,3.0,,,,1811.444629500038,19,24,female,True
680,0.0670272726620893,25,up,down,0.6406187999527901,1.22873221286077,,experiment,cRDM,3.0,,,,1813.7612078000093,19,24,female,True
681,0.0670272726620893,25,down,down,0.6739603000460193,1.1562750799850363,,experiment,cRDM,3.0,,,,1815.8278052000096,19,24,female,True
682,0.0670272726620893,25,up,down,1.0216863000532612,0.8805697007152564,,experiment,cRDM,3.0,,,,1817.6610592999496,19,24,female,True
683,0.0670272726620893,25,up,up,1.0474400999955833,1.7490257545263768,,experiment,cRDM,3.0,,,,1820.6943324999884,19,24,female,True
684,0.0670272726620893,25,down,down,0.7892703999532387,1.828280599210047,,experiment,cRDM,3.0,,,,1823.8275177000323,19,24,female,True
685,0.0670272726620893,25,up,up,1.0236633999738842,0.9992228256782114,,experiment,cRDM,3.0,,,,1825.894112900016,19,24,female,True
686,0.0670272726620893,25,down,down,0.5821501000318676,1.9881803855079767,,experiment,cRDM,3.0,,,,1829.1606259000253,19,24,female,True
687,0.0670272726620893,25,down,down,0.6419282000279054,1.7369435570599538,,experiment,cRDM,3.0,,,,1831.743889000034,19,24,female,True
688,0.0670272726620893,25,up,up,0.738951199920848,0.3864502451359712,,experiment,cRDM,3.0,,,,1833.043820700026,19,24,female,True
689,0.0670272726620893,25,up,down,1.133404100080952,1.4068867295723748,,experiment,cRDM,3.0,,,,1835.460384099977,19,24,female,True
690,0.0670272726620893,25,down,down,0.7675235000206158,1.4635601021332048,,experiment,cRDM,3.0,,,,1838.3102856000187,19,24,female,True
691,0.0670272726620893,25,up,up,1.0312385999131948,1.3988880445439928,,experiment,cRDM,3.0,,,,1840.743537900038,19,24,female,True
692,0.0670272726620893,25,down,down,0.527327699935995,1.540189525130291,,experiment,cRDM,3.0,,,,1843.5934678999477,19,24,female,True
693,0.0670272726620893,25,down,up,1.096373499953188,0.7612251346059873,,experiment,cRDM,3.0,,,,1845.143395800027,19,24,female,True
694,0.0670272726620893,25,down,down,0.5454659999813884,1.644649262671737,,experiment,cRDM,3.0,,,,1848.143301700009,19,24,female,True
695,0.0670272726620893,25,up,up,0.6638874999480322,0.8599375729401644,,experiment,cRDM,3.0,,,,1849.809914099984,19,24,female,True
696,0.0670272726620893,25,up,up,0.7616284999530762,1.010570019347956,,experiment,cRDM,3.0,,,,1851.743138800026,19,24,female,True
697,0.0670272726620893,25,up,down,0.6506242000032216,1.294935503306457,,experiment,cRDM,3.0,,,,1854.076216300018,19,24,female,True
698,0.0670272726620893,25,down,up,0.5875526999589056,1.5957021182423106,,experiment,cRDM,3.0,,,,1856.5762946000325,19,24,female,True
699,0.0670272726620893,25,down,down,0.5898102999199182,0.7767691123076292,,experiment,cRDM,3.0,,,,1858.192965999944,19,24,female,True
700,0.0670272726620893,25,up,down,0.5855894000269473,0.7821034880548173,,experiment,cRDM,3.0,,,,1859.8261794999707,19,24,female,True
701,0.0670272726620893,25,down,down,0.642732199979946,1.2536231120862626,,experiment,cRDM,3.0,,,,1861.9261103000024,19,24,female,True
702,0.0670272726620893,25,up,up,0.7301004000473768,0.7123052530693665,,experiment,cRDM,3.0,,,,1863.542700399994,19,24,female,True
703,0.0670272726620893,25,up,down,0.635462100035511,0.8661265050530267,,experiment,cRDM,3.0,,,,1865.409306299989,19,24,female,True
704,0.0670272726620893,25,up,down,0.720860100002028,1.6546479395309874,,experiment,cRDM,3.0,,,,1867.9759101000384,19,24,female,True
705,0.0670272726620893,25,down,up,0.6559477000264451,0.3581711894340139,,experiment,cRDM,3.0,,,,1869.325850800029,19,24,female,True
706,0.0670272726620893,25,down,down,0.7267137001035735,1.97514666931306,,experiment,cRDM,3.0,,,,1872.2090520999627,19,24,female,True
707,0.0670272726620893,25,up,down,0.6092925000702962,1.6722498001522736,,experiment,cRDM,3.0,,,,1874.8754560999805,19,24,female,True
708,0.0670272726620893,25,down,down,0.5963484999956563,1.1311442995001886,,experiment,cRDM,3.0,,,,1876.875443099998,19,24,female,True
709,0.0670272726620893,25,down,down,0.7074091999093071,1.5244200667210517,,experiment,cRDM,3.0,,,,1879.2753851999296,19,24,female,True
710,0.0670272726620893,25,up,down,0.5884412999730557,1.036865882141292,,experiment,cRDM,3.0,,,,1881.275325499941,19,24,female,True
711,0.0670272726620893,25,up,down,1.0021874000085518,1.9332959949590427,,experiment,cRDM,3.0,,,,1884.0586130999727,19,24,female,True
712,0.0670272726620893,25,down,down,0.8702568999724463,0.6324269197164512,,experiment,cRDM,3.0,,,,1885.9585301999468,19,24,female,True
713,0.0670272726620893,25,up,down,0.5579662999371067,1.2471405608576698,,experiment,cRDM,3.0,,,,1888.341800199938,19,24,female,True
714,0.0670272726620893,25,down,down,0.5653906000079587,1.142220544452553,,experiment,cRDM,3.0,,,,1890.3083721000005,19,24,female,True
715,0.0670272726620893,25,down,down,0.5424501999514177,1.235317506443896,,experiment,cRDM,3.0,,,,1892.3583078000229,19,24,female,True
716,0.0670272726620893,25,down,down,0.6458620999474078,1.1489519058655042,,experiment,cRDM,3.0,,,,1894.3249065999407,19,24,female,True
717,0.0670272726620893,25,up,down,0.6542137999786064,0.3155430466651923,,experiment,cRDM,3.0,,,,1895.5415469999425,19,24,female,True
718,0.0670272726620893,25,up,down,0.6543095000088215,1.4309926987980193,,experiment,cRDM,3.0,,,,1897.8914699000304,19,24,female,True
719,0.0670272726620893,25,down,down,0.6283904999727383,1.7763173173405291,,experiment,cRDM,3.0,,,,1900.5913893999527,19,24,female,True
720,0.0670272726620893,25,down,down,0.6709378999657929,1.2890850118968973,,experiment,cRDM,3.0,,,,1902.774863000028,19,24,female,True
721,0.0670272726620893,25,up,down,0.8779037999920547,1.4516161881291323,,experiment,cRDM,3.0,,,,1905.157860000036,19,24,female,True
722,0.0670272726620893,25,up,down,0.6956383000360802,0.9009616177910328,,experiment,cRDM,3.0,,,,1907.1911247000096,19,24,female,True
723,0.0670272726620893,25,up,down,0.6847169999964535,0.7991475140585084,,experiment,cRDM,3.0,,,,1908.9410681999288,19,24,female,True
724,0.0670272726620893,25,up,up,0.6280982000753284,1.0652265949981985,,experiment,cRDM,3.0,,,,1910.9576160999716,19,24,female,True
725,0.0670272726620893,25,up,down,0.5505312999011949,0.9942433966449488,,experiment,cRDM,3.0,,,,1912.824233299936,19,24,female,True
726,0.0670272726620893,25,down,down,0.8613382999319583,1.4156299068925111,,experiment,cRDM,3.0,,,,1915.057459300035,19,24,female,True
727,0.0670272726620893,25,down,down,0.6926769999554381,1.2389644951703094,,experiment,cRDM,3.0,,,,1917.4240681999363,19,24,female,True
728,0.0670272726620893,25,up,up,0.7048575000371784,0.5986459814388955,,experiment,cRDM,3.0,,,,1918.973902400001,19,24,female,True
729,0.0670272726620893,25,down,down,0.5225774999707937,1.820185228191872,,experiment,cRDM,3.0,,,,1921.7572213000385,19,24,female,True
730,0.0670272726620893,25,down,up,1.9396209000842648,1.0666419492906212,,experiment,cRDM,3.0,,,,1923.607183599961,19,24,female,True
731,0.0670272726620893,25,down,down,0.5830540000461042,1.8146167623113951,,experiment,cRDM,3.0,,,,1927.623709699954,19,24,female,True
732,0.0670272726620893,25,up,up,0.7648575999774039,1.8885213708176491,,experiment,cRDM,3.0,,,,1930.3569036999247,19,24,female,True
