,stimLvl,stimTime,rand,response,rt,precedingITI,trialNumber,trialType,stimuli,block,estIntens,estThres,estSlope,trialStart,subject,age,gender,headRest
0,0.9,100,down,,,0.5180464496738959,,introTrial,cRDM,,,,,214.45396340000025,76,24,male,True
1,150.0,100,F,,,0.5888934934114461,,introTrial,emotion,,,,,219.0036253000003,76,24,male,True
2,200.0,25,M,up,1.0667339000001448,1.4395029371733756,,tutorial,emotion,,,,,261.2021850000001,76,24,male,True
3,200.0,25,F,up,0.5961797999998453,0.500713695984921,,tutorial,emotion,,,,,263.0687558,76,24,male,True
4,200.0,25,F,up,0.7579319999999825,0.5519240375956809,,tutorial,emotion,,,,,264.5019577000003,76,24,male,True
5,0.0,25,M,down,0.4811937999998008,0.9439599380261998,,tutorial,emotion,,,,,266.5186521999999,76,24,male,True
6,0.0,25,M,down,0.5457351000000017,1.406294314532736,,tutorial,emotion,,,,,268.7021552000001,76,24,male,True
7,200.0,25,F,up,0.6554729999998017,1.8460768458010373,,tutorial,emotion,,,,,271.36846190000006,76,24,male,True
8,0.0,25,M,down,0.7022014999997737,0.8430443700932664,,tutorial,emotion,,,,,273.1517226000001,76,24,male,True
9,200.0,25,F,up,0.6980962000002364,1.8708018095457195,,tutorial,emotion,,,,,276.0018826999999,76,24,male,True
10,0.0,25,M,down,0.556352699999934,0.3729872912828319,,tutorial,emotion,,,,,277.35158200000023,76,24,male,True
11,0.0,25,F,down,0.6227250000001732,1.428884293176058,,tutorial,emotion,,,,,279.6181509000003,76,24,male,True
12,0.9,25,up,up,0.686716400000023,1.1854927573936116,,tutorial,cRDM,,,,,297.4841836999999,76,24,male,True
13,0.9,25,up,up,0.8348172999999406,0.9395281158085856,,tutorial,cRDM,,,,,299.38410109999995,76,24,male,True
14,0.9,25,down,down,0.6083812000001672,1.5055817670887215,,tutorial,cRDM,,,,,302.00055180000027,76,24,male,True
15,0.9,25,down,down,0.578259700000217,0.4495926533746418,,tutorial,cRDM,,,,,303.3506189,76,24,male,True
16,0.9,25,up,up,0.5656371999998555,0.8223186353746894,,tutorial,cRDM,,,,,305.0172391000001,76,24,male,True
17,0.9,25,down,down,0.6104593000000023,1.4807957972639223,,tutorial,cRDM,,,,,307.3504693,76,24,male,True
18,0.9,25,up,up,0.6018816000000697,1.55147866003379,,tutorial,cRDM,,,,,309.7670360000002,76,24,male,True
19,0.9,25,up,up,0.6109013999998751,0.9153042677581896,,tutorial,cRDM,,,,,311.5669984000001,76,24,male,True
20,0.9,25,down,down,0.4726237999998375,1.6019621790393328,,tutorial,cRDM,,,,,314.0502734000001,76,24,male,True
21,0.9,25,down,down,0.7570812999997543,1.1695387852534147,,tutorial,cRDM,,,,,315.9668177000003,76,24,male,True
22,100.0,25,M,down,1.163691799999924,1.3611377546680403,,psi_staircase_training,emotion,,100.0,100.0,25.00050000000001,368.5981749000002,76,24,male,True
23,145.0,25,M,up,0.9320872000002964,0.9026676672657568,,psi_staircase_training,emotion,,145.25719053245996,145.25719053245996,25.00050000000028,371.0147857000002,76,24,male,True
24,121.0,25,F,up,0.9019388000001528,1.6000428218214964,,psi_staircase_training,emotion,,120.36392901436103,120.36392901436103,25.71326925488699,373.8979558000001,76,24,male,True
25,97.0,25,F,up,1.1380705999999918,1.2404640407158616,,psi_staircase_training,emotion,,102.3887610608496,102.3887610608496,26.14633372628729,376.3978594,76,24,male,True
26,73.0,25,M,down,0.8653819000001022,0.8654064129576549,,psi_staircase_training,emotion,,82.84358992132628,82.84358992132628,31.43229144782805,378.76450920000025,76,24,male,True
27,84.0,25,F,down,0.9271557000001848,0.8888571672656571,,psi_staircase_training,emotion,,94.9613577591715,94.9613577591715,29.694064005486624,380.8977576000002,76,24,male,True
28,112.0,25,M,up,0.6809422999999697,0.8920031957894334,,psi_staircase_training,emotion,,101.8384874441451,101.8384874441451,27.87588470540148,383.08098340000015,76,24,male,True
29,84.0,25,F,down,0.9890267999999196,1.03449249723722,,psi_staircase_training,emotion,,96.52149301196152,96.52149301196152,26.167505567849595,385.13092499999993,76,24,male,True
30,112.0,25,F,up,0.887800999999854,1.2452696316712963,,psi_staircase_training,emotion,,100.4399405768832,100.4399405768832,24.06105184598652,387.7141637,76,24,male,True
31,86.0,25,M,down,1.4568613999999798,1.5066099933210289,,psi_staircase_training,emotion,,97.27117883264344,97.27117883264344,21.995508974138588,390.4640543,76,24,male,True
32,109.0,25,F,up,1.485942400000113,0.5006770556920253,,psi_staircase_training,emotion,,99.8380683730314,99.8380683730314,19.86449481087272,392.7639807000001,76,24,male,True
33,89.0,25,F,up,1.3071324000002278,1.6997313166248704,,psi_staircase_training,emotion,,97.57882283297954,97.57882283297954,17.856501798714334,396.3138465000002,76,24,male,True
34,76.0,25,F,down,0.7257363999997324,0.6142164200737406,,psi_staircase_training,emotion,,92.69357162067158,92.69357162067158,22.871454661283487,398.5971175,76,24,male,True
35,78.0,25,M,down,1.3285666000001584,0.7428079048581069,,psi_staircase_training,emotion,,94.38778220626736,94.38778220626736,20.87066499522983,400.43036269999993,76,24,male,True
36,109.0,25,M,up,0.7503492999999253,1.6595692363818064,,psi_staircase_training,emotion,,95.589178393808,95.589178393808,19.14693168673489,403.7635705000002,76,24,male,True
37,107.0,25,F,up,0.7301072000000204,1.23674442518685,,psi_staircase_training,emotion,,94.2493335712992,94.2493335712992,17.40432003584725,406.0968175000002,76,24,male,True
38,81.0,25,F,up,0.5753644000001259,0.4290078377739333,,psi_staircase_training,emotion,,93.20840142239147,93.20840142239147,15.90884774580953,407.6134809,76,24,male,True
39,71.0,25,M,down,0.7154829999999492,0.5173864641773491,,psi_staircase_training,emotion,,89.4855475353957,89.4855475353957,22.105033016395776,409.0633714000001,76,24,male,True
40,72.0,25,M,down,1.0853551000000152,1.855987705264424,,psi_staircase_training,emotion,,90.6144440555824,90.6144440555824,20.47399419825164,411.9965510000002,76,24,male,True
41,108.0,25,M,down,1.252101500000208,0.6516076364049915,,psi_staircase_training,emotion,,91.4473167564534,91.4473167564534,19.073994109768226,414.0798125000001,76,24,male,True
42,118.0,25,M,up,1.1591252000002896,1.3573722828866914,,psi_staircase_training,emotion,,94.842231222695,94.842231222695,24.6411552825327,417.0297628000003,76,24,male,True
43,71.0,25,F,down,0.9119500000001608,1.1944672875862663,,psi_staircase_training,emotion,,94.03887655952803,94.03887655952803,23.430251066911605,419.7129808,76,24,male,True
44,116.0,25,F,up,1.287044899999728,1.739774681654708,,psi_staircase_training,emotion,,94.73487916225028,94.73487916225028,22.28307174168031,422.7128818000001,76,24,male,True
45,73.0,25,F,down,0.6151449999997567,0.4728720860576445,,psi_staircase_training,emotion,,94.05026476119691,94.05026476119691,21.171659685198275,424.8127920000002,76,24,male,True
46,114.0,25,M,up,0.601155800000015,1.187314470607993,,psi_staircase_training,emotion,,94.64263155118807,94.64263155118807,20.143315551292325,426.96270410000034,76,24,male,True
47,75.0,25,M,down,1.047883499999898,0.3139780519988137,,psi_staircase_training,emotion,,94.04627927796348,94.04627927796348,19.16184888387864,428.24601120000034,76,24,male,True
48,112.0,25,F,up,0.6730333999998948,1.41403945322949,,psi_staircase_training,emotion,,94.56466932668292,94.56466932668292,18.27072598638571,431.0458943000003,76,24,male,True
49,76.0,25,F,down,0.7031096999999136,0.8301980856665605,,psi_staircase_training,emotion,,94.02899346423868,94.02899346423868,17.427538753196586,432.8957860999999,76,24,male,True
50,110.0,25,M,down,1.2958856000000196,1.1184173397584127,,psi_staircase_training,emotion,,94.46938690904958,94.46938690904958,16.6827783423997,435.07907449999993,76,24,male,True
51,118.0,25,M,up,0.7203244000002087,1.9215585069054129,,psi_staircase_training,emotion,,96.82203880832624,96.82203880832624,20.04137559828773,438.6456146999999,76,24,male,True
52,0.29,25,up,up,1.0721807999998418,0.3014960846071677,,psi_staircase_training,cRDM,,0.25,0.2569312402994632,0.105,446.3286785,76,24,male,True
53,0.25,25,up,up,1.2679282999997668,0.3862773379897672,,psi_staircase_training,cRDM,,0.2191026665318312,0.2260132002683492,0.1046863203387393,448.0619463000003,76,24,male,True
54,0.21,25,down,down,0.5970622999998341,1.3524406644589777,,psi_staircase_training,cRDM,,0.1900540959403307,0.1968497961554001,0.1029467298424999,450.9618353999999,76,24,male,True
55,0.18,25,down,down,1.1911269999995966,0.5011868011016298,,psi_staircase_training,cRDM,,0.1635257589279754,0.1701521334256793,0.1003816477568649,452.3617914000001,76,24,male,True
56,0.15,25,up,up,0.5319556000004013,1.3170132548457736,,psi_staircase_training,cRDM,,0.1401895574244936,0.1466013351187503,0.0971307628663642,455.1450187999999,76,24,male,True
57,0.13,25,down,up,0.6740695999997115,0.5438000601751757,,psi_staircase_training,cRDM,,0.1198760602145479,0.1260554767618333,0.0936107694196103,456.4948236,76,24,male,True
58,0.21,25,up,up,0.8043557999999393,1.823949514707115,,psi_staircase_training,cRDM,,0.1822197442013377,0.1893568545454257,0.1081186849325176,459.2615725999999,76,24,male,True
59,0.19,25,down,down,0.4234062000000449,0.8842250821507134,,psi_staircase_training,cRDM,,0.1634673296955829,0.1703561363143587,0.104357180493002,461.21148790000007,76,24,male,True
60,0.17,25,down,up,0.5915618999997605,1.9566795730008777,,psi_staircase_training,cRDM,,0.1479762083426976,0.1545956479102528,0.1002765918600629,463.8613419000003,76,24,male,True
61,0.23,25,up,down,0.5489647999997942,1.2515024844621143,,psi_staircase_training,cRDM,,0.1998378898991115,0.2072840090091746,0.1127997981280737,465.9779493000001,76,24,male,True
62,0.32,25,down,down,0.5936101000002054,1.3994654440868703,,psi_staircase_training,cRDM,,0.2671059537612564,0.2757042551813624,0.1302539819866076,468.21122689999993,76,24,male,True
63,0.3,25,down,down,0.6841105000003154,0.7546342625012838,,psi_staircase_training,cRDM,,0.2483310128242561,0.2569294260437794,0.1302556756140536,469.8278266000002,76,24,male,True
64,0.28,25,down,down,0.6003674999997202,1.5931878708266642,,psi_staircase_training,cRDM,,0.2317126938956407,0.2402313950406477,0.1290481330296685,472.3946606,76,24,male,True
65,0.26,25,up,down,0.8658854999998766,0.9919511497079874,,psi_staircase_training,cRDM,,0.2169531841920876,0.225364150275852,0.1274160757149997,474.26098189999993,76,24,male,True
66,0.32,25,up,down,0.5126570000002175,1.2561754773811218,,psi_staircase_training,cRDM,,0.2700609290638087,0.2787794254317893,0.1320747916803353,476.6442345999999,76,24,male,True
67,0.39,25,down,down,0.8114681000001838,1.5544543283352232,,psi_staircase_training,cRDM,,0.3277173050601661,0.336968406283081,0.1401431181777511,478.97745890000033,76,24,male,True
68,0.37,25,down,down,0.5744798999999148,0.658922561181596,,psi_staircase_training,cRDM,,0.3138031714059152,0.3231464759123063,0.1415398876369989,480.727406,76,24,male,True
69,0.36,25,up,down,0.6895542000002024,0.3406460274312303,,psi_staircase_training,cRDM,,0.3004142281428784,0.3098051021073611,0.1422605080287054,481.9273685000003,76,24,male,True
70,0.41,25,up,down,1.082334400000036,1.4775482357889007,,psi_staircase_training,cRDM,,0.3506908463929372,0.3600979886555647,0.1425069532868991,484.3605849000001,76,24,male,True
71,0.45,25,up,up,0.5923029000000497,0.377780228787493,,psi_staircase_training,cRDM,,0.3942247898150216,0.4034598999099419,0.1399008717158064,486.1105419999999,76,24,male,True
72,0.44,25,up,up,1.1450015000000349,0.3462830502761392,,psi_staircase_training,cRDM,,0.3854155671076956,0.3947931442068976,0.1420590764242384,487.32718019999993,76,24,male,True
73,0.4,25,down,down,0.4885033000000476,1.102199168606524,,psi_staircase_training,cRDM,,0.3765863068905563,0.3860772741520549,0.1437768017557446,489.8603892000001,76,24,male,True
74,0.4,25,down,down,0.8012312999999267,0.4607743601113824,,psi_staircase_training,cRDM,,0.3655074981801178,0.3753500426299826,0.1491027756339406,491.09369400000014,76,24,male,True
75,0.4,25,down,down,0.7983868000001166,1.8641727325494664,,psi_staircase_training,cRDM,,0.3549056758866521,0.3649815493390784,0.1526374309352227,494.04358980000006,76,24,male,True
76,0.4,25,up,down,1.3584067000001596,1.6653355148071756,,psi_staircase_training,cRDM,,0.344934460195589,0.3551464945088599,0.1547001051134359,496.7935207,76,24,male,True
77,0.4,25,up,down,0.6222487000000001,1.6104870500791513,,psi_staircase_training,cRDM,,0.3801200800705102,0.3901038153631148,0.1512416480214446,500.0267013000002,76,24,male,True
78,0.46,25,down,down,0.9908910999997717,0.5845433907348724,,psi_staircase_training,cRDM,,0.4066655432668557,0.4158526107013288,0.1391730828744129,501.51001380000025,76,24,male,True
79,0.46,25,down,down,0.5890853999999308,1.5404816568026185,,psi_staircase_training,cRDM,,0.4015807597006041,0.4106532258212392,0.1374370100457283,504.3099138000002,76,24,male,True
80,0.46,25,up,up,1.3113776000000144,0.6520084835142264,,psi_staircase_training,cRDM,,0.3970649671958104,0.4059567906693644,0.1347004900112124,505.8264973,76,24,male,True
81,0.46,25,up,up,0.8831507999998394,1.992536258220991,,psi_staircase_training,cRDM,,0.393102771910069,0.4017638623928384,0.1312051611832322,509.40972120000015,76,24,male,True
82,100.0,25,M,up,1.0662418000001708,0.6335955124864845,,psi_staircase,emotion,,100.0,100.0,25.00050000000001,546.8416371000003,76,24,male,True
83,55.0,25,M,down,0.6137370000001283,1.2576798300210117,,psi_staircase,emotion,,54.7428094675419,54.7428094675419,25.00050000000011,549.5082336999999,76,24,male,True
84,79.0,25,F,down,0.6557606000001215,1.413597991899383,,psi_staircase,emotion,,79.636070985635,79.636070985635,25.713269254886413,551.9081312000003,76,24,male,True
85,103.0,25,F,up,1.1231856999997945,0.8653309900090684,,psi_staircase,emotion,,97.61123893914808,97.61123893914808,26.1463337262867,553.7747107,76,24,male,True
86,87.0,25,M,down,1.3782697999999982,1.3243016348514944,,psi_staircase,emotion,,85.98876744579668,85.98876744579668,23.003056417783498,556.5746079999999,76,24,male,True
87,95.0,25,F,up,0.965457299999798,0.3996911879599457,,psi_staircase,emotion,,95.05640406123077,95.05640406123077,22.150603223582728,558.6914595000003,76,24,male,True
88,84.0,25,M,down,0.9091483000001972,1.161182250967482,,psi_staircase,emotion,,88.41622646561945,88.41622646561945,20.597853251064077,561.1577766999999,76,24,male,True
89,92.0,25,F,down,0.8649135999999089,1.8235008993964748,,psi_staircase,emotion,,92.48012886422012,92.48012886422012,17.547034846052444,564.2409627000002,76,24,male,True
90,103.0,25,F,up,0.9783124999999018,0.9528811298754613,,psi_staircase,emotion,,96.8905074648852,96.8905074648852,18.870841324428707,566.4075863000003,76,24,male,True
91,99.0,25,M,down,0.7520962999997209,1.1045051337631888,,psi_staircase,emotion,,93.80492701211604,93.80492701211604,15.11241007381393,568.8408174000001,76,24,male,True
92,111.0,25,F,down,1.126526499999727,1.8569023455168103,,psi_staircase,emotion,,98.53990789904084,98.53990789904084,22.93176653364061,571.8074283000001,76,24,male,True
93,124.0,25,F,down,0.8687310000000252,1.8894976634151917,,psi_staircase,emotion,,105.57150043081852,105.57150043081852,31.346984380291914,575.1741885000001,76,24,male,True
94,134.0,25,F,up,0.650816599999871,1.1644095573700626,,psi_staircase,emotion,,113.42227628252996,113.42227628252996,36.46768985048892,577.5571576000002,76,24,male,True
95,133.0,25,M,up,0.5677720999997291,0.4990362510190612,,psi_staircase,emotion,,110.31054496023684,110.31054496023684,35.2537379413986,579.0570940000002,76,24,male,True
96,132.0,25,M,up,0.5891747999999097,1.8254638925406328,,psi_staircase,emotion,,107.84349954233528,107.84349954233528,34.095500876674976,581.8236889,76,24,male,True
97,131.0,25,F,up,0.599083999999948,1.6146954290139508,,psi_staircase,emotion,,105.84025282149412,105.84025282149412,32.98985785985522,584.3738364999999,76,24,male,True
98,78.0,25,F,down,0.736065999999937,1.583890148111347,,psi_staircase,emotion,,104.18676118296088,104.18676118296088,31.93506182037281,586.9068276000003,76,24,male,True
99,130.0,25,M,up,0.7164981000000807,1.6465595571664513,,psi_staircase,emotion,,105.54824428086584,105.54824428086584,30.92315004750221,589.6233811000002,76,24,male,True
100,78.0,25,M,down,0.5328822999999829,0.3214271319066594,,psi_staircase,emotion,,104.1661638599991,104.1661638599991,29.81339592505075,590.9900433000003,76,24,male,True
101,130.0,25,M,up,0.8516004000002795,0.5643988273454934,,psi_staircase,emotion,,105.25966138589504,105.25966138589504,28.7708042262919,592.4232765000002,76,24,male,True
102,128.0,25,M,up,0.7238446000001204,1.4451693271180817,,psi_staircase,emotion,,104.14055304861216,104.14055304861216,27.658128388448937,595.0730395999999,76,24,male,True
103,79.0,25,F,down,0.6997873000000254,1.8778667003373828,,psi_staircase,emotion,,103.16209455049314,103.16209455049314,26.606916198455345,598.0230928999999,76,24,male,True
104,127.0,25,F,up,0.9238964999999552,0.6589963365660672,,psi_staircase,emotion,,104.07064542487156,104.07064542487156,25.52144850454393,599.7230245000001,76,24,male,True
105,80.0,25,F,down,0.5189754000002722,0.5357737127458659,,psi_staircase,emotion,,103.24074853841852,103.24074853841852,24.50650782973528,601.5229491,76,24,male,True
106,125.0,25,M,up,0.9083356999999525,1.722238640799123,,psi_staircase,emotion,,103.99774776166106,103.99774776166106,23.488551269226857,604.1395269,76,24,male,True
107,81.0,25,M,down,0.6455046000000948,1.123685937392085,,psi_staircase,emotion,,103.2508052258039,103.2508052258039,22.530586439197485,606.5394103000003,76,24,male,True
108,123.0,25,F,up,0.541848100000152,0.4729360186427596,,psi_staircase,emotion,,103.88512326633534,103.88512326633534,21.60444157301171,608.0060444000001,76,24,male,True
109,83.0,25,F,down,0.8196499999999105,1.4304691392402895,,psi_staircase,emotion,,103.19798018720748,103.19798018720748,20.72237185663154,610.3392721,76,24,male,True
110,120.0,25,M,up,0.5859946000000491,0.7941967561996256,,psi_staircase,emotion,,103.76412116538046,103.76412116538046,19.886936157341108,612.3059063999999,76,24,male,True
111,118.0,25,M,up,0.6117949000004046,1.5028757718855068,,psi_staircase,emotion,,103.07720715639432,103.07720715639432,19.07847356824617,614.7391250000001,76,24,male,True
112,85.0,25,F,down,0.6521641999997883,1.5061616755171676,,psi_staircase,emotion,,102.41529015495529,102.41529015495529,18.332720709448463,617.2057256000003,76,24,male,True
113,115.0,25,M,up,0.5936610999997356,1.1142178347150762,,psi_staircase,emotion,,102.92657932163884,102.92657932163884,17.59814275674268,619.3223049000003,76,24,male,True
114,113.0,25,F,up,0.5397775999999794,1.313192868238784,,psi_staircase,emotion,,102.22464025414206,102.22464025414206,16.911766178204164,621.5891398000003,76,24,male,True
115,111.0,25,M,up,0.5764213000002201,1.579738711126337,,psi_staircase,emotion,,101.5191857672155,101.5191857672155,16.26243231566565,624.0554660000003,76,24,male,True
116,109.0,25,F,down,0.8804893000001357,1.0743790981728123,,psi_staircase,emotion,,100.80030338349272,100.80030338349272,15.637667557276757,626.0553872999999,76,24,male,True
117,85.0,25,M,down,0.6013701000001674,1.4192073988797709,,psi_staircase,emotion,,102.5846227946614,102.5846227946614,17.116204232985513,628.6886354000003,76,24,male,True
118,86.0,25,F,down,0.6260687999997572,1.5029393407408609,,psi_staircase,emotion,,102.99754080541176,102.99754080541176,16.499616849773194,631.1218598,76,24,male,True
119,118.0,25,M,up,0.622125700000197,1.325667942423797,,psi_staircase,emotion,,103.36791461056607,103.36791461056607,15.950670587500118,633.4217788999999,76,24,male,True
120,88.0,25,M,down,0.7035495000000083,1.9974196687495156,,psi_staircase,emotion,,102.98022181114855,102.98022181114855,15.458980368694649,636.3883744,76,24,male,True
121,116.0,25,F,up,0.8573218000001361,1.9896480524016185,,psi_staircase,emotion,,103.34368489865486,103.34368489865486,14.975164735756051,639.4215661000003,76,24,male,True
122,115.0,25,F,up,1.3737071999998989,1.5668274471100467,,psi_staircase,emotion,,102.9392178166537,102.9392178166537,14.5299475352572,642.1881587000003,76,24,male,True
123,89.0,25,F,down,0.6175693000000138,1.3020290862016908,,psi_staircase,emotion,,102.54715256153172,102.54715256153172,14.1138538623965,645.2213383000003,76,24,male,True
124,114.0,25,M,up,1.5126884000001155,1.8446738006617285,,psi_staircase,emotion,,102.88239484325322,102.88239484325322,13.69756461372998,648.0212145999999,76,24,male,True
125,113.0,25,M,up,1.0008109000000331,1.0990875741475925,,psi_staircase,emotion,,102.49660182871028,102.49660182871028,13.312705694390202,650.9711176999999,76,24,male,True
126,90.0,25,F,down,0.6168448999997054,0.376192997527805,,psi_staircase,emotion,,102.11578203570303,102.11578203570303,12.946335140003542,652.7210677000003,76,24,male,True
127,112.0,25,F,up,0.7674148000000969,0.4980462997554984,,psi_staircase,emotion,,102.4295404164129,102.4295404164129,12.578906562561468,654.1874954,76,24,male,True
128,111.0,25,F,down,0.6416094999999586,1.6427147213386086,,psi_staircase,emotion,,102.048971154577,102.048971154577,12.230649164696173,656.9542476000001,76,24,male,True
129,90.0,25,M,down,0.6885473000002094,0.3612718416351665,,psi_staircase,emotion,,103.3024657860312,103.3024657860312,13.340466890304112,658.2873752,76,24,male,True
130,91.0,25,M,down,0.5711616999997204,1.2506774331960158,,psi_staircase,emotion,,103.57537858133112,103.57537858133112,13.0024675523129,660.5707556000002,76,24,male,True
131,115.0,25,M,up,1.0998857999998108,1.163634956722928,,psi_staircase,emotion,,103.8396307588616,103.8396307588616,12.689968737696956,662.65402,76,24,male,True
132,0.29,25,up,up,0.7198747000002186,1.1505850819155798,,psi_staircase,cRDM,,0.25,0.2569312402994632,0.105,671.1370443000001,76,24,male,True
133,0.25,25,up,down,0.5542998999999327,0.6457899725407219,,psi_staircase,cRDM,,0.2191026665318312,0.2260132002683492,0.1046863203387393,672.7536503000001,76,24,male,True
134,0.36,25,down,down,0.8323176999997486,1.2207138416079353,,psi_staircase,cRDM,,0.3202997408361979,0.3276103223604739,0.1107465658214764,674.8035979000001,76,24,male,True
135,0.33,25,down,down,1.0617486000001009,0.7161504675857022,,psi_staircase,cRDM,,0.2990372097977385,0.3064139828071687,0.1117492876491608,676.6201738,76,24,male,True
136,0.31,25,up,up,0.606833700000152,0.76226679400453,,psi_staircase,cRDM,,0.2780189805609542,0.2853981109641391,0.1117849993448387,678.7201061999999,76,24,male,True
137,0.31,25,down,down,0.4721730000001116,1.348445392306735,,psi_staircase,cRDM,,0.2582073586141265,0.2655339603556145,0.1109892529502702,680.9367004999999,76,24,male,True
138,0.29,25,up,down,0.6559001999999055,0.351862316943562,,psi_staircase,cRDM,,0.2413824040928039,0.2485489846939696,0.1085651240775294,682.0199777000003,76,24,male,True
139,0.34,25,down,down,0.55533000000014,0.7989561755149492,,psi_staircase,cRDM,,0.3073454417166785,0.3149277051621045,0.1148622219650045,683.7365846000002,76,24,male,True
140,0.33,25,down,down,0.941754899999978,1.998953976509317,,psi_staircase,cRDM,,0.2927292575981571,0.3001400641015301,0.1122648543745358,686.5531470999999,76,24,male,True
141,0.33,25,up,down,0.6353535000002921,1.5200432711424836,,psi_staircase,cRDM,,0.2799629878781474,0.2871409858153892,0.1087380830626744,689.2695848000003,76,24,male,True
142,0.37,25,down,down,0.9063954999996896,1.5009582333001574,,psi_staircase,cRDM,,0.3320353981898789,0.3406907973172827,0.1311189439569381,691.6696211000003,76,24,male,True
143,0.37,25,down,down,0.8350067000001218,0.5548431497523993,,psi_staircase,cRDM,,0.3190764743538712,0.3276924259179506,0.1305213605562619,693.4029082000002,76,24,male,True
144,0.36,25,down,down,1.4868500000002314,0.7867891506212916,,psi_staircase,cRDM,,0.3076659559105882,0.3161495510044785,0.1285163183460051,695.2860304000001,76,24,male,True
145,0.32,25,up,up,1.1341442999996616,0.7027951099208215,,psi_staircase,cRDM,,0.2973373147173445,0.3056440834327319,0.1258376102157674,697.7527313,76,24,male,True
146,0.32,25,up,down,1.215627399999903,0.9308831985115388,,psi_staircase,cRDM,,0.2850756035651033,0.2935203766808674,0.1279282118128118,700.0862895,76,24,male,True
147,0.37,25,down,down,0.6189773000000969,0.3215098332210378,,psi_staircase,cRDM,,0.3244332246313388,0.3327389234372905,0.1258214023675483,701.8859352,76,24,male,True
148,0.37,25,down,down,0.5606409000001804,0.343586583169898,,psi_staircase,cRDM,,0.3161580607546225,0.3242086373236134,0.1219566056322573,703.1192120000001,76,24,male,True
149,0.37,25,up,down,0.661453100000017,1.469605103326599,,psi_staircase,cRDM,,0.3092223414343046,0.3169734786520538,0.1174204576238246,705.4024472000001,76,24,male,True
150,0.39,25,up,up,0.6079050000003008,1.7885216340665702,,psi_staircase,cRDM,,0.3410954892172009,0.3506788248258703,0.1451760717325318,708.1190075,76,24,male,True
151,0.39,25,up,up,1.2852944999999636,0.8413290018479562,,psi_staircase,cRDM,,0.3325429513083668,0.3420457604736446,0.14395619243376,709.8356159,76,24,male,True
152,0.39,25,up,up,0.9083722999998828,1.2477037335054375,,psi_staircase,cRDM,,0.3248152169541883,0.3341910559688079,0.1420327465217578,712.6355073,76,24,male,True
153,0.35,25,down,down,0.555887100000291,1.9400062561241775,,psi_staircase,cRDM,,0.3179039070838289,0.3271182829405711,0.1395867728078702,715.7520582000002,76,24,male,True
154,0.36,25,down,down,0.6498541999999361,0.8205068826007775,,psi_staircase,cRDM,,0.3097557278367805,0.3189671382550822,0.1395418499624919,717.4020565999999,76,24,male,True
155,0.36,25,down,down,0.826215300000058,1.2985485003911896,,psi_staircase,cRDM,,0.3028496066494512,0.3119445651848893,0.1377777432265545,719.6186130000001,76,24,male,True
156,0.31,25,up,up,0.6065880999999536,1.092341033326116,,psi_staircase,cRDM,,0.2966729868055001,0.3056207259734453,0.1355475458998307,721.8003045999999,76,24,male,True
157,0.31,25,up,down,1.1442717999998422,1.3244014099330468,,psi_staircase,cRDM,,0.2875108047271044,0.2968077616322384,0.1408377769148575,723.9836085000002,76,24,male,True
158,0.37,25,down,down,0.6473574999999983,0.7138567639477491,,psi_staircase,cRDM,,0.3134613924032338,0.3219918249965126,0.129225850438865,726.1005624,76,24,male,True
159,0.36,25,down,down,1.0393168000000514,1.72783641919761,,psi_staircase,cRDM,,0.3088069305591059,0.3170743891943523,0.1252421095208731,728.7515848000003,76,24,male,True
160,0.36,25,up,down,1.1440176999999494,0.5354874388451673,,psi_staircase,cRDM,,0.3044109558245372,0.3124298186912648,0.1214761809760941,730.5848606,76,24,male,True
161,0.39,25,up,down,0.5964671000001545,1.4106470826286,,psi_staircase,cRDM,,0.323730954561225,0.3331600560243285,0.1428396089084564,733.4014379,76,24,male,True
162,0.43,25,down,down,0.6292324000000917,1.0866068223268084,,psi_staircase,cRDM,,0.346839248550514,0.3571298820048916,0.1558907880878578,735.3346811000001,76,24,male,True
163,0.42,25,up,up,0.3338332999996964,1.0276511017293048,,psi_staircase,cRDM,,0.3417186948415407,0.3519124624359879,0.1544233861722901,737.2512541000001,76,24,male,True
164,0.41,25,down,down,0.6057889999997315,0.7270978323007022,,psi_staircase,cRDM,,0.3367146919707533,0.346810808560647,0.1529440902548028,738.6681554000002,76,24,male,True
165,0.4,25,up,up,0.6894713000001502,1.81015602953096,,psi_staircase,cRDM,,0.3318214612055331,0.3418214212810351,0.1514874340756911,741.3344563,76,24,male,True
166,0.4,25,down,down,0.5299396000000343,0.969247084666944,,psi_staircase,cRDM,,0.3270291626573442,0.3369366131102841,0.1500860239457066,743.2679855000001,76,24,male,True
167,0.39,25,up,down,1.330779800000073,1.609042714302556,,psi_staircase,cRDM,,0.3225721423392831,0.3323799162327047,0.1485760432932931,745.6681345000002,76,24,male,True
168,0.44,25,down,up,1.2853414000001069,1.7425046877090211,,psi_staircase,cRDM,,0.3428123190110514,0.3530486722786423,0.1550685081831987,749.0175227,76,24,male,True
169,0.47,25,up,up,1.299557199999981,1.2022087471264025,,psi_staircase,cRDM,,0.3648006671739755,0.3756236200511675,0.1639547906300634,751.7673030000001,76,24,male,True
170,0.47,25,up,down,0.5891968999999335,0.4801576635156439,,psi_staircase,cRDM,,0.3608850043494944,0.3716125221980441,0.1625090640970758,753.8006954000002,76,24,male,True
171,0.47,25,down,down,0.6749449999997523,1.5394327079123196,,psi_staircase,cRDM,,0.382819363801529,0.3941268937543438,0.1712955537174915,756.1839494000001,76,24,male,True
172,0.47,25,down,down,0.901650900000277,1.5009866657083384,,psi_staircase,cRDM,,0.3787121967342126,0.3899530548437778,0.1702855550392257,758.6171671000002,76,24,male,True
173,0.48,25,down,down,1.460841999999957,0.5891195257876747,,psi_staircase,cRDM,,0.374740145454652,0.385907928831724,0.1691785602474867,760.3670138000002,76,24,male,True
174,0.48,25,up,up,1.359558200000265,0.9146294106731724,,psi_staircase,cRDM,,0.3711145935882529,0.3821974381946841,0.167891839468528,763.0003396000002,76,24,male,True
175,0.49,25,up,down,0.5257046000001537,0.7283115832279359,,psi_staircase,cRDM,,0.3676283390703908,0.3786236428791545,0.1665657010924293,765.3502309,76,24,male,True
176,0.49,25,down,down,0.6213866000002781,1.2453928186295,,psi_staircase,cRDM,,0.3876620587617512,0.3992574194550052,0.1756558451574619,767.383562,76,24,male,True
177,0.5,25,down,down,1.0482882000001157,1.3965418658616653,,psi_staircase,cRDM,,0.3842213475600932,0.395747162063947,0.1746023035730499,769.6666201000003,76,24,male,True
178,0.5,25,down,down,1.069562600000154,1.859870147123986,,psi_staircase,cRDM,,0.3810469353913873,0.3924954166210883,0.1734307969688624,772.8333067000003,76,24,male,True
179,0.5,25,up,up,0.7230015999998614,1.5383621672050345,,psi_staircase,cRDM,,0.3779634224412981,0.3893325828777456,0.1722291818275922,775.6998817000003,76,24,male,True
180,0.49,25,up,up,0.7114065000000664,0.49070277113873,,psi_staircase,cRDM,,0.3749783241537554,0.3862664447318299,0.1710015249059548,777.1664566,76,24,male,True
181,0.5,25,up,down,0.4167913000001135,1.6073060807694834,,psi_staircase,cRDM,,0.3719148089258864,0.3831250687578079,0.1698220277318775,779.7496977999999,76,24,male,True
182,108.0,25,F,down,1.2003406999997424,1.5551272574116994,,experiment,emotion,0.0,,,,786.0995470000003,76,24,male,True
183,98.0,25,M,down,1.179483199999595,0.5705402740973675,,experiment,emotion,0.0,,,,788.1494196000003,76,24,male,True
184,105.0,25,F,up,1.2173705000000157,1.6717006579956388,,experiment,emotion,0.0,,,,791.2825498000002,76,24,male,True
185,108.0,25,M,down,1.3914076999999452,1.3594147390071123,,experiment,emotion,0.0,,,,794.1325080000001,76,24,male,True
186,105.0,25,F,down,1.7408288999999968,1.7994005225045804,,experiment,emotion,0.0,,,,797.5990771000002,76,24,male,True
187,101.0,25,F,up,1.0292071000003489,0.5322438606322577,,experiment,emotion,0.0,,,,800.1656382000001,76,24,male,True
188,98.0,25,M,down,1.212421300000187,1.9995454170214264,,experiment,emotion,0.0,,,,803.4655032999999,76,24,male,True
189,101.0,25,F,down,0.8554586999998719,0.7775197455948799,,experiment,emotion,0.0,,,,805.7154209,76,24,male,True
190,108.0,25,M,down,0.6975459000000228,0.9522858633641592,,experiment,emotion,0.0,,,,807.8153637999999,76,24,male,True
191,101.0,25,M,down,0.5016611000000921,1.027443316656511,,experiment,emotion,0.0,,,,809.8152878000001,76,24,male,True
192,105.0,25,F,down,0.4687198000001444,1.817214426767624,,experiment,emotion,0.0,,,,812.4151830999999,76,24,male,True
193,108.0,25,M,down,0.4431166999997913,1.577576328369173,,experiment,emotion,0.0,,,,814.7317578000002,76,24,male,True
194,105.0,25,M,down,0.6203925999998319,0.6365454366428369,,experiment,emotion,0.0,,,,816.0814697000001,76,24,male,True
195,98.0,25,M,down,0.654981200000293,1.7952901795173113,,experiment,emotion,0.0,,,,818.7649203000001,76,24,male,True
196,101.0,25,F,up,0.7384682000001703,1.20095366040752,,experiment,emotion,0.0,,,,820.8814007000001,76,24,male,True
197,98.0,25,F,down,0.8214874000000236,0.9944738124713182,,experiment,emotion,0.0,,,,822.8814130000001,76,24,male,True
198,108.0,25,M,down,0.6377703000002839,1.1225279639227808,,experiment,emotion,0.0,,,,825.0980779000001,76,24,male,True
199,98.0,25,M,down,0.6828786999999465,0.5934945435781803,,experiment,emotion,0.0,,,,826.5980003,76,24,male,True
200,105.0,25,F,down,0.56964569999991,1.4773990215820791,,experiment,emotion,0.0,,,,829.0312284000001,76,24,male,True
201,105.0,25,F,up,1.195356499999889,0.8392951759780651,,experiment,emotion,0.0,,,,830.7145224999999,76,24,male,True
202,101.0,25,M,up,1.1110975000001415,1.579404226193526,,experiment,emotion,0.0,,,,833.7477011000001,76,24,male,True
203,101.0,25,F,up,0.9085755999999492,0.6901255716955635,,experiment,emotion,0.0,,,,835.8143084000003,76,24,male,True
204,98.0,25,M,down,0.7226573000002645,1.682133324863319,,experiment,emotion,0.0,,,,838.6642027000003,76,24,male,True
205,108.0,25,F,up,1.9636795999999777,0.4408516287295502,,experiment,emotion,0.0,,,,840.1141817000002,76,24,male,True
206,105.0,25,F,up,1.148350599999958,0.8468160268892018,,experiment,emotion,0.0,,,,843.1805266000001,76,24,male,True
207,98.0,25,M,up,1.0599246000001583,1.823775385483882,,experiment,emotion,0.0,,,,846.4139041000003,76,24,male,True
208,108.0,25,M,up,0.7930671999997685,1.006443988480133,,experiment,emotion,0.0,,,,848.7638243000001,76,24,male,True
209,108.0,25,F,down,0.6895130999996582,1.2958368472296626,,experiment,emotion,0.0,,,,851.1304089,76,24,male,True
210,101.0,25,M,down,0.6747605000000476,1.5798917620204738,,experiment,emotion,0.0,,,,853.6800899,76,24,male,True
211,98.0,25,F,down,0.7770058000000972,1.919006146895166,,experiment,emotion,0.0,,,,856.5468976000002,76,24,male,True
212,101.0,25,M,down,0.6547119000001658,0.9012330893086892,,experiment,emotion,0.0,,,,858.4801397000001,76,24,male,True
213,105.0,25,F,down,0.3501384999999573,1.454167783239326,,experiment,emotion,0.0,,,,860.8800633000001,76,24,male,True
214,98.0,25,M,down,0.4167929999998705,1.9225853323854896,,experiment,emotion,0.0,,,,863.4966210000002,76,24,male,True
215,108.0,25,F,down,0.596359300000131,0.9384144139487256,,experiment,emotion,0.0,,,,865.1465439000003,76,24,male,True
216,105.0,25,M,down,0.4260240999997222,0.561935583820371,,experiment,emotion,0.0,,,,866.5798445999999,76,24,male,True
217,108.0,25,F,up,0.8414524999998321,1.6852619592016342,,experiment,emotion,0.0,,,,868.9464277000002,76,24,male,True
218,98.0,25,M,up,0.8098614999998972,0.9554851930055296,,experiment,emotion,0.0,,,,871.0130187,76,24,male,True
219,105.0,25,F,up,0.6082612000000154,1.0397727440645437,,experiment,emotion,0.0,,,,873.1296090999999,76,24,male,True
220,101.0,25,M,up,0.8335959999999432,1.8490014779123591,,experiment,emotion,0.0,,,,875.8793023000003,76,24,male,True
221,101.0,25,F,up,0.8987952999996196,1.063456628844088,,experiment,emotion,0.0,,,,878.0460771000003,76,24,male,True
222,105.0,25,F,up,1.2182275999998635,1.6819906964787086,,experiment,emotion,0.0,,,,880.9126510000001,76,24,male,True
223,108.0,25,M,up,0.4826737999997021,0.7172112071445151,,experiment,emotion,0.0,,,,883.1292369000003,76,24,male,True
224,101.0,25,F,down,0.8007096999999703,1.902576636000424,,experiment,emotion,0.0,,,,885.7791623000003,76,24,male,True
225,98.0,25,M,down,0.6418404000000919,1.5601273853255215,,experiment,emotion,0.0,,,,888.4290602000001,76,24,male,True
226,98.0,25,M,down,0.571541299999808,0.5677024288179556,,experiment,emotion,0.0,,,,889.9123169,76,24,male,True
227,101.0,25,F,down,0.5063594000002922,1.5982542106676625,,experiment,emotion,0.0,,,,892.3455119,76,24,male,True
228,108.0,25,F,down,0.520371200000227,0.7603514097203078,,experiment,emotion,0.0,,,,893.895501,76,24,male,True
229,105.0,25,M,down,0.5704657000001134,0.9816097707415344,,experiment,emotion,0.0,,,,895.6954403,76,24,male,True
230,98.0,25,F,down,0.6251821999999265,1.404011913785354,,experiment,emotion,0.0,,,,897.9286928000001,76,24,male,True
231,108.0,25,M,down,0.4363240999996378,1.5169946854021572,,experiment,emotion,0.0,,,,900.3285964000002,76,24,male,True
232,105.0,25,M,down,1.29636870000013,1.846302934152629,,experiment,emotion,0.0,,,,902.8785067,76,24,male,True
233,105.0,25,M,down,0.6514483999999356,0.7885238639907349,,experiment,emotion,0.0,,,,905.2284229000002,76,24,male,True
234,98.0,25,M,down,0.8502760000001217,1.6086199122329323,,experiment,emotion,0.0,,,,907.7615988000002,76,24,male,True
235,101.0,25,M,down,0.7376532000002953,0.6283500472719918,,experiment,emotion,0.0,,,,909.5282599000002,76,24,male,True
236,108.0,25,F,up,0.8087049999999181,1.6757837296017803,,experiment,emotion,0.0,,,,912.2281753000002,76,24,male,True
237,101.0,25,F,up,0.7920914999999695,0.3799908206737473,,experiment,emotion,0.0,,,,913.6947786,76,24,male,True
238,101.0,25,F,up,0.6408102000000326,0.3121843603464292,,experiment,emotion,0.0,,,,915.0780610000002,76,24,male,True
239,101.0,25,M,down,0.9328789999999572,0.8365800692882355,,experiment,emotion,0.0,,,,916.8279892,76,24,male,True
240,108.0,25,F,up,0.7312566999999035,1.112160546943496,,experiment,emotion,0.0,,,,919.1445704000002,76,24,male,True
241,105.0,25,F,down,0.924430200000188,1.5862230118432692,,experiment,emotion,0.0,,,,921.7444437,76,24,male,True
242,98.0,25,F,up,0.9139093999997384,0.5051745062698734,,experiment,emotion,0.0,,,,923.4609569,76,24,male,True
243,98.0,25,M,up,1.478546699999697,0.4015926242439823,,experiment,emotion,0.0,,,,925.0443367000004,76,24,male,True
244,105.0,25,F,up,0.732231800000136,0.8380615979468999,,experiment,emotion,0.0,,,,927.6276351,76,24,male,True
245,108.0,25,M,up,0.9641157000000932,0.9278261452552652,,experiment,emotion,0.0,,,,929.5607662000002,76,24,male,True
246,108.0,25,M,up,1.0301847999999154,0.6691663629450941,,experiment,emotion,0.0,,,,931.4606934000004,76,24,male,True
247,98.0,25,F,down,0.6138851999999133,1.7794882711299829,,experiment,emotion,0.0,,,,934.5439837,76,24,male,True
248,108.0,25,M,down,0.971587399999862,1.7466866401091383,,experiment,emotion,0.0,,,,937.1772633,76,24,male,True
249,101.0,25,F,down,1.3997309000001223,1.84496782379588,,experiment,emotion,0.0,,,,940.2771342,76,24,male,True
250,105.0,25,M,up,1.378662600000098,1.980232522823904,,experiment,emotion,0.0,,,,943.9601905,76,24,male,True
251,101.0,25,F,up,0.6596718000000692,1.2061281906758017,,experiment,emotion,0.0,,,,946.8101961000002,76,24,male,True
252,98.0,25,M,up,1.1913773999999648,1.4394189884794035,,experiment,emotion,0.0,,,,949.1934689,76,24,male,True
253,105.0,25,F,up,0.9212311000001135,1.15799682497246,,experiment,emotion,0.0,,,,951.8266766000002,76,24,male,True
254,101.0,25,F,up,0.5492346999999427,1.801583323995711,,experiment,emotion,0.0,,,,954.8265907,76,24,male,True
255,105.0,25,F,down,0.67904499999986,1.751432932647569,,experiment,emotion,0.0,,,,957.4098089,76,24,male,True
256,98.0,25,F,down,0.6491780000001199,1.649914242988811,,experiment,emotion,0.0,,,,960.0097401000004,76,24,male,True
257,108.0,25,F,down,0.4815564999998969,1.5736029142423815,,experiment,emotion,0.0,,,,962.5262979,76,24,male,True
258,105.0,25,M,down,0.569612700000107,0.6862712930045503,,experiment,emotion,0.0,,,,963.9762567000002,76,24,male,True
259,108.0,25,M,down,0.5720520999998371,1.783759400134995,,experiment,emotion,0.0,,,,966.5928165,76,24,male,True
260,98.0,25,M,down,0.4644301999996969,0.4874116064319463,,experiment,emotion,0.0,,,,967.9094416000004,76,24,male,True
261,101.0,25,M,down,0.6388005000003432,0.3378841393800293,,experiment,emotion,0.0,,,,968.9760739000004,76,24,male,True
262,0.3899838540306811,25,up,up,0.6503187999996953,1.5227935417358405,,experiment,cRDM,0.0,,,,990.3585464000004,76,24,male,True
263,0.3899838540306811,25,up,up,0.8556625999999596,0.9511866781690383,,experiment,cRDM,0.0,,,,992.2252056000002,76,24,male,True
264,0.3899838540306811,25,down,down,0.8081179000000702,1.6890758162234023,,experiment,cRDM,0.0,,,,995.0417833,76,24,male,True
265,0.3899838540306811,25,down,down,0.8838469000002078,1.616460502885856,,experiment,cRDM,0.0,,,,997.7250215,76,24,male,True
266,0.3899838540306811,25,up,up,0.6225972000002002,0.3469721695275205,,experiment,cRDM,0.0,,,,999.2082937,76,24,male,True
267,0.3899838540306811,25,down,down,0.7697650999998586,1.5722568235673071,,experiment,cRDM,0.0,,,,1001.6581221,76,24,male,True
268,0.3899838540306811,25,up,up,0.6277334000001247,1.0269676043655729,,experiment,cRDM,0.0,,,,1003.7081337,76,24,male,True
269,0.3899838540306811,25,up,up,0.7494595999996818,0.3341094033298192,,experiment,cRDM,0.0,,,,1004.9414033000004,76,24,male,True
270,0.3899838540306811,25,down,down,0.5472526000003199,0.3767826735193336,,experiment,cRDM,0.0,,,,1006.3246846000002,76,24,male,True
271,0.3899838540306811,25,down,down,0.8800016999998661,1.333010591555618,,experiment,cRDM,0.0,,,,1008.4578535,76,24,male,True
272,0.3899838540306811,25,down,down,1.061308299999837,1.525401695046729,,experiment,cRDM,0.0,,,,1011.1245492000004,76,24,male,True
273,0.3899838540306811,25,down,down,0.5808219000000463,1.5492077419608503,,experiment,cRDM,0.0,,,,1013.9910821000004,76,24,male,True
274,0.3899838540306811,25,down,down,0.6546707000002243,1.640369979921911,,experiment,cRDM,0.0,,,,1016.4742603,76,24,male,True
275,0.3899838540306811,25,down,down,1.0585441999996874,0.6329589645643781,,experiment,cRDM,0.0,,,,1018.0242737000004,76,24,male,True
276,0.3899838540306811,25,up,up,0.6396560999996836,0.8198567334080544,,experiment,cRDM,0.0,,,,1020.1742168,76,24,male,True
277,0.3899838540306811,25,up,up,1.0366794000001391,0.6000966178312033,,experiment,cRDM,0.0,,,,1021.6741838000004,76,24,male,True
278,0.3899838540306811,25,up,up,1.5008680999999342,1.459694282754476,,experiment,cRDM,0.0,,,,1024.4240363,76,24,male,True
279,0.3899838540306811,25,up,down,0.64682860000039,1.7722029259150092,,experiment,cRDM,0.0,,,,1027.9570344000003,76,24,male,True
280,0.3899838540306811,25,down,down,0.4807507999998961,1.5751234010678905,,experiment,cRDM,0.0,,,,1030.4571177000005,76,24,male,True
281,0.3899838540306811,25,up,down,0.4380928000000494,0.920166131891657,,experiment,cRDM,0.0,,,,1032.1237271,76,24,male,True
282,0.3899838540306811,25,up,up,0.614561799999592,0.92530760423028,,experiment,cRDM,0.0,,,,1033.7403485,76,24,male,True
283,0.3899838540306811,25,down,down,0.6339523999999983,1.894278433986532,,experiment,cRDM,0.0,,,,1036.5069136000002,76,24,male,True
284,0.3899838540306811,25,up,up,0.6690106999999443,1.0958725534604068,,experiment,cRDM,0.0,,,,1038.5068515000005,76,24,male,True
285,0.3899838540306811,25,down,down,0.5997806999998829,1.861854975806738,,experiment,cRDM,0.0,,,,1041.2901063,76,24,male,True
286,0.3899838540306811,25,down,down,0.919227299999875,1.9539715524582937,,experiment,cRDM,0.0,,,,1044.1066427,76,24,male,True
287,0.3899838540306811,25,up,up,1.2643345999999838,1.764349006997862,,experiment,cRDM,0.0,,,,1047.0565105,76,24,male,True
288,0.3899838540306811,25,up,up,1.3777955000000477,0.3371900110132336,,experiment,cRDM,0.0,,,,1048.9231231000003,76,24,male,True
289,0.3899838540306811,25,down,down,0.6171623999998701,1.239162421656467,,experiment,cRDM,0.0,,,,1051.7896766,76,24,male,True
290,0.3899838540306811,25,up,down,0.784257499999967,0.9235989864613936,,experiment,cRDM,0.0,,,,1053.5896120000002,76,24,male,True
291,0.3899838540306811,25,down,down,0.5846648000001551,0.5749206206720647,,experiment,cRDM,0.0,,,,1055.2062323,76,24,male,True
292,0.3899838540306811,25,down,down,0.7857005000000754,0.65977684958406,,experiment,cRDM,0.0,,,,1056.7061708,76,24,male,True
293,0.3899838540306811,25,down,up,1.1350773999997728,1.4092070776524537,,experiment,cRDM,0.0,,,,1059.1727889,76,24,male,True
294,0.3899838540306811,25,up,up,1.2668574999997873,0.342753914439678,,experiment,cRDM,0.0,,,,1060.9060227,76,24,male,True
295,0.3899838540306811,25,up,down,1.054584099999829,1.452074050244204,,experiment,cRDM,0.0,,,,1063.8892848,76,24,male,True
296,0.3899838540306811,25,up,up,1.3820448000001306,0.4509709632755292,,experiment,cRDM,0.0,,,,1065.6558250000005,76,24,male,True
297,0.3899838540306811,25,down,down,0.7622094000003017,1.7162397724969902,,experiment,cRDM,0.0,,,,1069.0057197,76,24,male,True
298,0.3899838540306811,25,down,down,0.9991946999998618,0.672072236057988,,experiment,cRDM,0.0,,,,1070.7056516000002,76,24,male,True
299,0.3899838540306811,25,up,up,1.0366030000000137,1.1470838538031465,,experiment,cRDM,0.0,,,,1073.1222472,76,24,male,True
300,0.3899838540306811,25,down,down,0.6193001000001459,1.9114938510042447,,experiment,cRDM,0.0,,,,1076.3385923,76,24,male,True
301,0.3899838540306811,25,up,up,1.0178155999997216,0.6977421207393648,,experiment,cRDM,0.0,,,,1077.9220454,76,24,male,True
302,0.3899838540306811,25,up,down,0.6939157000001615,1.8129557812323005,,experiment,cRDM,0.0,,,,1081.0219489,76,24,male,True
303,0.3899838540306811,25,up,down,0.6296139999999468,0.4191702799886018,,experiment,cRDM,0.0,,,,1082.4052331000005,76,24,male,True
304,0.3899838540306811,25,down,down,0.6333790999997291,0.938256723922954,,experiment,cRDM,0.0,,,,1084.2384876,76,24,male,True
305,0.3899838540306811,25,down,down,0.7173895999999331,0.5700963789885979,,experiment,cRDM,0.0,,,,1085.6884781000003,76,24,male,True
306,0.3899838540306811,25,up,up,0.8258111000000099,1.126990121525034,,experiment,cRDM,0.0,,,,1087.8050409000002,76,24,male,True
307,0.3899838540306811,25,down,down,0.9116076999998768,1.7027783399311904,,experiment,cRDM,0.0,,,,1090.5882581,76,24,male,True
308,0.3899838540306811,25,down,down,0.770679900000232,0.3263988027183304,,experiment,cRDM,0.0,,,,1092.0882212,76,24,male,True
309,0.3899838540306811,25,up,up,1.2187269000000924,1.9675496981829792,,experiment,cRDM,0.0,,,,1095.088111,76,24,male,True
310,0.3899838540306811,25,up,down,0.6632546999999249,1.3405815202068123,,experiment,cRDM,0.0,,,,1097.9046391000002,76,24,male,True
311,0.3899838540306811,25,down,down,0.7165657999998984,0.9936495626382538,,experiment,cRDM,0.0,,,,1099.8213019,76,24,male,True
312,0.3899838540306811,25,up,up,0.9820598000001156,0.9192696217687876,,experiment,cRDM,0.0,,,,1101.7378307,76,24,male,True
313,0.3899838540306811,25,down,up,1.1633922000000894,0.9237652269795124,,experiment,cRDM,0.0,,,,1103.9044204000002,76,24,male,True
314,0.3899838540306811,25,down,down,0.6226951999997254,0.4288614365395606,,experiment,cRDM,0.0,,,,1105.7542063,76,24,male,True
315,0.3899838540306811,25,down,down,0.644204499999887,0.4356769906124431,,experiment,cRDM,0.0,,,,1107.087634,76,24,male,True
316,0.3899838540306811,25,up,up,0.840250499999911,0.3244173952376213,,experiment,cRDM,0.0,,,,1108.3376004000002,76,24,male,True
317,0.3899838540306811,25,up,up,1.0882716999999502,0.6444572704001508,,experiment,cRDM,0.0,,,,1110.0875656000003,76,24,male,True
318,0.3899838540306811,25,down,down,0.7157603000000563,0.4575964239515885,,experiment,cRDM,0.0,,,,1111.9041386,76,24,male,True
319,0.3899838540306811,25,down,down,1.0078129999997143,1.986449137164343,,experiment,cRDM,0.0,,,,1114.8540279,76,24,male,True
320,0.3899838540306811,25,up,down,1.050818800000343,1.707240904597629,,experiment,cRDM,0.0,,,,1117.837062,76,24,male,True
321,0.3899838540306811,25,up,down,0.9010143000000426,1.4056560234063091,,experiment,cRDM,0.0,,,,1120.5538457000002,76,24,male,True
322,0.3899838540306811,25,up,down,0.9534558000000288,1.853929921535842,,experiment,cRDM,0.0,,,,1123.5704047,76,24,male,True
323,0.3899838540306811,25,up,down,0.5305613999998968,1.6895436740282737,,experiment,cRDM,0.0,,,,1126.4702996,76,24,male,True
324,0.3899838540306811,25,up,down,0.7559920000003331,1.2289148028128614,,experiment,cRDM,0.0,,,,1128.4868586000002,76,24,male,True
325,0.3899838540306811,25,down,down,0.743717899999865,0.4150318638442383,,experiment,cRDM,0.0,,,,1129.9201400000002,76,24,male,True
326,0.3899838540306811,25,down,down,0.8625861000000441,0.3253640264418362,,experiment,cRDM,0.0,,,,1131.253275,76,24,male,True
327,0.3899838540306811,25,up,up,1.1041999999997645,1.7579743582919476,,experiment,cRDM,0.0,,,,1134.1366694000003,76,24,male,True
328,0.3899838540306811,25,down,down,0.5873449999999139,0.7331007820995821,,experiment,cRDM,0.0,,,,1136.2365549,76,24,male,True
329,0.3899838540306811,25,down,down,0.7650185000002239,0.9701056006551172,,experiment,cRDM,0.0,,,,1138.0698580000003,76,24,male,True
330,0.3899838540306811,25,down,down,0.8383002000000488,0.972336677347342,,experiment,cRDM,0.0,,,,1140.0695526,76,24,male,True
331,0.3899838540306811,25,up,up,1.2281879000001936,1.69979024320274,,experiment,cRDM,0.0,,,,1142.8696578,76,24,male,True
332,0.3899838540306811,25,down,down,0.6192851000000701,0.9011904125029808,,experiment,cRDM,0.0,,,,1145.2695741000002,76,24,male,True
333,0.3899838540306811,25,down,down,0.6640325000003031,0.7024030428794827,,experiment,cRDM,0.0,,,,1146.8528659000003,76,24,male,True
334,0.3899838540306811,25,down,up,1.4227786000001288,1.2110766860015865,,experiment,cRDM,0.0,,,,1148.9860919000002,76,24,male,True
335,0.3899838540306811,25,up,up,1.8788503000000676,1.602073165604996,,experiment,cRDM,0.0,,,,1152.2859734000003,76,24,male,True
336,0.3899838540306811,25,up,up,1.2214303999999174,0.8392073649948626,,experiment,cRDM,0.0,,,,1155.2524571,76,24,male,True
337,0.3899838540306811,25,down,down,0.7157572999999502,1.746009520557749,,experiment,cRDM,0.0,,,,1158.4691001,76,24,male,True
338,0.3899838540306811,25,up,up,1.6819422000003217,0.4760536392156266,,experiment,cRDM,0.0,,,,1159.9190093000002,76,24,male,True
339,0.3899838540306811,25,down,down,1.5467125000000124,0.5765074576324883,,experiment,cRDM,0.0,,,,1162.4521830000003,76,24,male,True
340,0.3899838540306811,25,up,up,0.9757125000000996,0.9374748551031638,,experiment,cRDM,0.0,,,,1165.2021493000002,76,24,male,True
341,0.3899838540306811,25,up,down,0.6624154999999519,0.3516199223416555,,experiment,cRDM,0.0,,,,1166.7854486,76,24,male,True
342,108.0,25,M,up,1.3415405000000646,1.816772982396116,,experiment,emotion,1.0,,,,1180.0182878,76,24,male,True
343,98.0,25,M,up,1.1673805000000357,0.8037793301223599,,experiment,emotion,1.0,,,,1182.451516,76,24,male,True
344,105.0,25,F,up,1.0211147999998502,1.87713016453476,,experiment,emotion,1.0,,,,1185.7847502,76,24,male,True
345,108.0,25,F,up,0.9825778999997964,1.6118846100387352,,experiment,emotion,1.0,,,,1188.7012819,76,24,male,True
346,105.0,25,M,up,0.9158360999999786,1.6005335139507506,,experiment,emotion,1.0,,,,1191.5510235000002,76,24,male,True
347,101.0,25,F,up,0.7050828999999794,1.5544773317356173,,experiment,emotion,1.0,,,,1194.3177752,76,24,male,True
348,98.0,25,M,down,1.286541599999964,1.1246220396322737,,experiment,emotion,1.0,,,,1196.4343462000002,76,24,male,True
349,101.0,25,M,up,1.1026443999999174,1.5903263039271898,,experiment,emotion,1.0,,,,1199.5842311,76,24,male,True
350,108.0,25,F,up,0.9064135000003262,1.7333796340708023,,experiment,emotion,1.0,,,,1202.7174469,76,24,male,True
351,101.0,25,F,up,0.5624565000002804,0.6343437421504055,,experiment,emotion,1.0,,,,1204.5173878,76,24,male,True
352,105.0,25,F,down,0.653570800000125,1.752904182629475,,experiment,emotion,1.0,,,,1207.1172833,76,24,male,True
353,108.0,25,F,up,1.0506310000000667,0.6258250567015247,,experiment,emotion,1.0,,,,1208.6672278,76,24,male,True
354,105.0,25,F,up,0.7213569000000462,0.3135326700379272,,experiment,emotion,1.0,,,,1210.3005086000005,76,24,male,True
355,98.0,25,F,up,0.6315061999998761,0.8395217999068318,,experiment,emotion,1.0,,,,1212.1503515,76,24,male,True
356,101.0,25,M,up,1.6531638000001294,1.5377139379436402,,experiment,emotion,1.0,,,,1214.5836737,76,24,male,True
357,98.0,25,M,down,1.0586296999999831,0.4735402683858136,,experiment,emotion,1.0,,,,1217.0002405,76,24,male,True
358,108.0,25,M,up,0.7656905999997434,0.8773780432861304,,experiment,emotion,1.0,,,,1219.2001720000003,76,24,male,True
359,98.0,25,M,down,0.7064374999999927,0.4946423997879153,,experiment,emotion,1.0,,,,1220.7334298,76,24,male,True
360,105.0,25,F,up,0.7798757999998998,1.1921558329473227,,experiment,emotion,1.0,,,,1222.9000273,76,24,male,True
361,105.0,25,M,down,1.3542544000001726,0.7585792395775421,,experiment,emotion,1.0,,,,1224.7166357,76,24,male,True
362,101.0,25,M,down,1.222981300000356,0.9553318200135504,,experiment,emotion,1.0,,,,1227.2998804,76,24,male,True
363,101.0,25,F,up,1.868147600000157,0.5692447126561725,,experiment,emotion,1.0,,,,1229.3497087,76,24,male,True
364,98.0,25,M,up,0.5929176999998163,1.0360476907868947,,experiment,emotion,1.0,,,,1232.5329983,76,24,male,True
365,108.0,25,F,up,1.073406800000157,1.1430282702569756,,experiment,emotion,1.0,,,,1234.5494617,76,24,male,True
366,105.0,25,F,up,1.620212199999969,1.327403817091182,,experiment,emotion,1.0,,,,1237.2328264000002,76,24,male,True
367,98.0,25,M,down,0.7491297999999915,0.751127071230872,,experiment,emotion,1.0,,,,1239.8827371000002,76,24,male,True
368,108.0,25,M,down,1.5091956999999638,1.477911991760921,,experiment,emotion,1.0,,,,1242.3826575000005,76,24,male,True
369,108.0,25,F,down,1.327348499999971,1.3631820791396334,,experiment,emotion,1.0,,,,1245.5325163000002,76,24,male,True
370,101.0,25,M,down,0.8584251999996013,0.7813540845676028,,experiment,emotion,1.0,,,,1247.9324304000002,76,24,male,True
371,98.0,25,F,down,1.0328989999998155,1.8818704331211689,,experiment,emotion,1.0,,,,1250.9489563000002,76,24,male,True
372,101.0,25,F,up,0.8803177999998297,1.160224053464754,,experiment,emotion,1.0,,,,1253.4155768,76,24,male,True
373,105.0,25,F,up,1.1691122000001997,1.1667152798391784,,experiment,emotion,1.0,,,,1255.7487216,76,24,male,True
374,98.0,25,M,down,0.7737979000003179,1.9461913411434368,,experiment,emotion,1.0,,,,1259.1320410000003,76,24,male,True
375,108.0,25,M,up,1.1429151000002091,1.185141405884827,,experiment,emotion,1.0,,,,1261.3819434000002,76,24,male,True
376,105.0,25,M,up,1.4946657000000414,1.1350717711346725,,experiment,emotion,1.0,,,,1263.9151898,76,24,male,True
377,108.0,25,F,up,0.6804161999998541,0.5180189893687405,,experiment,emotion,1.0,,,,1266.1984353000005,76,24,male,True
378,98.0,25,F,down,1.103606099999979,1.0910167029002948,,experiment,emotion,1.0,,,,1268.2482331,76,24,male,True
379,105.0,25,M,down,1.2402265999999145,0.3607373668814108,,experiment,emotion,1.0,,,,1269.981632,76,24,male,True
380,101.0,25,F,down,0.863822099999652,1.455163685964855,,experiment,emotion,1.0,,,,1272.9480796000005,76,24,male,True
381,101.0,25,M,down,0.7074624000001677,1.7413277165418155,,experiment,emotion,1.0,,,,1275.8313994,76,24,male,True
382,105.0,25,M,down,0.8045219999999063,1.0777575136587136,,experiment,emotion,1.0,,,,1277.8813322,76,24,male,True
383,108.0,25,M,down,0.5632668999996895,1.2437597514260137,,experiment,emotion,1.0,,,,1280.2145888,76,24,male,True
384,101.0,25,F,up,0.6823673999997482,1.7718614484352404,,experiment,emotion,1.0,,,,1282.8144924000003,76,24,male,True
385,98.0,25,F,down,0.8678436999998667,1.7529175315363272,,experiment,emotion,1.0,,,,1285.5310349,76,24,male,True
386,98.0,25,M,down,0.642551899999944,1.6845665181317713,,experiment,emotion,1.0,,,,1288.3643019,76,24,male,True
387,101.0,25,F,down,0.567001700000219,1.1555082792606894,,experiment,emotion,1.0,,,,1290.4308565,76,24,male,True
388,108.0,25,F,down,0.782782700000098,1.4010125213736175,,experiment,emotion,1.0,,,,1292.6641175,76,24,male,True
389,105.0,25,M,up,0.6871372999999039,1.94754128972972,,experiment,emotion,1.0,,,,1295.6807229,76,24,male,True
390,98.0,25,M,up,0.945932300000095,1.329145797789748,,experiment,emotion,1.0,,,,1297.9639212000002,76,24,male,True
391,108.0,25,F,up,0.9780345999997736,1.792496497445871,,experiment,emotion,1.0,,,,1300.9638258,76,24,male,True
392,105.0,25,M,up,0.876768500000253,1.1888975952125491,,experiment,emotion,1.0,,,,1303.3970819,76,24,male,True
393,105.0,25,F,up,0.4362123000000792,1.0584339034725798,,experiment,emotion,1.0,,,,1305.6136426000005,76,24,male,True
394,98.0,25,F,up,0.5836096999996698,0.9612397632972832,,experiment,emotion,1.0,,,,1307.2802432000003,76,24,male,True
395,101.0,25,F,up,1.0937073000000055,1.7853782462757255,,experiment,emotion,1.0,,,,1309.9301466000002,76,24,male,True
396,108.0,25,M,down,0.6734536999997545,1.3554143947017463,,experiment,emotion,1.0,,,,1312.6633957,76,24,male,True
397,101.0,25,M,up,0.8405446000001575,0.752055317653871,,experiment,emotion,1.0,,,,1314.3633356,76,24,male,True
398,101.0,25,F,down,0.7009364999998979,1.3150052855834584,,experiment,emotion,1.0,,,,1316.7799248,76,24,male,True
399,101.0,25,F,down,1.074870099999771,1.5657958158406455,,experiment,emotion,1.0,,,,1319.3131360000002,76,24,male,True
400,108.0,25,M,down,0.7477647999999135,1.1108848247524437,,experiment,emotion,1.0,,,,1321.7630622,76,24,male,True
401,105.0,25,M,up,0.807227199999943,0.6291156968023577,,experiment,emotion,1.0,,,,1323.4296541000003,76,24,male,True
402,98.0,25,M,down,0.7819007000002784,1.0356305956859326,,experiment,emotion,1.0,,,,1325.5629497,76,24,male,True
403,98.0,25,M,up,0.981357300000127,1.2662922149182876,,experiment,emotion,1.0,,,,1327.8794952000003,76,24,male,True
404,105.0,25,M,down,0.6284373000003143,0.6548345232573112,,experiment,emotion,1.0,,,,1329.7794299000002,76,24,male,True
405,108.0,25,F,down,1.1842004999998608,1.6860787115448006,,experiment,emotion,1.0,,,,1332.3626603000002,76,24,male,True
406,108.0,25,F,up,0.779565399999683,1.0735929482952955,,experiment,emotion,1.0,,,,1334.8792377,76,24,male,True
407,98.0,25,M,down,0.9947342999998908,1.0443355300795052,,experiment,emotion,1.0,,,,1336.9791545000005,76,24,male,True
408,108.0,25,F,up,0.7724553000002743,0.563566665397087,,experiment,emotion,1.0,,,,1338.812437,76,24,male,True
409,101.0,25,F,down,1.6518420999996124,1.0140285213014486,,experiment,emotion,1.0,,,,1340.8790079,76,24,male,True
410,105.0,25,F,up,1.064418200000091,1.8307323636457435,,experiment,emotion,1.0,,,,1344.6454662,76,24,male,True
411,101.0,25,M,up,0.6861514000001989,1.965632736832683,,experiment,emotion,1.0,,,,1347.9287312,76,24,male,True
412,98.0,25,F,down,1.335569399999713,1.4101016618441375,,experiment,emotion,1.0,,,,1350.2953361,76,24,male,True
413,105.0,25,F,down,0.8739540000001398,1.115540883319803,,experiment,emotion,1.0,,,,1353.0118997,76,24,male,True
414,101.0,25,F,up,1.2940244000001258,1.252011171524961,,experiment,emotion,1.0,,,,1355.4118245,76,24,male,True
415,105.0,25,M,up,1.2175305999999182,1.308865053985935,,experiment,emotion,1.0,,,,1358.2783669,76,24,male,True
416,98.0,25,M,down,0.8425885999999991,1.5190866489725996,,experiment,emotion,1.0,,,,1361.2782578,76,24,male,True
417,108.0,25,F,up,0.7757129999999961,1.0192293628238145,,experiment,emotion,1.0,,,,1363.4281668000003,76,24,male,True
418,105.0,25,M,down,1.3994218000002547,1.2335806616688076,,experiment,emotion,1.0,,,,1365.7114299,76,24,male,True
419,108.0,25,F,up,1.318337899999733,1.660239818077044,,experiment,emotion,1.0,,,,1369.0445182000003,76,24,male,True
420,98.0,25,M,down,0.8783159000004161,0.9623838658129048,,experiment,emotion,1.0,,,,1371.5945444,76,24,male,True
421,101.0,25,M,down,2.0117372999998224,1.1607758312871157,,experiment,emotion,1.0,,,,1373.9111221000005,76,24,male,True
422,0.3899838540306811,25,up,up,0.8470821000000797,1.633541893809236,,experiment,cRDM,1.0,,,,1401.0767945000002,76,24,male,True
423,0.3899838540306811,25,up,up,1.0911706000001686,1.8811247540664155,,experiment,cRDM,1.0,,,,1404.0766834,76,24,male,True
424,0.3899838540306811,25,down,down,0.6459687999999915,0.6536444981163583,,experiment,cRDM,1.0,,,,1406.1099365,76,24,male,True
425,0.3899838540306811,25,down,down,0.5956593000000794,1.0688966018761576,,experiment,cRDM,1.0,,,,1408.0931884,76,24,male,True
426,0.3899838540306811,25,up,down,0.6319988999998714,1.3095113615290592,,experiment,cRDM,1.0,,,,1410.2598280000002,76,24,male,True
427,0.3899838540306811,25,down,up,0.6389016000002812,1.904253419963614,,experiment,cRDM,1.0,,,,1413.0430014000003,76,24,male,True
428,0.3899838540306811,25,up,down,0.4429959999997663,1.283002188414709,,experiment,cRDM,1.0,,,,1415.2428417,76,24,male,True
429,0.3899838540306811,25,up,down,0.9382774999999128,1.958856677644991,,experiment,cRDM,1.0,,,,1417.9095255000002,76,24,male,True
430,0.3899838540306811,25,down,down,0.6904061000000183,0.6982748084048005,,experiment,cRDM,1.0,,,,1419.8094636,76,24,male,True
431,0.3899838540306811,25,down,down,1.3288422000000537,0.7635309454734227,,experiment,cRDM,1.0,,,,1421.5260389,76,24,male,True
432,0.3899838540306811,25,down,up,1.617897399999947,0.6556603069280602,,experiment,cRDM,1.0,,,,1423.7759551,76,24,male,True
433,0.3899838540306811,25,down,down,0.6459976000001006,0.467618750851397,,experiment,cRDM,1.0,,,,1426.1258795000003,76,24,male,True
434,0.3899838540306811,25,down,down,1.242103600000064,1.2947654320681727,,experiment,cRDM,1.0,,,,1428.3257925000005,76,24,male,True
435,0.3899838540306811,25,down,up,1.4841655999998693,0.3933437730676589,,experiment,cRDM,1.0,,,,1430.2257042,76,24,male,True
436,0.3899838540306811,25,up,up,0.8295784000001731,1.4328026130762923,,experiment,cRDM,1.0,,,,1433.3922899,76,24,male,True
437,0.3899838540306811,25,up,down,0.6120322999995551,0.3205839188434161,,experiment,cRDM,1.0,,,,1434.8088660000003,76,24,male,True
438,0.3899838540306811,25,up,up,1.3324844000003395,0.5316569866381354,,experiment,cRDM,1.0,,,,1436.2253682,76,24,male,True
439,0.3899838540306811,25,up,down,0.6591498999996475,1.9412758078264496,,experiment,cRDM,1.0,,,,1439.7587287,76,24,male,True
440,0.3899838540306811,25,down,up,1.0862333000000035,0.9423410058764814,,experiment,cRDM,1.0,,,,1441.6086501,76,24,male,True
441,0.3899838540306811,25,up,down,0.9523395999999592,1.8707838763324829,,experiment,cRDM,1.0,,,,1444.8085177000005,76,24,male,True
442,0.3899838540306811,25,up,up,1.0418118000002323,1.7987780298970284,,experiment,cRDM,1.0,,,,1447.8250622,76,24,male,True
443,0.3899838540306811,25,down,up,1.1588737000001856,0.8961041561198526,,experiment,cRDM,1.0,,,,1450.0249766000002,76,24,male,True
444,0.3899838540306811,25,up,down,1.6492921000003662,1.6487644753707815,,experiment,cRDM,1.0,,,,1453.0915619000002,76,24,male,True
445,0.3899838540306811,25,down,down,0.7030346000001373,0.7660258787292415,,experiment,cRDM,1.0,,,,1455.7747955,76,24,male,True
446,0.3899838540306811,25,down,down,0.7611453999998048,1.4324926642848566,,experiment,cRDM,1.0,,,,1458.1747002000002,76,24,male,True
447,0.3899838540306811,25,up,up,1.1124471000002814,0.609516825648551,,experiment,cRDM,1.0,,,,1459.8244065,76,24,male,True
448,0.3899838540306811,25,up,up,0.8849984999997105,1.9132662872071065,,experiment,cRDM,1.0,,,,1463.1078485000005,76,24,male,True
449,0.3899838540306811,25,down,down,0.5457566000000043,1.4886039816265533,,experiment,cRDM,1.0,,,,1465.7411104000005,76,24,male,True
450,0.3899838540306811,25,up,up,0.8516200999997636,0.4728947101598072,,experiment,cRDM,1.0,,,,1467.0242907000002,76,24,male,True
451,0.3899838540306811,25,down,down,0.6387036999999509,0.781199519188948,,experiment,cRDM,1.0,,,,1468.9241462,76,24,male,True
452,0.3899838540306811,25,down,down,0.6508819000000585,0.4665510673414206,,experiment,cRDM,1.0,,,,1470.29092,76,24,male,True
453,0.3899838540306811,25,down,down,0.5574102000000494,1.5408078024149812,,experiment,cRDM,1.0,,,,1472.7574919000003,76,24,male,True
454,0.3899838540306811,25,up,up,1.4797404000000824,0.7070872349605968,,experiment,cRDM,1.0,,,,1474.2741037,76,24,male,True
455,0.3899838540306811,25,up,up,0.9348182999997334,0.5671550499264466,,experiment,cRDM,1.0,,,,1476.5740109000003,76,24,male,True
456,0.3899838540306811,25,up,up,0.8326554999998734,1.9388848347018643,,experiment,cRDM,1.0,,,,1479.7072414,76,24,male,True
457,0.3899838540306811,25,down,down,0.5980491999998776,0.6764885156921387,,experiment,cRDM,1.0,,,,1481.473833,76,24,male,True
458,0.3899838540306811,25,down,down,1.5562408000000687,1.5870480008691932,,experiment,cRDM,1.0,,,,1483.9236061,76,24,male,True
459,0.3899838540306811,25,up,up,0.7884892000001855,1.6140220274462065,,experiment,cRDM,1.0,,,,1487.3403353000003,76,24,male,True
460,0.3899838540306811,25,down,down,0.9540274999999384,1.9080795219893416,,experiment,cRDM,1.0,,,,1490.3068248,76,24,male,True
461,0.3899838540306811,25,up,up,0.9731061000002228,0.9798620065845152,,experiment,cRDM,1.0,,,,1492.5067411,76,24,male,True
462,0.3899838540306811,25,up,up,1.0691577000002326,0.8666731728253119,,experiment,cRDM,1.0,,,,1494.6066800000003,76,24,male,True
463,0.3899838540306811,25,up,up,1.225008699999762,1.1080668519141046,,experiment,cRDM,1.0,,,,1497.0398555000002,76,24,male,True
464,0.3899838540306811,25,down,down,0.5063417999999729,1.3366693420694924,,experiment,cRDM,1.0,,,,1499.8564855,76,24,male,True
465,0.3899838540306811,25,down,down,0.4730660000000171,0.6072622354205885,,experiment,cRDM,1.0,,,,1501.2397887000002,76,24,male,True
466,0.3899838540306811,25,up,down,0.4208321999999498,1.495193397607769,,experiment,cRDM,1.0,,,,1503.4730148000003,76,24,male,True
467,0.3899838540306811,25,down,down,0.8681677999998101,0.8342302914143072,,experiment,cRDM,1.0,,,,1504.9896448,76,24,male,True
468,0.3899838540306811,25,down,down,0.9229807000001528,1.744218731526907,,experiment,cRDM,1.0,,,,1507.8728533000003,76,24,male,True
469,0.3899838540306811,25,up,down,0.7824301999999079,1.517166755622498,,experiment,cRDM,1.0,,,,1510.589419,76,24,male,True
470,0.3899838540306811,25,up,up,0.8298656000001756,1.978128432256517,,experiment,cRDM,1.0,,,,1513.6059736000002,76,24,male,True
471,0.3899838540306811,25,down,down,0.6849667000001318,1.6970529403773655,,experiment,cRDM,1.0,,,,1516.4058936,76,24,male,True
472,0.3899838540306811,25,up,up,0.6650134999999864,0.6884858120424089,,experiment,cRDM,1.0,,,,1518.0558435000005,76,24,male,True
473,0.3899838540306811,25,down,down,0.9988596000002872,0.9598611886601418,,experiment,cRDM,1.0,,,,1519.9389930000002,76,24,male,True
474,0.3899838540306811,25,down,up,0.7035344000000805,1.913105417733011,,experiment,cRDM,1.0,,,,1523.1222933,76,24,male,True
475,0.3899838540306811,25,down,down,0.6092686000001777,1.3095066230339574,,experiment,cRDM,1.0,,,,1525.4055792,76,24,male,True
476,0.3899838540306811,25,up,up,0.617696899999828,1.2020858433035946,,experiment,cRDM,1.0,,,,1527.4721506,76,24,male,True
477,0.3899838540306811,25,up,down,1.0494711999999708,1.553433692265659,,experiment,cRDM,1.0,,,,1529.9053804,76,24,male,True
478,0.3899838540306811,25,down,up,0.9991961999999148,1.5331019108105508,,experiment,cRDM,1.0,,,,1532.7386287,76,24,male,True
479,0.3899838540306811,25,down,down,1.0983468999997967,0.9016115896293956,,experiment,cRDM,1.0,,,,1534.8885472000002,76,24,male,True
480,0.3899838540306811,25,up,down,0.8047388999998475,1.1419712966216715,,experiment,cRDM,1.0,,,,1537.4050914,76,24,male,True
481,0.3899838540306811,25,up,down,0.936435099999926,1.0727315109022448,,experiment,cRDM,1.0,,,,1539.5384093000002,76,24,male,True
482,0.3899838540306811,25,up,up,0.6987766000002011,0.6984283240759345,,experiment,cRDM,1.0,,,,1541.4213899,76,24,male,True
483,0.3899838540306811,25,up,down,1.0058885000003102,0.3571827367717981,,experiment,cRDM,1.0,,,,1542.754939,76,24,male,True
484,0.3899838540306811,25,up,up,0.6983996999997544,1.835899222048242,,experiment,cRDM,1.0,,,,1545.871451,76,24,male,True
485,0.3899838540306811,25,down,down,0.7860289999998713,1.2257330249469844,,experiment,cRDM,1.0,,,,1548.0547669000002,76,24,male,True
486,0.3899838540306811,25,down,down,1.3630102000001898,1.7408039978438945,,experiment,cRDM,1.0,,,,1550.8378359000003,76,24,male,True
487,0.3899838540306811,25,up,up,0.9223366999999598,0.8488650703140155,,experiment,cRDM,1.0,,,,1553.3045064000005,76,24,male,True
488,0.3899838540306811,25,down,down,0.9997256000001472,1.6308761798763136,,experiment,cRDM,1.0,,,,1556.1211217,76,24,male,True
489,0.3899838540306811,25,down,down,0.6964632999997775,0.979369452661608,,experiment,cRDM,1.0,,,,1558.3543776,76,24,male,True
490,0.3899838540306811,25,down,down,1.1556829000001017,1.9976576392741328,,experiment,cRDM,1.0,,,,1561.3042214000002,76,24,male,True
491,0.3899838540306811,25,up,up,0.7451169000000846,1.144920076401688,,experiment,cRDM,1.0,,,,1563.8707759,76,24,male,True
492,0.3899838540306811,25,down,down,0.8154304999998203,0.3087456464275208,,experiment,cRDM,1.0,,,,1565.1874236000003,76,24,male,True
493,0.3899838540306811,25,down,down,0.6795028999999886,1.8718387956105664,,experiment,cRDM,1.0,,,,1568.137338,76,24,male,True
494,0.3899838540306811,25,down,down,0.5469057000000248,1.1678763606385756,,experiment,cRDM,1.0,,,,1570.2539373,76,24,male,True
495,0.3899838540306811,25,up,down,0.7600218999996287,1.571062232193388,,experiment,cRDM,1.0,,,,1572.6538241000003,76,24,male,True
496,0.3899838540306811,25,up,down,0.6357222999999976,1.2123582587352413,,experiment,cRDM,1.0,,,,1574.8870649,76,24,male,True
497,0.3899838540306811,25,down,down,0.8527076000000307,0.3720503930969741,,experiment,cRDM,1.0,,,,1576.1703444,76,24,male,True
498,0.3899838540306811,25,up,down,0.4512666999999055,1.0192868784780449,,experiment,cRDM,1.0,,,,1578.3036111,76,24,male,True
499,0.3899838540306811,25,down,down,0.3337655000000268,1.5418357251650032,,experiment,cRDM,1.0,,,,1580.5535349000002,76,24,male,True
500,0.3899838540306811,25,up,down,0.3671343999999408,1.678799616140784,,experiment,cRDM,1.0,,,,1582.9201029,76,24,male,True
501,0.3899838540306811,25,up,down,0.3004668000003221,1.2030225843886095,,experiment,cRDM,1.0,,,,1584.8033567000002,76,24,male,True
502,108.0,25,M,up,1.0488794999996571,1.2813554508515594,,experiment,emotion,2.0,,,,1595.0029735000005,76,24,male,True
503,98.0,25,M,up,1.3326971000001322,1.4997510308109148,,experiment,emotion,2.0,,,,1597.836115,76,24,male,True
504,105.0,25,F,up,0.9206410000001596,1.54932405597014,,experiment,emotion,2.0,,,,1601.0192053,76,24,male,True
505,108.0,25,F,up,0.8231568000001062,0.8909236970843957,,experiment,emotion,2.0,,,,1603.1026506000003,76,24,male,True
506,105.0,25,M,up,0.8806524000001446,1.8776736850439408,,experiment,emotion,2.0,,,,1606.0692285,76,24,male,True
507,101.0,25,F,up,0.6660658999999214,1.154143701316669,,experiment,emotion,2.0,,,,1608.3858130000003,76,24,male,True
508,98.0,25,M,up,0.8657535999996071,1.558776515578369,,experiment,emotion,2.0,,,,1610.8690741,76,24,male,True
509,101.0,25,M,down,0.810887399999956,1.5559129412959618,,experiment,emotion,2.0,,,,1613.5689620000005,76,24,male,True
510,108.0,25,F,down,0.668324599999778,1.7259703195060254,,experiment,emotion,2.0,,,,1616.3855159,76,24,male,True
511,101.0,25,F,up,0.9380827999998472,1.5472446905014612,,experiment,emotion,2.0,,,,1618.8687702000002,76,24,male,True
512,105.0,25,F,up,1.726824400000169,1.65918428715609,,experiment,emotion,2.0,,,,1621.7519907,76,24,male,True
513,108.0,25,F,up,0.6096299999999246,0.9733832381083204,,experiment,emotion,2.0,,,,1624.7184991,76,24,male,True
514,105.0,25,F,up,0.603297300000122,0.9695727136632272,,experiment,emotion,2.0,,,,1626.5685028000005,76,24,male,True
515,98.0,25,F,down,0.8425536999998258,1.679371809039758,,experiment,emotion,2.0,,,,1629.1182528,76,24,male,True
516,101.0,25,M,up,0.7817265000003317,0.6836134360596307,,experiment,emotion,2.0,,,,1630.9181314000002,76,24,male,True
517,98.0,25,M,up,0.6780195999999705,0.8676103849303551,,experiment,emotion,2.0,,,,1632.8348326,76,24,male,True
518,108.0,25,M,up,0.5992891999999301,0.426891796961087,,experiment,emotion,2.0,,,,1634.2015316000002,76,24,male,True
519,98.0,25,M,up,0.6000744000002669,1.8147766995886971,,experiment,emotion,2.0,,,,1636.8847674000003,76,24,male,True
520,105.0,25,F,up,0.7367960999999923,0.5970926251506157,,experiment,emotion,2.0,,,,1638.3680454,76,24,male,True
521,105.0,25,M,up,0.715557699999863,1.7729444886634125,,experiment,emotion,2.0,,,,1641.1513027,76,24,male,True
522,101.0,25,M,up,0.730993799999851,1.3681534245678144,,experiment,emotion,2.0,,,,1643.517851,76,24,male,True
523,101.0,25,F,up,0.6487234000001081,0.7887267460192072,,experiment,emotion,2.0,,,,1645.3011114,76,24,male,True
524,98.0,25,M,up,0.4721404000001712,0.9501757319253684,,experiment,emotion,2.0,,,,1647.1677007000003,76,24,male,True
525,108.0,25,F,up,0.6725474999998369,1.5134856697771455,,experiment,emotion,2.0,,,,1649.4343035000002,76,24,male,True
526,105.0,25,F,up,0.6922696000001451,1.4944454136217138,,experiment,emotion,2.0,,,,1651.867568,76,24,male,True
527,98.0,25,M,down,0.8030453999999736,1.0641955510694523,,experiment,emotion,2.0,,,,1653.9007981,76,24,male,True
528,108.0,25,M,down,1.426761899999747,1.050316653325867,,experiment,emotion,2.0,,,,1656.0340767000002,76,24,male,True
529,108.0,25,F,up,0.7335803999999371,0.4328397790294877,,experiment,emotion,2.0,,,,1658.1673109000003,76,24,male,True
530,101.0,25,M,down,1.3366120000000592,0.7514979660445316,,experiment,emotion,2.0,,,,1659.9172322,76,24,male,True
531,98.0,25,F,down,0.7270634000001337,1.358220924033085,,experiment,emotion,2.0,,,,1662.8837748,76,24,male,True
532,101.0,25,F,down,0.90410699999984,1.753100976125307,,experiment,emotion,2.0,,,,1665.6337312,76,24,male,True
533,105.0,25,F,down,0.866219000000001,1.5119145831855556,,experiment,emotion,2.0,,,,1668.3336226,76,24,male,True
534,98.0,25,M,down,0.7213240999999471,1.5017485753667754,,experiment,emotion,2.0,,,,1670.9835004,76,24,male,True
535,108.0,25,M,down,0.4393976999999722,0.4995482724057106,,experiment,emotion,2.0,,,,1672.4834450000003,76,24,male,True
536,105.0,25,M,down,0.5974277000000257,0.4386235953942939,,experiment,emotion,2.0,,,,1673.6334104000002,76,24,male,True
537,108.0,25,F,up,0.8091774999998051,1.5551896773406435,,experiment,emotion,2.0,,,,1676.0666436,76,24,male,True
538,98.0,25,F,up,1.3112989000001107,1.8212575098201684,,experiment,emotion,2.0,,,,1678.9665403,76,24,male,True
539,105.0,25,M,up,0.8690431999998509,0.3443769593641193,,experiment,emotion,2.0,,,,1680.8997932000002,76,24,male,True
540,101.0,25,F,down,1.0528079000000616,1.1955580549171587,,experiment,emotion,2.0,,,,1683.2330585,76,24,male,True
541,101.0,25,M,down,1.3192096000002491,0.4368357715813047,,experiment,emotion,2.0,,,,1684.9996324000003,76,24,male,True
542,105.0,25,M,down,0.8378767999997763,0.7877463515319751,,experiment,emotion,2.0,,,,1687.3829158000003,76,24,male,True
543,108.0,25,M,up,0.7173723000000791,0.7522830877550936,,experiment,emotion,2.0,,,,1689.2495041000002,76,24,male,True
544,101.0,25,F,up,1.1498019999999087,1.3304521533114662,,experiment,emotion,2.0,,,,1691.5660787000002,76,24,male,True
545,98.0,25,F,up,0.6879075000001649,0.807808668884207,,experiment,emotion,2.0,,,,1693.8159327000003,76,24,male,True
546,98.0,25,M,up,1.1899305000001732,1.336875573579257,,experiment,emotion,2.0,,,,1696.1159299,76,24,male,True
547,101.0,25,F,up,1.2261137999998937,1.5432483385121591,,experiment,emotion,2.0,,,,1699.1157384000005,76,24,male,True
548,108.0,25,F,up,0.6331431000003249,0.999512535725916,,experiment,emotion,2.0,,,,1701.6157091,76,24,male,True
549,105.0,25,M,up,0.7785444999999527,0.9541225495107424,,experiment,emotion,2.0,,,,1703.4822933,76,24,male,True
550,98.0,25,M,up,0.5258941999995841,0.4253306777272826,,experiment,emotion,2.0,,,,1704.9489262000002,76,24,male,True
551,108.0,25,F,up,0.608349200000248,1.4807971605233268,,experiment,emotion,2.0,,,,1707.2154819000002,76,24,male,True
552,105.0,25,M,up,0.7763863999998648,0.8737910132202507,,experiment,emotion,2.0,,,,1708.9654356,76,24,male,True
553,105.0,25,F,up,0.6488383000000795,0.5175163440687677,,experiment,emotion,2.0,,,,1710.5320503000005,76,24,male,True
554,98.0,25,F,up,0.8182627000001048,1.811323635282414,,experiment,emotion,2.0,,,,1713.2486085,76,24,male,True
555,101.0,25,F,down,1.3183235999999852,1.507982077028326,,experiment,emotion,2.0,,,,1715.848511,76,24,male,True
556,108.0,25,M,down,1.337747600000057,0.6825165660054929,,experiment,emotion,2.0,,,,1718.1150869000005,76,24,male,True
557,101.0,25,M,down,0.908503600000131,1.634082121244275,,experiment,emotion,2.0,,,,1721.3483152,76,24,male,True
558,101.0,25,F,down,1.447943799999848,1.2357166176309209,,experiment,emotion,2.0,,,,1723.7648931000003,76,24,male,True
559,101.0,25,F,down,0.7836890999997195,1.7629504524466155,,experiment,emotion,2.0,,,,1727.2480951000002,76,24,male,True
560,108.0,25,M,up,0.7338525999998637,1.5705566292934887,,experiment,emotion,2.0,,,,1729.8979772000002,76,24,male,True
561,105.0,25,M,down,1.014591399999972,1.9233440280434464,,experiment,emotion,2.0,,,,1732.8312255,76,24,male,True
562,98.0,25,M,down,0.6990540000001602,1.4123705344617998,,experiment,emotion,2.0,,,,1735.5477858,76,24,male,True
563,98.0,25,M,up,0.7384565000002112,0.3960044947012736,,experiment,emotion,2.0,,,,1736.9143771,76,24,male,True
564,105.0,25,M,up,0.6461455000003298,0.8851974676152194,,experiment,emotion,2.0,,,,1738.7976627000005,76,24,male,True
565,108.0,25,F,up,0.7078903999999966,1.5133445934999683,,experiment,emotion,2.0,,,,1741.2309455,76,24,male,True
566,108.0,25,F,down,0.9016625999997814,0.7468203862438643,,experiment,emotion,2.0,,,,1742.9641773000003,76,24,male,True
567,98.0,25,M,down,0.8400987999998506,1.5435391029944985,,experiment,emotion,2.0,,,,1745.6807411,76,24,male,True
568,108.0,25,F,down,0.6888447999999698,0.7345610036804859,,experiment,emotion,2.0,,,,1747.5140259,76,24,male,True
569,101.0,25,F,down,0.5900891000001138,1.8335240251390448,,experiment,emotion,2.0,,,,1750.3138064,76,24,male,True
570,105.0,25,F,up,0.9236178999999538,0.5591523512616684,,experiment,emotion,2.0,,,,1751.7472052000005,76,24,male,True
571,101.0,25,M,up,0.6507723999998234,1.65346319026417,,experiment,emotion,2.0,,,,1754.5970637,76,24,male,True
572,98.0,25,F,up,0.5091319000002841,0.3444144264146885,,experiment,emotion,2.0,,,,1755.8637175,76,24,male,True
573,105.0,25,F,up,0.6798960999999508,1.7641600259036891,,experiment,emotion,2.0,,,,1758.3969437,76,24,male,True
574,101.0,25,F,up,0.9283848999998554,1.8104101808432636,,experiment,emotion,2.0,,,,1761.1635031,76,24,male,True
575,105.0,25,M,up,0.880025299999943,0.7768103164496606,,experiment,emotion,2.0,,,,1763.1467611000005,76,24,male,True
576,98.0,25,M,up,0.7215973000002123,0.308304812460105,,experiment,emotion,2.0,,,,1764.6132238,76,24,male,True
577,108.0,25,F,up,0.6555146000000605,1.1359862190240702,,experiment,emotion,2.0,,,,1766.7632916000002,76,24,male,True
578,105.0,25,M,up,0.6959403999999267,0.7881161482600917,,experiment,emotion,2.0,,,,1768.479905,76,24,male,True
579,108.0,25,F,down,1.0063380000001416,1.9560661036196965,,experiment,emotion,2.0,,,,1771.3964930000002,76,24,male,True
580,98.0,25,M,down,1.1989035999999942,1.246688305083329,,experiment,emotion,2.0,,,,1773.9129335000002,76,24,male,True
581,101.0,25,M,down,0.6812426999999843,1.533753121707263,,experiment,emotion,2.0,,,,1776.9295940000002,76,24,male,True
582,0.3899838540306811,25,up,up,0.696108500000264,1.9821870709137923,,experiment,cRDM,2.0,,,,1791.5957277000002,76,24,male,True
583,0.3899838540306811,25,up,up,0.6605569000003015,1.2482391897855774,,experiment,cRDM,2.0,,,,1793.8122981,76,24,male,True
584,0.3899838540306811,25,down,down,0.5989514999996572,1.9367683135208305,,experiment,cRDM,2.0,,,,1796.6788802,76,24,male,True
585,0.3899838540306811,25,down,down,0.911005099999784,1.689757473353579,,experiment,cRDM,2.0,,,,1799.2288436,76,24,male,True
586,0.3899838540306811,25,up,up,0.6871277000000191,1.2913471597334094,,experiment,cRDM,2.0,,,,1801.6787029,76,24,male,True
587,0.3899838540306811,25,down,down,0.4685511000002407,1.1033941396267182,,experiment,cRDM,2.0,,,,1803.7452672,76,24,male,True
588,0.3899838540306811,25,up,up,0.7256583999997019,1.7723599302993456,,experiment,cRDM,2.0,,,,1806.2451742000003,76,24,male,True
589,0.3899838540306811,25,up,down,1.3563426000000618,0.4861600880044417,,experiment,cRDM,2.0,,,,1807.7285111,76,24,male,True
590,0.3899838540306811,25,down,down,0.5824570999998286,0.8314162735520108,,experiment,cRDM,2.0,,,,1810.1783674000003,76,24,male,True
591,0.3899838540306811,25,down,down,0.5793596000003163,1.290702917693365,,experiment,cRDM,2.0,,,,1812.3114542000003,76,24,male,True
592,0.3899838540306811,25,down,down,0.367307499999697,0.8599037977411454,,experiment,cRDM,2.0,,,,1814.0113889,76,24,male,True
593,0.3899838540306811,25,down,down,0.5125195000000531,0.4335815780034675,,experiment,cRDM,2.0,,,,1815.1113559,76,24,male,True
594,0.3899838540306811,25,down,down,0.3838863000000856,0.628342726407342,,experiment,cRDM,2.0,,,,1816.5113781,76,24,male,True
595,0.3899838540306811,25,down,down,0.7637257999999747,1.227000804327811,,experiment,cRDM,2.0,,,,1818.4280889,76,24,male,True
596,0.3899838540306811,25,up,down,1.221846800000094,0.5282504375612864,,experiment,cRDM,2.0,,,,1819.9779983000003,76,24,male,True
597,0.3899838540306811,25,up,up,1.2337100000004284,0.5573238222902707,,experiment,cRDM,2.0,,,,1822.0111213,76,24,male,True
598,0.3899838540306811,25,up,up,0.8553599000001668,1.647256437300447,,experiment,cRDM,2.0,,,,1825.1444785000003,76,24,male,True
599,0.3899838540306811,25,up,up,0.7138929999996435,1.1530501781547078,,experiment,cRDM,2.0,,,,1827.4109337,76,24,male,True
600,0.3899838540306811,25,down,,,0.4707483010387528,,experiment,cRDM,2.0,,,,1828.861007,76,24,male,True
601,0.3899838540306811,25,up,down,0.8326221000002079,0.9082259776774486,,experiment,cRDM,2.0,,,,1832.4442202,76,24,male,True
602,0.3899838540306811,25,up,up,0.7467139999998835,1.3127873132374628,,experiment,cRDM,2.0,,,,1834.8441269,76,24,male,True
603,0.3899838540306811,25,down,up,1.5908281000001807,0.7417953829512687,,experiment,cRDM,2.0,,,,1836.5940446,76,24,male,True
604,0.3899838540306811,25,up,down,0.5625332999998136,1.8950709394768672,,experiment,cRDM,2.0,,,,1840.3273019000003,76,24,male,True
605,0.3899838540306811,25,down,down,0.5709576999997807,1.2429464904631382,,experiment,cRDM,2.0,,,,1842.3938827,76,24,male,True
606,0.3899838540306811,25,down,down,0.5380423000001429,1.2022893557991603,,experiment,cRDM,2.0,,,,1844.4437701,76,24,male,True
607,0.3899838540306811,25,up,down,0.5741860999996788,1.694485164828284,,experiment,cRDM,2.0,,,,1846.9436745000005,76,24,male,True
608,0.3899838540306811,25,up,up,1.0378232000002754,0.6410580137532476,,experiment,cRDM,2.0,,,,1848.4269968000003,76,24,male,True
609,0.3899838540306811,25,down,up,1.310300900000129,1.15998815416777,,experiment,cRDM,2.0,,,,1850.8935300000005,76,24,male,True
610,0.3899838540306811,25,up,down,1.2427345000000969,0.9459678952717144,,experiment,cRDM,2.0,,,,1853.4100847,76,24,male,True
611,0.3899838540306811,25,down,down,0.7941679999998996,1.7417655894620838,,experiment,cRDM,2.0,,,,1856.6766557,76,24,male,True
612,0.3899838540306811,25,down,down,0.5690019000003304,1.7361023672924114,,experiment,cRDM,2.0,,,,1859.4598791000003,76,24,male,True
613,0.3899838540306811,25,down,down,0.5057514999998602,0.4961171845606947,,experiment,cRDM,2.0,,,,1860.7931694,76,24,male,True
614,0.3899838540306811,25,up,up,0.8790570000001026,0.7025874621644481,,experiment,cRDM,2.0,,,,1862.2597839,76,24,male,True
615,0.3899838540306811,25,up,up,0.8482140999999501,1.5166210594411669,,experiment,cRDM,2.0,,,,1864.9096788,76,24,male,True
616,0.3899838540306811,25,up,up,0.7531975000001694,0.642378777732663,,experiment,cRDM,2.0,,,,1866.6596345000005,76,24,male,True
617,0.3899838540306811,25,down,down,1.022296000000097,0.9794956867201294,,experiment,cRDM,2.0,,,,1868.6595401,76,24,male,True
618,0.3899838540306811,25,down,down,1.0340473000001111,1.9009773125107012,,experiment,cRDM,2.0,,,,1871.8427834,76,24,male,True
619,0.3899838540306811,25,up,up,0.7318202000001293,0.7433185612166551,,experiment,cRDM,2.0,,,,1873.8760129,76,24,male,True
620,0.3899838540306811,25,down,down,0.6452592999999069,1.9652529817550195,,experiment,cRDM,2.0,,,,1876.842575,76,24,male,True
621,0.3899838540306811,25,up,up,0.7536880000002384,1.900776653814876,,experiment,cRDM,2.0,,,,1879.6591424000003,76,24,male,True
622,0.3899838540306811,25,up,up,0.7524759999996604,1.2619019877117474,,experiment,cRDM,2.0,,,,1881.942383,76,24,male,True
623,0.3899838540306811,25,up,down,0.6379425999998602,1.5014797288488162,,experiment,cRDM,2.0,,,,1884.4589545,76,24,male,True
624,0.3899838540306811,25,down,down,1.0730029000001196,0.6026042476338764,,experiment,cRDM,2.0,,,,1885.9588934000003,76,24,male,True
625,0.3899838540306811,25,down,up,0.7190613000002486,1.8605094663154065,,experiment,cRDM,2.0,,,,1889.1587841,76,24,male,True
626,0.3899838540306811,25,up,down,0.4907980000002681,1.5967297743793814,,experiment,cRDM,2.0,,,,1891.7420321,76,24,male,True
627,0.3899838540306811,25,down,down,1.6165531999999985,1.5339428181880876,,experiment,cRDM,2.0,,,,1894.0253039,76,24,male,True
628,0.3899838540306811,25,down,down,0.8896821000003001,1.9714633249398676,,experiment,cRDM,2.0,,,,1897.8751282000003,76,24,male,True
629,0.3899838540306811,25,up,up,1.1027138999997987,0.3054306583136761,,experiment,cRDM,2.0,,,,1899.3251145,76,24,male,True
630,0.3899838540306811,25,up,down,0.722771499999908,0.3308109975119803,,experiment,cRDM,2.0,,,,1901.025046,76,24,male,True
631,0.3899838540306811,25,down,down,0.8052110000003267,0.4998002695803135,,experiment,cRDM,2.0,,,,1902.4916135000003,76,24,male,True
632,0.3899838540306811,25,up,up,0.6596282000000429,1.690318089550509,,experiment,cRDM,2.0,,,,1905.2581953000004,76,24,male,True
633,0.3899838540306811,25,down,down,0.6274121999995259,1.5042014997676,,experiment,cRDM,2.0,,,,1907.6914199,76,24,male,True
634,0.3899838540306811,25,down,down,0.9139914999996108,1.51227419943727,,experiment,cRDM,2.0,,,,1910.1077906000005,76,24,male,True
635,0.3899838540306811,25,down,down,0.6632629999994606,1.1793079057575566,,experiment,cRDM,2.0,,,,1912.4745921,76,24,male,True
636,0.3899838540306811,25,up,up,0.8493501000002652,1.3747118704588996,,experiment,cRDM,2.0,,,,1914.7745012,76,24,male,True
637,0.3899838540306811,25,up,down,0.9750622999999904,1.7620903096320772,,experiment,cRDM,2.0,,,,1917.6577678,76,24,male,True
638,0.3899838540306811,25,down,down,0.6011717999999746,0.4458150087458075,,experiment,cRDM,2.0,,,,1919.3576563,76,24,male,True
639,0.3899838540306811,25,down,down,0.5645235000001776,1.1080801081416531,,experiment,cRDM,2.0,,,,1921.3242949,76,24,male,True
640,0.3899838540306811,25,up,up,1.0566045999994458,0.4335643889310639,,experiment,cRDM,2.0,,,,1922.5742239000008,76,24,male,True
641,0.3899838540306811,25,up,down,0.8400384999995367,1.80963785746786,,experiment,cRDM,2.0,,,,1925.6907875,76,24,male,True
642,0.3899838540306811,25,up,down,1.0558430000000951,1.0887569810548474,,experiment,cRDM,2.0,,,,1927.8740286,76,24,male,True
643,0.3899838540306811,25,up,up,0.6435752999996112,0.6297308936122604,,experiment,cRDM,2.0,,,,1929.807252,76,24,male,True
644,0.3899838540306811,25,up,up,0.9736236999997344,1.707234125803775,,experiment,cRDM,2.0,,,,1932.4071873,76,24,male,True
645,0.3899838540306811,25,down,down,0.930383200000506,0.949270120361354,,experiment,cRDM,2.0,,,,1934.5904445,76,24,male,True
646,0.3899838540306811,25,down,up,1.487460999999712,1.6175439404740637,,experiment,cRDM,2.0,,,,1937.390361,76,24,male,True
647,0.3899838540306811,25,up,down,1.9538612000005744,0.3227587530688562,,experiment,cRDM,2.0,,,,1939.4569253000004,76,24,male,True
648,0.3899838540306811,25,down,down,0.6086586000001262,0.3564498887444586,,experiment,cRDM,2.0,,,,1942.0401672000005,76,24,male,True
649,0.3899838540306811,25,down,down,0.8980605999995532,0.8440162700027332,,experiment,cRDM,2.0,,,,1943.756761,76,24,male,True
650,0.3899838540306811,25,down,up,0.7474504000001616,0.9986340161764342,,experiment,cRDM,2.0,,,,1945.9233888000003,76,24,male,True
651,0.3899838540306811,25,up,up,1.3225797000004604,1.5476624237977563,,experiment,cRDM,2.0,,,,1948.4732604000003,76,24,male,True
652,0.3899838540306811,25,down,down,0.6709980000005089,1.5914131089179002,,experiment,cRDM,2.0,,,,1951.6398228000005,76,24,male,True
653,0.3899838540306811,25,down,down,1.1012195000002976,1.0206283221702015,,experiment,cRDM,2.0,,,,1953.589722,76,24,male,True
654,0.3899838540306811,25,down,up,1.0374861999998757,1.1112425544594735,,experiment,cRDM,2.0,,,,1956.0563122,76,24,male,True
655,0.3899838540306811,25,up,up,1.0877399000000878,0.4485479888996244,,experiment,cRDM,2.0,,,,1957.8060868,76,24,male,True
656,0.3899838540306811,25,up,up,1.0819752000006702,0.4257361359188402,,experiment,cRDM,2.0,,,,1959.572869,76,24,male,True
657,0.3899838540306811,25,down,down,0.4459003000001758,1.2837814389216935,,experiment,cRDM,2.0,,,,1962.2059763,76,24,male,True
658,0.3899838540306811,25,up,up,0.7030938999996579,0.9020432500938976,,experiment,cRDM,2.0,,,,1963.8227250000004,76,24,male,True
659,0.3899838540306811,25,down,up,0.4355716000000029,1.7140502153996993,,experiment,cRDM,2.0,,,,1966.4892502,76,24,male,True
660,0.3899838540306811,25,up,up,0.6186872999996922,1.5435379513403986,,experiment,cRDM,2.0,,,,1968.7391691,76,24,male,True
661,0.3899838540306811,25,up,up,0.6497379000002184,1.9086616546636463,,experiment,cRDM,2.0,,,,1971.5390849,76,24,male,True
662,108.0,25,M,up,0.9793706000000384,1.1868485719889763,,experiment,emotion,3.0,,,,1979.7554724,76,24,male,True
663,98.0,25,M,up,1.1210937000005288,0.3854558501555568,,experiment,emotion,3.0,,,,1981.3886925,76,24,male,True
664,105.0,25,F,up,0.6361760999998296,0.539358657283561,,experiment,emotion,3.0,,,,1983.3386504000005,76,24,male,True
665,108.0,25,F,up,0.9859021000002032,0.7740287082642715,,experiment,emotion,3.0,,,,1985.0219257000003,76,24,male,True
666,105.0,25,M,up,1.3176757999999609,1.2845990659000712,,experiment,emotion,3.0,,,,1987.5551481,76,24,male,True
667,101.0,25,F,up,1.175416000000041,0.9689077152358676,,experiment,emotion,3.0,,,,1990.1383907000004,76,24,male,True
668,98.0,25,M,down,0.9408700000003593,1.0785922949151503,,experiment,emotion,3.0,,,,1992.6549575000004,76,24,male,True
669,101.0,25,M,down,0.8732949999994162,1.4040111551069536,,experiment,emotion,3.0,,,,1995.2715334,76,24,male,True
670,108.0,25,F,down,1.0043682999994417,1.6046173305677478,,experiment,emotion,3.0,,,,1998.0214584,76,24,male,True
671,101.0,25,F,down,1.2255129999994097,0.8090591828211708,,experiment,emotion,3.0,,,,2000.1212943000005,76,24,male,True
672,105.0,25,F,down,0.7159066999993229,0.3234909778372344,,experiment,emotion,3.0,,,,2001.937964,76,24,male,True
673,108.0,25,F,down,0.71359080000002,0.3521543595758791,,experiment,emotion,3.0,,,,2003.2712376000004,76,24,male,True
674,105.0,25,F,down,0.869683900000382,0.9142531442893892,,experiment,emotion,3.0,,,,2005.1711681,76,24,male,True
675,98.0,25,F,down,1.487739899999724,0.5571298125139378,,experiment,emotion,3.0,,,,2006.8711099,76,24,male,True
676,101.0,25,M,up,1.0951756000004025,1.2625629448382134,,experiment,emotion,3.0,,,,2009.8876516000005,76,24,male,True
677,98.0,25,M,down,1.1548914000004515,0.5173612257784097,,experiment,emotion,3.0,,,,2011.7709291000008,76,24,male,True
678,108.0,25,M,up,0.8031232000003001,1.7175298635446643,,experiment,emotion,3.0,,,,2014.9207069,76,24,male,True
679,98.0,25,M,up,1.1381286000005275,1.82380396266376,,experiment,emotion,3.0,,,,2017.8206918,76,24,male,True
680,105.0,25,F,up,0.674025299999812,1.1670545800311498,,experiment,emotion,3.0,,,,2020.4038656,76,24,male,True
681,105.0,25,M,up,0.8396711999994295,1.9843658603904224,,experiment,emotion,3.0,,,,2023.3371665,76,24,male,True
682,101.0,25,M,up,0.7620809999998528,1.794874035394441,,experiment,emotion,3.0,,,,2026.2537162000003,76,24,male,True
683,101.0,25,F,up,0.5425352000002022,1.0788096071148594,,experiment,emotion,3.0,,,,2028.3703325,76,24,male,True
684,98.0,25,M,up,1.807954800000516,1.701464020308883,,experiment,emotion,3.0,,,,2030.8868678000003,76,24,male,True
685,108.0,25,F,up,0.8537237000000459,1.0966920998837748,,experiment,emotion,3.0,,,,2034.0700956000005,76,24,male,True
686,105.0,25,F,up,0.6634820999997828,1.2404606058388143,,experiment,emotion,3.0,,,,2036.4533412000003,76,24,male,True
687,98.0,25,M,up,0.5375812999991467,1.6665991909274978,,experiment,emotion,3.0,,,,2039.0532404,76,24,male,True
688,108.0,25,M,up,0.605456399999639,1.3166101468728686,,experiment,emotion,3.0,,,,2041.1864841,76,24,male,True
689,108.0,25,F,up,1.036420200000066,1.2125187570081395,,experiment,emotion,3.0,,,,2043.2864066,76,24,male,True
690,101.0,25,M,up,0.6106129999998302,1.892945992222748,,experiment,emotion,3.0,,,,2046.4862986000005,76,24,male,True
691,98.0,25,F,up,0.7075593999998091,0.9612527479589984,,experiment,emotion,3.0,,,,2048.3362425,76,24,male,True
692,101.0,25,F,up,0.9183245999993233,1.1112418926901884,,experiment,emotion,3.0,,,,2050.419503600001,76,24,male,True
693,105.0,25,F,up,0.6433850000003076,1.3407870392246808,,experiment,emotion,3.0,,,,2052.9693899,76,24,male,True
694,98.0,25,M,down,0.8478400000003603,1.8498613103931287,,experiment,emotion,3.0,,,,2055.7359657,76,24,male,True
695,108.0,25,M,down,1.122414800000115,1.6259783974577429,,experiment,emotion,3.0,,,,2058.5024282,76,24,male,True
696,105.0,25,M,down,0.7810095000004367,0.490001903792794,,experiment,emotion,3.0,,,,2060.3858161000003,76,24,male,True
697,108.0,25,F,up,0.6184832999997525,0.664705517371128,,experiment,emotion,3.0,,,,2062.1023688,76,24,male,True
698,98.0,25,F,down,0.7231197999999495,0.3426396238797803,,experiment,emotion,3.0,,,,2063.3356893000005,76,24,male,True
699,105.0,25,M,up,1.352276399999937,1.9937934227469165,,experiment,emotion,3.0,,,,2066.3355524000003,76,24,male,True
700,101.0,25,F,down,0.9340290999998616,1.3643630796110124,,experiment,emotion,3.0,,,,2069.3187929,76,24,male,True
701,101.0,25,M,down,0.66976269999941,1.0185850444125033,,experiment,emotion,3.0,,,,2071.5520461,76,24,male,True
702,105.0,25,M,down,0.9311613999998372,0.8265793644534551,,experiment,emotion,3.0,,,,2073.3186647,76,24,male,True
703,108.0,25,M,up,0.9295677999998588,1.0980627509745913,,experiment,emotion,3.0,,,,2075.6352379000004,76,24,male,True
704,101.0,25,F,up,1.244351800000004,0.886756900551797,,experiment,emotion,3.0,,,,2077.718496,76,24,male,True
705,98.0,25,F,down,0.974108499999602,1.1969943558079696,,experiment,emotion,3.0,,,,2080.4517209,76,24,male,True
706,98.0,25,M,down,0.680592799999431,1.9242600362233917,,experiment,emotion,3.0,,,,2083.618274,76,24,male,True
707,101.0,25,F,up,1.0769422000003033,1.954799813732868,,experiment,emotion,3.0,,,,2086.5348389000005,76,24,male,True
708,108.0,25,F,down,0.7898085999995601,1.7851918562270712,,experiment,emotion,3.0,,,,2089.668061,76,24,male,True
709,105.0,25,M,down,0.6385335999993913,1.407735655394421,,experiment,emotion,3.0,,,,2092.1512896,76,24,male,True
710,98.0,25,M,up,0.9163257999998676,1.2337979049340233,,experiment,emotion,3.0,,,,2094.2845444,76,24,male,True
711,108.0,25,F,up,0.7764102000001003,1.2148573322801317,,experiment,emotion,3.0,,,,2096.6844389000003,76,24,male,True
712,105.0,25,M,up,0.7223777999997765,0.4084303563883861,,experiment,emotion,3.0,,,,2098.134429,76,24,male,True
713,105.0,25,F,up,0.7021800000002258,1.8100680648564935,,experiment,emotion,3.0,,,,2100.9176457,76,24,male,True
714,98.0,25,F,up,0.8889424999997573,1.9200349462417163,,experiment,emotion,3.0,,,,2103.8009103,76,24,male,True
715,101.0,25,F,up,0.5867186999994374,0.5039948068312096,,experiment,emotion,3.0,,,,2105.4841287000004,76,24,male,True
716,108.0,25,M,up,0.7654189999993832,0.8815159316907006,,experiment,emotion,3.0,,,,2107.2174016000004,76,24,male,True
717,101.0,25,M,up,0.9541243000003304,0.3528459000552347,,experiment,emotion,3.0,,,,2108.6006965,76,24,male,True
718,101.0,25,F,up,0.8251598000006197,0.3665079657715611,,experiment,emotion,3.0,,,,2110.2006518000003,76,24,male,True
719,101.0,25,F,up,0.9583409000006212,1.7041488767658486,,experiment,emotion,3.0,,,,2113.0004826,76,24,male,True
720,108.0,25,M,up,0.6750373000004402,0.6408418207016373,,experiment,emotion,3.0,,,,2114.8837656,76,24,male,True
721,105.0,25,M,up,0.808365099999719,1.921736218757948,,experiment,emotion,3.0,,,,2117.7836604,76,24,male,True
722,98.0,25,M,up,0.831607900000563,1.1731285611709696,,experiment,emotion,3.0,,,,2120.0502676,76,24,male,True
723,98.0,25,M,down,1.0556645000006029,1.7813924145903783,,experiment,emotion,3.0,,,,2122.9501612,76,24,male,True
724,105.0,25,M,down,0.8707617999998547,1.2809837663515624,,experiment,emotion,3.0,,,,2125.5500331,76,24,male,True
725,108.0,25,F,up,1.4691853000003905,0.766897615872042,,experiment,emotion,3.0,,,,2127.4666330000005,76,24,male,True
726,108.0,25,F,down,1.1952545000003738,0.9101159627274518,,experiment,emotion,3.0,,,,2130.1165629,76,24,male,True
727,98.0,25,M,up,0.9206769000002168,1.003926727650039,,experiment,emotion,3.0,,,,2132.5831103000005,76,24,male,True
728,108.0,25,F,up,0.7314087000004292,0.3979528908207729,,experiment,emotion,3.0,,,,2134.1664035,76,24,male,True
729,101.0,25,F,down,1.6252026999991358,1.529412394381917,,experiment,emotion,3.0,,,,2136.699664,76,24,male,True
730,105.0,25,F,up,0.8893837000005078,1.3087780798853836,,experiment,emotion,3.0,,,,2139.8994212,76,24,male,True
731,101.0,25,M,up,0.5573627000003398,1.4009189005755949,,experiment,emotion,3.0,,,,2142.4494357,76,24,male,True
732,98.0,25,F,up,0.6773061000003509,1.1214482189096702,,experiment,emotion,3.0,,,,2144.382562400001,76,24,male,True
733,105.0,25,F,up,0.4575748999995994,1.4684085788349055,,experiment,emotion,3.0,,,,2146.7992725,76,24,male,True
734,101.0,25,F,up,0.5163495999995575,1.2656751173779213,,experiment,emotion,3.0,,,,2148.7824674,76,24,male,True
735,105.0,25,M,up,0.3334983000004285,1.419300248167879,,experiment,emotion,3.0,,,,2151.0157884000005,76,24,male,True
736,98.0,25,M,up,0.6517616000000999,0.8611452113711109,,experiment,emotion,3.0,,,,2152.5490672,76,24,male,True
737,108.0,25,F,up,0.8541177999995853,0.4698536561102506,,experiment,emotion,3.0,,,,2153.9656769,76,24,male,True
738,105.0,25,M,up,0.5586249000007228,1.3903695632136217,,experiment,emotion,3.0,,,,2156.4822595,76,24,male,True
739,108.0,25,F,up,0.5337046000004193,1.868509981441724,,experiment,emotion,3.0,,,,2159.1821333000003,76,24,male,True
740,98.0,25,M,up,0.4168092999998407,0.4061391460610735,,experiment,emotion,3.0,,,,2160.3987988000003,76,24,male,True
741,101.0,25,M,up,0.7007657000003746,1.5728503746311802,,experiment,emotion,3.0,,,,2162.6820454000003,76,24,male,True
742,0.3899838540306811,25,up,up,0.8002974999999424,0.3190933854960099,,experiment,cRDM,3.0,,,,2176.1815173,76,24,male,True
743,0.3899838540306811,25,up,up,0.8884004000001369,1.3380661135784233,,experiment,cRDM,3.0,,,,2178.5814162,76,24,male,True
744,0.3899838540306811,25,down,down,0.5577925000006871,1.700058430489051,,experiment,cRDM,3.0,,,,2181.4480043,76,24,male,True
745,0.3899838540306811,25,down,down,0.6191736999999193,1.0530493652398558,,experiment,cRDM,3.0,,,,2183.3146455,76,24,male,True
746,0.3899838540306811,25,up,up,0.9466363999999884,1.689082986596581,,experiment,cRDM,3.0,,,,2185.8811591,76,24,male,True
747,0.3899838540306811,25,down,down,0.6414118000002418,1.7346998115146652,,experiment,cRDM,3.0,,,,2188.8144286,76,24,male,True
748,0.3899838540306811,25,up,up,0.8724449000001187,0.7061287533233418,,experiment,cRDM,3.0,,,,2190.4143715000005,76,24,male,True
749,0.3899838540306811,25,up,down,0.6026577000002362,1.7116134813682886,,experiment,cRDM,3.0,,,,2193.2642046000005,76,24,male,True
750,0.3899838540306811,25,down,down,0.5323544000002585,1.5219364829319746,,experiment,cRDM,3.0,,,,2195.6474626000004,76,24,male,True
751,0.3899838540306811,25,down,down,0.847612499999741,0.3349005023922132,,experiment,cRDM,3.0,,,,2196.7641526,76,24,male,True
752,0.3899838540306811,25,down,down,0.5635787999999593,1.6155830886380669,,experiment,cRDM,3.0,,,,2199.4972410000005,76,24,male,True
753,0.3899838540306811,25,down,up,1.1548838999997315,1.900621999306102,,experiment,cRDM,3.0,,,,2202.2139379000005,76,24,male,True
754,0.3899838540306811,25,down,down,0.7769827000001897,1.1164529437731736,,experiment,cRDM,3.0,,,,2204.7638205,76,24,male,True
755,0.3899838540306811,25,down,down,1.052101400000538,1.0588602823048776,,experiment,cRDM,3.0,,,,2206.8637198,76,24,male,True
756,0.3899838540306811,25,up,down,0.8368120000004637,0.7270470672236207,,experiment,cRDM,3.0,,,,2208.8970022,76,24,male,True
757,0.3899838540306811,25,up,up,1.21698379999998,0.5455372478611618,,experiment,cRDM,3.0,,,,2210.5469214,76,24,male,True
758,0.3899838540306811,25,up,down,0.6260398000003988,1.156783507843772,,experiment,cRDM,3.0,,,,2213.1967953,76,24,male,True
759,0.3899838540306811,25,up,up,0.8840929000007236,1.8581307067776387,,experiment,cRDM,3.0,,,,2215.9467252,76,24,male,True
760,0.3899838540306811,25,down,down,0.6495475000001534,0.8652713869242967,,experiment,cRDM,3.0,,,,2217.9633057000005,76,24,male,True
761,0.3899838540306811,25,up,up,0.9735864000003858,1.340416247150954,,experiment,cRDM,3.0,,,,2220.2132309000003,76,24,male,True
762,0.3899838540306811,25,up,down,1.180594700000256,1.83722060317949,,experiment,cRDM,3.0,,,,2223.2964469000003,76,24,male,True
763,0.3899838540306811,25,down,down,0.7281012000003102,0.5760312505255292,,experiment,cRDM,3.0,,,,2225.3297056,76,24,male,True
764,0.3899838540306811,25,up,down,0.9968008999994707,0.9995987884188569,,experiment,cRDM,3.0,,,,2227.3129929,76,24,male,True
765,0.3899838540306811,25,down,down,0.7538793000003352,1.9199774462699348,,experiment,cRDM,3.0,,,,2230.4959532,76,24,male,True
