,stimLvl,stimTime,rand,response,rt,precedingITI,trialNumber,trialType,stimuli,block,estIntens,estThres,estSlope,trialStart,subject,age,gender,headRest
0,0.9,100,down,,,1.8893444919886595,,introTrial,cRDM,,,,,261.09608110000045,1004,23,female,True
1,150.0,100,F,,,1.9716350998355257,,introTrial,emotion,,,,,267.0291748,1004,23,female,True
2,200.0,25,F,up,0.5775087000001804,0.668245689735675,,tutorial,emotion,,,,,302.3445197000001,1004,23,female,True
3,200.0,25,F,up,0.4258910000007745,0.458415234505191,,tutorial,emotion,,,,,303.6611231000006,1004,23,female,True
4,200.0,25,M,up,0.3335106000013184,0.4340380082217236,,tutorial,emotion,,,,,304.81109540000034,1004,23,female,True
5,0.0,25,M,down,0.4002584000008937,1.149937008234531,,tutorial,emotion,,,,,306.6775787000006,1004,23,female,True
6,0.0,25,F,down,0.4167968000001565,0.7846971419050374,,tutorial,emotion,,,,,308.16096209999887,1004,23,female,True
7,200.0,25,M,up,0.3501376000003802,1.127326195901777,,tutorial,emotion,,,,,309.9775841999999,1004,23,female,True
8,0.0,25,M,down,0.3668428000000858,0.3963926846881868,,tutorial,emotion,,,,,311.07755089999955,1004,23,female,True
9,200.0,25,F,up,0.4825748000002932,1.997058152991872,,tutorial,emotion,,,,,313.7774319999989,1004,23,female,True
10,0.0,25,M,down,0.4466379999994387,0.7213757319225287,,tutorial,emotion,,,,,315.2773791,1004,23,female,True
11,0.0,25,F,down,0.5761022000006051,1.7942006271432906,,tutorial,emotion,,,,,317.7939406000005,1004,23,female,True
12,0.9,25,up,up,0.4483751000007032,1.4218888754950771,,tutorial,cRDM,,,,,324.843673899999,1004,23,female,True
13,0.9,25,up,up,0.4350636999988637,1.4143296858162864,,tutorial,cRDM,,,,,326.9769379999998,1004,23,female,True
14,0.9,25,down,down,0.3338017999994918,1.8135552768057768,,tutorial,cRDM,,,,,329.5101804999995,1004,23,female,True
15,0.9,25,down,down,0.4586132000003999,0.9301998520629926,,tutorial,cRDM,,,,,331.14341889999923,1004,23,female,True
16,0.9,25,up,up,0.4956684999997378,0.7746449031506224,,tutorial,cRDM,,,,,332.6433734000002,1004,23,female,True
17,0.9,25,down,down,0.4703675000000658,1.5205002934668532,,tutorial,cRDM,,,,,334.9266487999994,1004,23,female,True
18,0.9,25,up,up,0.3004759999985253,1.1184475020673526,,tutorial,cRDM,,,,,336.7932335000005,1004,23,female,True
19,0.9,25,up,up,0.3338427999988198,1.6289770348094488,,tutorial,cRDM,,,,,339.12648850000005,1004,23,female,True
20,0.9,25,down,down,0.4171399000006204,0.6329056579275671,,tutorial,cRDM,,,,,340.4430974000006,1004,23,female,True
21,0.9,25,down,down,0.448645899999974,1.9881960967290984,,tutorial,cRDM,,,,,343.1263397999992,1004,23,female,True
22,100.0,25,M,,,1.035841411847658,,psi_staircase_training,emotion,,100.0,100.0,25.00050000000001,352.9758096000005,1004,23,female,True
23,100.0,25,F,down,0.4878688999997393,1.035841411847658,,psi_staircase_training,emotion,,100.0,100.0,25.00050000000001,356.70916860000034,1004,23,female,True
24,145.0,25,M,up,0.4802297999995062,0.5728290801874879,,psi_staircase_training,emotion,,145.25719053245996,145.25719053245996,25.00050000000028,358.12579519999963,1004,23,female,True
25,121.0,25,F,up,0.4484594999994442,0.5224480775466692,,psi_staircase_training,emotion,,120.36392901436103,120.36392901436103,25.71326925488699,359.475617099999,1004,23,female,True
26,97.0,25,F,down,0.5674400000007154,1.2000966118250942,,psi_staircase_training,emotion,,102.3887610608496,102.3887610608496,26.14633372628729,361.4756517000005,1004,23,female,True
27,113.0,25,M,up,0.3835183999999572,1.5546481824759246,,psi_staircase_training,emotion,,114.01123255420406,114.01123255420406,23.00305641778335,363.9588851999997,1004,23,female,True
28,105.0,25,F,up,0.5001938000004884,1.659968053511212,,psi_staircase_training,emotion,,104.94359593877375,104.94359593877375,22.15060322358215,366.37575449999895,1004,23,female,True
29,92.0,25,M,down,0.4546037000000069,0.4816216542733135,,psi_staircase_training,emotion,,97.32104229908208,97.32104229908208,23.93307361449055,367.7254315999999,1004,23,female,True
30,95.0,25,F,down,0.569193000001178,1.6708847931354902,,psi_staircase_training,emotion,,102.844886035729,102.844886035729,20.021669804154055,370.19200420000016,1004,23,female,True
31,108.0,25,F,down,0.3835292999992816,0.6389855183501945,,psi_staircase_training,emotion,,105.64949659566052,105.64949659566052,16.907117635955938,371.77524640000047,1004,23,female,True
32,122.0,25,M,up,0.4184977000004437,1.2062560588611446,,psi_staircase_training,emotion,,111.13896522524438,111.13896522524438,22.52743651147554,373.75852339999983,1004,23,female,True
33,120.0,25,F,up,0.3669592999995075,0.5474774482315379,,psi_staircase_training,emotion,,108.34048536338418,108.34048536338418,19.767648454571603,375.07505130000027,1004,23,female,True
34,95.0,25,F,up,0.366836900000635,0.3396494159005696,,psi_staircase_training,emotion,,106.54022571774668,106.54022571774668,17.423382774665928,376.15846359999887,1004,23,female,True
35,84.0,25,F,down,0.4943223999998736,1.80194645161902,,psi_staircase_training,emotion,,101.55822058451528,101.55822058451528,25.58289414549214,378.74167829999897,1004,23,female,True
36,85.0,25,M,down,0.3668711999998777,0.6093223697861594,,psi_staircase_training,emotion,,103.44258744773305,103.44258744773305,23.52950228380581,380.20828769999935,1004,23,female,True
37,121.0,25,M,up,0.5081474999988131,1.7841729370393908,,psi_staircase_training,emotion,,104.76191777170656,104.76191777170656,21.72337718420952,382.77486970000064,1004,23,female,True
38,87.0,25,F,down,0.4782230000000709,1.2895010974924617,,psi_staircase_training,emotion,,103.53958525429483,103.53958525429483,19.95978016143501,384.9248114000002,1004,23,female,True
39,119.0,25,F,up,0.5602760000001581,0.4166086420528333,,psi_staircase_training,emotion,,104.50929617341012,104.50929617341012,18.316238239103946,386.1747482999999,1004,23,female,True
40,89.0,25,M,down,0.4846386999997776,0.3875713317896909,,psi_staircase_training,emotion,,103.58122857756334,103.58122857756334,16.76206484463651,387.4913674999989,1004,23,female,True
41,117.0,25,M,up,0.5873895000004268,1.941444879404967,,psi_staircase_training,emotion,,104.31151214296818,104.31151214296818,15.381484224558967,390.27458710000064,1004,23,female,True
42,91.0,25,M,down,0.4898408000008203,1.2165362038820682,,psi_staircase_training,emotion,,103.58127569693546,103.58127569693546,14.105433294209725,392.4411552999991,1004,23,female,True
43,115.0,25,M,up,0.5099945999991178,1.8073734614995904,,psi_staircase_training,emotion,,104.16305996788866,104.16305996788866,13.01138328828054,395.0910824999992,1004,23,female,True
44,113.0,25,F,up,0.5073406999999861,1.153008171856884,,psi_staircase_training,emotion,,103.55376108761789,103.55376108761789,12.009324277081848,397.1076792000004,1004,23,female,True
45,95.0,25,F,down,0.4432221999995818,1.8747995952091272,,psi_staircase_training,emotion,,103.00641498048287,103.00641498048287,11.183005543768957,399.8578292000002,1004,23,female,True
46,103.0,25,F,up,0.5205213000008371,0.9489751894778806,,psi_staircase_training,emotion,,103.6172090953982,103.6172090953982,10.389670287020834,401.6075022999994,1004,23,female,True
47,111.0,25,M,up,0.5275701999999001,1.516358970469376,,psi_staircase_training,emotion,,102.336063192362,102.336063192362,10.581759848880113,404.00742100000025,1004,23,female,True
48,93.0,25,M,up,0.7806762000000163,0.7008889223638118,,psi_staircase_training,emotion,,101.91378072598796,101.91378072598796,9.930929462293772,405.60735029999887,1004,23,female,True
49,87.0,25,F,down,0.4451516000008269,1.6743443631973092,,psi_staircase_training,emotion,,100.07487954264136,100.07487954264136,12.896540330206074,408.4238714000003,1004,23,female,True
50,88.0,25,F,up,0.6822114999995392,1.39432530022304,,psi_staircase_training,emotion,,100.4805665419122,100.4805665419122,12.040430761558268,410.6238159000004,1004,23,female,True
51,81.0,25,M,down,0.6805966000010812,1.28581996741663,,psi_staircase_training,emotion,,98.58387391989012,98.58387391989012,16.135573018508204,412.9404099999993,1004,23,female,True
52,82.0,25,M,down,0.4217143000005308,1.4599641697716732,,psi_staircase_training,emotion,,98.99689638915842,98.99689638915842,15.157292589444271,415.44030179999936,1004,23,female,True
53,0.29,25,up,up,0.5189440000012837,1.3679928953705858,,psi_staircase_training,cRDM,,0.25,0.2569312402994632,0.105,422.14006209999934,1004,23,female,True
54,0.25,25,up,up,0.7266725999998016,0.4940556471997506,,psi_staircase_training,cRDM,,0.2191026665318312,0.2260132002683492,0.1046863203387393,423.4233683000002,1004,23,female,True
55,0.21,25,down,up,0.4525320999982796,1.5386546030656596,,psi_staircase_training,cRDM,,0.1900540959403307,0.1968497961554001,0.1029467298424999,425.9565354999995,1004,23,female,True
56,0.32,25,down,down,0.4171160000005329,0.5567379494539548,,psi_staircase_training,cRDM,,0.2819387795981387,0.2893209636160949,0.1118312579561586,427.2398642999997,1004,23,female,True
57,0.29,25,up,up,0.4584451999999146,0.9539690834577974,,psi_staircase_training,cRDM,,0.259426876942127,0.2667634756990502,0.1111406957765679,428.9064835999998,1004,23,female,True
58,0.27,25,down,down,0.3838617999990674,0.860468979097694,,psi_staircase_training,cRDM,,0.238671950950526,0.2458822432686334,0.109227304305105,430.4897662000003,1004,23,female,True
59,0.26,25,up,up,0.4002679999994143,0.7454699096904194,,psi_staircase_training,cRDM,,0.2201157802488951,0.2271739015591714,0.1069220955499697,431.92304259999946,1004,23,female,True
60,0.24,25,up,up,0.5400788999995711,1.9436654845265435,,psi_staircase_training,cRDM,,0.2041505375414391,0.2110301411817813,0.1042177663775234,434.57294419999926,1004,23,female,True
61,0.2,25,down,down,0.3504271999991033,0.7692554577719329,,psi_staircase_training,cRDM,,0.1888644554418269,0.1957080400193487,0.103672120658612,436.1729556999999,1004,23,female,True
62,0.2,25,down,down,0.5662412000001495,1.0539332412792413,,psi_staircase_training,cRDM,,0.1705557926382123,0.1778497321889761,0.1104944598284255,437.9228227000003,1004,23,female,True
63,0.19,25,down,down,0.4002284999987751,1.4296449594961784,,psi_staircase_training,cRDM,,0.1533088738836659,0.1608834185373759,0.1147452915030432,440.2060953,1004,23,female,True
64,0.18,25,down,down,0.4796650000007503,0.5236107901448122,,psi_staircase_training,cRDM,,0.1374714623748278,0.1451964942842611,0.117024993427699,441.4393531000005,1004,23,female,True
65,0.16,25,down,down,0.383827999999994,0.5210549939882038,,psi_staircase_training,cRDM,,0.1235084939531084,0.1312501447469713,0.1172767496487679,442.7226448999991,1004,23,female,True
66,0.13,25,down,down,0.3504962000006344,1.6695333548670523,,psi_staircase_training,cRDM,,0.1110023859076282,0.118670920211633,0.1161691222828988,445.0892172000004,1004,23,female,True
67,0.12,25,up,down,0.3004952000010235,1.7950260256909265,,psi_staircase_training,cRDM,,0.0993215339274039,0.1068870608191187,0.1146086831950661,447.5724862999996,1004,23,female,True
68,0.19,25,up,down,0.4349086000001989,0.7888003877702794,,psi_staircase_training,cRDM,,0.1361934567573107,0.1444155537385843,0.1245549347207865,449.03907489999983,1004,23,female,True
69,0.2,25,up,up,0.3838173000003735,0.8153842932274926,,psi_staircase_training,cRDM,,0.1780302916793741,0.1865644030565981,0.1292815796153994,450.5556983999995,1004,23,female,True
70,0.2,25,up,up,0.400175599999784,1.715049340826184,,psi_staircase_training,cRDM,,0.1652190428362556,0.174058939297496,0.1339138578851648,452.97228749999886,1004,23,female,True
71,0.19,25,down,down,0.4931369000005361,1.5727157515682235,,psi_staircase_training,cRDM,,0.1537433083964162,0.1627720107527316,0.1367740413626314,455.23884480000015,1004,23,female,True
72,0.18,25,up,down,0.3338144999997894,1.7841138368439846,,psi_staircase_training,cRDM,,0.1432160638808526,0.1523888475289524,0.1389567005958605,457.7887862999996,1004,23,female,True
73,0.22,25,up,up,0.6063708999990922,1.798530503441565,,psi_staircase_training,cRDM,,0.1764023751302132,0.1852448382024903,0.1339527389724166,460.2886784999992,1004,23,female,True
74,0.22,25,down,down,0.433673199999248,0.3541866335486231,,psi_staircase_training,cRDM,,0.1673113514844598,0.1761680692456138,0.1341686804587027,461.5053169999992,1004,23,female,True
75,0.18,25,up,up,0.3337972000008449,0.5016144920591883,,psi_staircase_training,cRDM,,0.1595813854898257,0.1683895816963909,0.1334336369438775,462.7219046999999,1004,23,female,True
76,0.17,25,down,down,0.3505191000003833,1.583513781910221,,psi_staircase_training,cRDM,,0.1500371220738224,0.1591643800685293,0.1382670414007198,464.9884989000002,1004,23,female,True
77,0.17,25,down,down,0.4002865999991627,0.7924324233536951,,psi_staircase_training,cRDM,,0.1409890674184099,0.1503863604342631,0.142357748979067,466.4717667000005,1004,23,female,True
78,0.17,25,up,down,0.3838796000000002,1.8112733412959865,,psi_staircase_training,cRDM,,0.1327672881228176,0.142347220543155,0.1451245174998947,468.9716938999991,1004,23,female,True
79,0.17,25,up,up,0.4168104000000312,1.1895142109832435,,psi_staircase_training,cRDM,,0.1581227848406263,0.1673157174309694,0.1392619329704629,470.87160399999993,1004,23,female,True
80,0.17,25,down,up,0.5537371999998868,1.107501394386572,,psi_staircase_training,cRDM,,0.1496855796063142,0.1591622341237857,0.1435599808033719,472.68820009999945,1004,23,female,True
81,0.23,25,up,up,0.4168852000002516,0.9269850043764664,,psi_staircase_training,cRDM,,0.1729390094621569,0.181801073424207,0.1342496690076254,474.4547693000004,1004,23,female,True
82,0.23,25,down,up,0.516929400000663,0.8399681981896592,,psi_staircase_training,cRDM,,0.1675057114250294,0.176198244133856,0.131681473299588,475.9880735000006,1004,23,female,True
83,100.0,25,M,down,0.6756720000012137,0.8946150997826892,,psi_staircase,emotion,,100.0,100.0,25.00050000000001,500.2705172999995,1004,23,female,True
84,145.0,25,M,up,0.4309255999996821,1.0558860904637666,,psi_staircase,emotion,,145.25719053245996,145.25719053245996,25.00050000000028,502.3540403999996,1004,23,female,True
85,121.0,25,F,down,0.619076999999379,1.9219276722429544,,psi_staircase,emotion,,120.36392901436103,120.36392901436103,25.71326925488699,505.0539227999998,1004,23,female,True
86,137.0,25,F,up,0.444428799999514,0.6415658718985991,,psi_staircase,emotion,,137.8359832966118,137.8359832966118,25.292325986285498,506.65354449999904,1004,23,female,True
87,127.0,25,M,up,0.3669038000007276,0.659441614246324,,psi_staircase,emotion,,126.46069055808248,126.46069055808248,23.64975108561129,508.13686769999913,1004,23,female,True
88,113.0,25,F,up,0.4907988000013574,0.6970303821547764,,psi_staircase,emotion,,117.51644698116752,117.51644698116752,24.57617413513076,509.6201638000002,1004,23,female,True
89,94.0,25,M,down,0.4805820000001404,1.842135130227904,,psi_staircase,emotion,,106.52678028801836,106.52678028801836,30.115701177201284,512.3034112000005,1004,23,female,True
90,98.0,25,F,down,0.5496559999992314,0.4506938894146112,,psi_staircase,emotion,,112.69176471044776,112.69176471044776,27.72735343080098,513.6033604000004,1004,23,female,True
91,132.0,25,F,up,0.4313975999993999,1.6842295087604326,,psi_staircase,emotion,,116.555244613451,116.555244613451,25.68608228109161,516.1865944000001,1004,23,female,True
92,103.0,25,M,down,0.5211295999997674,1.8946946455873648,,psi_staircase,emotion,,113.7593527695303,113.7593527695303,23.877520687671648,518.8698191999993,1004,23,female,True
93,131.0,25,F,up,0.4722526999994443,1.1811709752646111,,psi_staircase,emotion,,116.68945046105982,116.68945046105982,21.89311654377142,520.9197370999991,1004,23,female,True
94,107.0,25,F,down,0.5742222999997466,0.5879696112076591,,psi_staircase,emotion,,114.79233295674628,114.79233295674628,20.061136582159428,522.3197220999991,1004,23,female,True
95,130.0,25,F,up,0.4943113000008452,0.4658545075341706,,psi_staircase,emotion,,117.11272584921343,117.11272584921343,18.334895816501486,523.7196592,1004,23,female,True
96,111.0,25,M,up,1.008146999998644,1.6904335162525022,,psi_staircase,emotion,,115.79584557437082,115.79584557437082,16.64129144990507,526.2528203000002,1004,23,female,True
97,98.0,25,M,down,0.4448286999995616,0.6534290534430385,,psi_staircase,emotion,,112.1980423057822,112.1980423057822,18.9660519966084,528.2861467000002,1004,23,female,True
98,100.0,25,F,down,0.5594736999992165,1.255926636860104,,psi_staircase,emotion,,113.43533725000802,113.43533725000802,17.107819279848396,530.3525628999996,1004,23,female,True
99,113.0,25,F,up,0.5489592000012635,0.9659800280081304,,psi_staircase,emotion,,114.32193875197063,114.32193875197063,15.555323292984488,532.2360016999992,1004,23,female,True
100,113.0,25,M,down,0.5597307999996701,1.6362672330945187,,psi_staircase,emotion,,112.12433558785727,112.12433558785727,14.97105148295853,534.7692344999996,1004,23,female,True
101,128.0,25,M,up,0.4397685000003548,1.6509063810207822,,psi_staircase,emotion,,114.31964609190268,114.31964609190268,16.511153017931342,537.3191611999991,1004,23,female,True
102,99.0,25,M,down,0.5369776999996247,1.7589366822517192,,psi_staircase,emotion,,113.57340471029032,113.57340471029032,15.14546283578856,539.8690458000001,1004,23,female,True
103,126.0,25,M,up,0.8612897999992128,0.3212156304504716,,psi_staircase,emotion,,114.10463555631227,114.10463555631227,13.968072209006117,541.0856922999992,1004,23,female,True
104,124.0,25,F,up,0.5777368999988539,1.7067092598584204,,psi_staircase,emotion,,113.48882902119232,113.48882902119232,12.87387466914456,544.002226999999,1004,23,female,True
105,102.0,25,F,down,0.4374929000005068,1.94600680630498,,psi_staircase,emotion,,112.95004588875956,112.95004588875956,11.94920748537539,546.8854740000006,1004,23,female,True
106,121.0,25,F,up,0.4792923999993945,1.4443657952730775,,psi_staircase,emotion,,113.4109309311509,113.4109309311509,11.080934616331016,549.1186999999991,1004,23,female,True
107,119.0,25,M,up,0.5173510999993596,0.852634390118078,,psi_staircase,emotion,,112.84785270561314,112.84785270561314,10.348701465195187,550.818656899999,1004,23,female,True
108,104.0,25,M,down,0.6634206000017002,1.9287123429247663,,psi_staircase,emotion,,112.28518119699773,112.28518119699773,9.72797541415632,553.6185272000002,1004,23,female,True
109,117.0,25,F,up,0.4528731000009429,1.4969385071832269,,psi_staircase,emotion,,112.69005682777002,112.69005682777002,9.07213080905078,556.1350899999998,1004,23,female,True
110,116.0,25,F,up,0.417231500001435,0.7753370491472114,,psi_staircase,emotion,,112.09936041475773,112.09936041475773,8.552906081035008,557.7017352999992,1004,23,female,True
111,115.0,25,M,up,0.3668760000000475,0.8611508870011351,,psi_staircase,emotion,,111.54205941903427,111.54205941903427,8.064925830666187,559.3516158000002,1004,23,female,True
112,115.0,25,M,up,0.4496959999996761,1.322739686352615,,psi_staircase,emotion,,111.01036615817098,111.01036615817098,7.595044839072265,561.4182927999991,1004,23,female,True
113,106.0,25,F,down,0.4917734999999084,1.3472451514495372,,psi_staircase,emotion,,110.57530483742032,110.57530483742032,7.104636173993103,563.5681731000004,1004,23,female,True
114,115.0,25,M,up,0.5972012000001996,0.3790388303116916,,psi_staircase,emotion,,110.95598709140988,110.95598709140988,6.53137016963894,564.7847934000001,1004,23,female,True
115,109.0,25,F,up,0.6558849000011833,0.8378893196014157,,psi_staircase,emotion,,110.60307740598697,110.60307740598697,6.032238878092173,566.5680725000002,1004,23,female,True
116,110.0,25,M,up,0.6603537999999389,1.9435882602105568,,psi_staircase,emotion,,109.715408797774,109.715408797774,6.53520998557376,569.5345818999995,1004,23,female,True
117,110.0,25,F,down,1.030690499999764,1.1131300115940042,,psi_staircase,emotion,,109.07078071249995,109.07078071249995,6.241834525298884,571.6512853000004,1004,23,female,True
118,104.0,25,M,down,0.6788350000006176,1.467125890798823,,psi_staircase,emotion,,109.8480696840791,109.8480696840791,6.977739134291146,574.501123,1004,23,female,True
119,115.0,25,F,up,0.6146110000008775,1.1232324966920113,,psi_staircase,emotion,,110.08008249981556,110.08008249981556,6.478982851225887,576.6343393999996,1004,23,female,True
120,115.0,25,M,up,0.4211002000010921,1.6863652440377863,,psi_staircase,emotion,,109.85160252292488,109.85160252292488,6.04970705996607,579.3009392999993,1004,23,female,True
121,105.0,25,M,up,0.4167899000003672,0.377230398396699,,psi_staircase,emotion,,109.6670173883982,109.6670173883982,5.655183830510583,580.4675587999991,1004,23,female,True
122,101.0,25,F,down,0.5939629000004061,1.7497377273178183,,psi_staircase,emotion,,108.82917527725088,108.82917527725088,7.398793105042182,582.9841178999995,1004,23,female,True
123,115.0,25,F,up,0.6525818000009167,1.3506996499781636,,psi_staircase,emotion,,109.0164050544224,109.0164050544224,6.97248343968237,585.2673701999993,1004,23,female,True
124,102.0,25,F,up,0.4170279000009032,0.5451007489251005,,psi_staircase,emotion,,108.84400376232354,108.84400376232354,6.629369201515683,586.8504415999996,1004,23,female,True
125,99.0,25,M,down,0.7020905999997922,0.5056565139424138,,psi_staircase,emotion,,107.93636677430844,107.93636677430844,8.623367441833247,588.1339052000003,1004,23,female,True
126,99.0,25,M,down,0.6817842000000383,1.494461397225782,,psi_staircase,emotion,,108.143186497275,108.143186497275,8.17249087017895,590.6671809,1004,23,female,True
127,100.0,25,F,up,0.5583274999989953,1.838259133069465,,psi_staircase,emotion,,108.30158933853608,108.30158933853608,7.807399509496337,593.533706799999,1004,23,female,True
128,96.0,25,F,down,0.5829594000006182,1.2201892150753844,,psi_staircase,emotion,,107.45366366912302,107.45366366912302,9.698678193392295,595.6669896999992,1004,23,female,True
129,97.0,25,F,down,0.5250247000003583,0.8050548700461333,,psi_staircase,emotion,,107.62007183707694,107.62007183707694,9.289165853738073,597.4169292999995,1004,23,female,True
130,98.0,25,M,down,0.6110821000002034,0.7710030722988253,,psi_staircase,emotion,,107.76506794301834,107.76506794301834,8.937507792948676,599.0668624999998,1004,23,female,True
131,116.0,25,M,up,0.5405042999991565,0.3678193582440715,,psi_staircase,emotion,,107.89735599184118,107.89735599184118,8.629415229767723,600.3834733999993,1004,23,female,True
132,116.0,25,M,up,0.7810516999998072,1.4749591464416285,,psi_staircase,emotion,,107.74095424800628,107.74095424800628,8.346162848208314,602.7499368999997,1004,23,female,True
133,0.29,25,up,up,0.5015984999990906,0.5345178856570447,,psi_staircase,cRDM,,0.25,0.2569312402994632,0.105,630.2323720999993,1004,23,female,True
134,0.25,25,up,up,0.4236803000003419,1.0922403418398594,,psi_staircase,cRDM,,0.2191026665318312,0.2260132002683492,0.1046863203387393,632.0823005999991,1004,23,female,True
135,0.21,25,down,down,0.416810799999439,0.5377794372888577,,psi_staircase,cRDM,,0.1900540959403307,0.1968497961554001,0.1029467298424999,633.2989321999994,1004,23,female,True
136,0.18,25,down,down,0.3505452999997942,0.8376835580839717,,psi_staircase,cRDM,,0.1635257589279754,0.1701521334256793,0.1003816477568649,634.8155172000006,1004,23,female,True
137,0.15,25,up,up,0.3838376000003336,1.1474899629161326,,psi_staircase,cRDM,,0.1401895574244936,0.1466013351187503,0.0971307628663642,636.6487698000001,1004,23,female,True
138,0.13,25,down,down,0.3836079000011523,0.7235928007784349,,psi_staircase,cRDM,,0.1198760602145479,0.1260554767618333,0.0936107694196103,638.0490016000003,1004,23,female,True
139,0.11,25,up,up,0.4234519000001455,1.909096673071276,,psi_staircase,cRDM,,0.1025773523696548,0.1084910344569865,0.0895852101993795,640.6485919000006,1004,23,female,True
140,0.09,25,down,down,0.4487463000004936,0.7771642176682816,,psi_staircase,cRDM,,0.087844325958594,0.0934818215320969,0.0854013148647635,642.1152473000002,1004,23,female,True
141,0.08,25,down,up,0.4227285999986634,1.975669995688332,,psi_staircase,cRDM,,0.0751852092118086,0.0805556301471181,0.0813554535472043,644.8151672999993,1004,23,female,True
142,0.13,25,up,up,0.5258118000001559,0.82367706524956,,psi_staircase,cRDM,,0.1145374077699418,0.1210371210567565,0.0984628819128368,646.3151216000006,1004,23,female,True
143,0.13,25,down,down,0.4262972999986232,0.3834523555612169,,psi_staircase,cRDM,,0.1023941484636293,0.108577482786431,0.0936701190325844,647.4817155000001,1004,23,female,True
144,0.12,25,down,up,0.5542944000007992,1.6687476780461616,,psi_staircase,cRDM,,0.093157405715179,0.098965388034743,0.0879839851464166,649.8316469000001,1004,23,female,True
145,0.16,25,down,down,0.4267706000009639,1.2980596845831882,,psi_staircase,cRDM,,0.1290085181734406,0.136602985232638,0.1150470921167567,651.9482575999991,1004,23,female,True
146,0.16,25,up,up,0.4491560000005847,1.5426070746535714,,psi_staircase,cRDM,,0.1173317507949223,0.1246537931796921,0.1109201841494908,654.1648079999995,1004,23,female,True
147,0.15,25,up,up,0.4167663999996875,1.1047906349686558,,psi_staircase,cRDM,,0.1084336674921715,0.115430444050328,0.105992795930524,655.9814124000004,1004,23,female,True
148,0.15,25,down,down,0.4167788000013388,0.438931863089252,,psi_staircase,cRDM,,0.1014971773031523,0.1081597895223434,0.1009306058930361,657.0980349999991,1004,23,female,True
149,0.11,25,down,down,0.5526563999992504,1.398072053083242,,psi_staircase,cRDM,,0.0964148743282641,0.1027225264850856,0.0955533855199834,659.1813220000004,1004,23,female,True
150,0.1,25,up,down,0.4490189999996801,1.7982271599886217,,psi_staircase,cRDM,,0.088702337349715,0.09524749008499,0.0991512352063585,661.7978987000006,1004,23,female,True
151,0.15,25,up,up,0.4166796999998041,0.4124108794175073,,psi_staircase,cRDM,,0.1092556470532275,0.1150620360263945,0.0879598478543232,662.9144866999995,1004,23,female,True
152,0.15,25,up,down,0.3671730999994906,1.7526254516917534,,psi_staircase,cRDM,,0.1054833904795157,0.1108805848575974,0.0817610391811777,665.3477067000003,1004,23,female,True
153,0.17,25,up,down,0.5996033999999781,0.4020914076965691,,psi_staircase,cRDM,,0.1238914711311642,0.1321936714629761,0.1257684046688951,666.4143712999994,1004,23,female,True
154,0.24,25,down,down,0.4002517000008083,0.8929208486301548,,psi_staircase,cRDM,,0.1579744448832656,0.1675741884809567,0.1454246331404235,668.1642921999992,1004,23,female,True
155,0.22,25,down,down,0.3172448000004806,0.4815008533473454,,psi_staircase,cRDM,,0.1476439359743169,0.1571247950368135,0.1436236746313979,669.3308560000005,1004,23,female,True
156,0.2,25,down,up,0.5624738999995316,0.8924654970730266,,psi_staircase,cRDM,,0.1387608391951178,0.1481102782307666,0.1416328184176715,670.8975272999996,1004,23,female,True
157,0.27,25,up,up,0.3670877000004111,0.5230731599081183,,psi_staircase,cRDM,,0.1746221950216573,0.1845307544401952,0.1501028234480695,672.2475211000001,1004,23,female,True
158,0.25,25,up,down,0.4275692999999592,1.724245694434928,,psi_staircase,cRDM,,0.1652300422185131,0.1750257170157627,0.148392756458155,674.6474044999995,1004,23,female,True
159,0.31,25,down,down,0.4002514999992854,0.9648645039389674,,psi_staircase,cRDM,,0.2079968693443583,0.2184470139653013,0.1583071914681671,676.2973251999992,1004,23,female,True
160,0.3,25,down,down,0.4320134999998117,1.639807329915394,,psi_staircase,cRDM,,0.1970082836316194,0.2074121540709746,0.1576061929661978,678.6139002,1004,23,female,True
161,0.28,25,up,up,0.542834199999561,1.1399536692531378,,psi_staircase,cRDM,,0.1876629714606707,0.1979881598575933,0.1564142541358466,680.4471238000006,1004,23,female,True
162,0.24,25,up,up,0.4975529000003007,1.4588989628796845,,psi_staircase,cRDM,,0.1792200431795382,0.1894631964192595,0.1551715196274501,682.7304052,1004,23,female,True
163,0.24,25,down,down,0.4212258999996265,0.5702642091158008,,psi_staircase,cRDM,,0.1704409195945981,0.1806842774684364,0.1551746195895576,684.063730599999,1004,23,female,True
164,0.24,25,up,up,0.3840569000003597,1.1975795933589355,,psi_staircase,cRDM,,0.1628434075756272,0.1730523789413529,0.1546537051217526,685.9636637999993,1004,23,female,True
165,0.23,25,down,down,0.3338038000001688,0.8208472574941985,,psi_staircase,cRDM,,0.156250776463597,0.1664014862566051,0.1537711119824236,687.4635859999999,1004,23,female,True
166,0.19,25,up,up,0.4969920000003185,1.4087895220374005,,psi_staircase,cRDM,,0.1501812093304311,0.1602758285925046,0.1529214075292983,689.5468870000004,1004,23,female,True
167,0.19,25,down,down,0.3505189000006794,1.456179769761048,,psi_staircase,cRDM,,0.1435396566002705,0.1536728147442015,0.1535052254926373,691.7800816999988,1004,23,female,True
168,0.19,25,up,up,0.416757900000448,0.5977698018525562,,psi_staircase,cRDM,,0.1375155161135092,0.1476601211411042,0.1536786320883951,693.0633908,1004,23,female,True
169,0.19,25,down,down,0.6745938000003662,1.137019944814717,,psi_staircase,cRDM,,0.132039308800465,0.1421752174808615,0.1535468928301401,694.8633245000001,1004,23,female,True
170,0.19,25,up,up,0.3671569999987696,0.8251117276290112,,psi_staircase,cRDM,,0.1270468048437585,0.1371588507440181,0.153185400253613,696.6299075999996,1004,23,female,True
171,0.18,25,up,up,0.4970809000005829,0.6693040129346615,,psi_staircase,cRDM,,0.1224818233897792,0.1325582997210702,0.1526465638289136,697.9798539999992,1004,23,female,True
172,0.19,25,down,down,0.3838214999996125,1.5828115568089125,,psi_staircase,cRDM,,0.1180509113026569,0.1280998528869818,0.1522294453470068,700.3297629999997,1004,23,female,True
173,0.16,25,down,down,0.4002555000006396,0.8091763099865914,,psi_staircase,cRDM,,0.1142045762398933,0.1242002186727994,0.151422026954745,701.8130316999996,1004,23,female,True
174,0.17,25,down,up,0.4171003000010387,0.3361744179743173,,psi_staircase,cRDM,,0.1099310881704128,0.1199232974656343,0.1513700190252399,702.8296611000005,1004,23,female,True
175,0.22,25,up,up,0.4002385000003414,1.067807973366738,,psi_staircase,cRDM,,0.1258389618125033,0.1359860157990378,0.1537157308871002,704.5796073000001,1004,23,female,True
176,0.16,25,up,up,0.5454377999994904,1.2646621606586042,,psi_staircase,cRDM,,0.1225910458396539,0.1326660627381538,0.1526244551677735,706.5295210999993,1004,23,female,True
177,0.15,25,down,down,0.7381602999994357,1.6204742297102843,,psi_staircase,cRDM,,0.1181995843590721,0.1283069595527937,0.1531146446362484,708.9627946,1004,23,female,True
178,0.16,25,down,down,0.3838171000006696,0.956867118099249,,psi_staircase,cRDM,,0.1138707218349827,0.1240179553381756,0.1537184503497537,710.9127215999997,1004,23,female,True
179,0.21,25,down,down,0.431324000001041,1.9266177835403613,,psi_staircase,cRDM,,0.1099806003843431,0.12013730556105,0.1538619348743119,713.5126306999991,1004,23,female,True
180,0.15,25,up,up,0.5113994000003004,0.3238893376358843,,psi_staircase,cRDM,,0.1073537748840984,0.1174450508722852,0.152870760928844,714.5125804999989,1004,23,female,True
181,0.16,25,up,down,0.4318328999997902,0.7558513534731006,,psi_staircase,cRDM,,0.1036570699915422,0.1137665794527863,0.1531469762363925,716.0461156999991,1004,23,female,True
182,0.23,25,up,up,0.3841621000010491,0.7238203394804714,,psi_staircase,cRDM,,0.1171000051562729,0.1272426576275249,0.1536490531952748,717.4624652999992,1004,23,female,True
183,110.0,25,F,down,0.6352939999997034,0.8060466157796324,,experiment,emotion,0.0,,,,740.4616378999999,1004,23,female,True
184,104.0,25,M,down,0.5007869000000937,1.1701339083564577,,experiment,emotion,0.0,,,,742.5451362999993,1004,23,female,True
185,108.0,25,F,down,0.4734637999990809,1.6758894727856637,,experiment,emotion,0.0,,,,745.0114446999996,1004,23,female,True
186,110.0,25,M,down,0.4349360000014712,1.973060406878792,,experiment,emotion,0.0,,,,747.7279942000005,1004,23,female,True
187,108.0,25,F,down,0.4433117000007769,0.7536689068800662,,experiment,emotion,0.0,,,,749.1946349999998,1004,23,female,True
188,106.0,25,F,up,0.4426490999994712,1.1063463493775971,,experiment,emotion,0.0,,,,751.0112279999994,1004,23,female,True
189,104.0,25,M,down,0.5635289999991073,1.9595616150819517,,experiment,emotion,0.0,,,,753.6944592,1004,23,female,True
190,106.0,25,F,down,0.4002099999997881,1.296273425480364,,experiment,emotion,0.0,,,,755.827727599999,1004,23,female,True
191,110.0,25,M,down,0.4001852000001236,1.062649105114564,,experiment,emotion,0.0,,,,757.5776538999999,1004,23,female,True
192,106.0,25,M,down,0.3834294000007503,1.4931439003765663,,experiment,emotion,0.0,,,,759.7609310999997,1004,23,female,True
193,108.0,25,F,up,0.6200910000006843,1.69909779848878,,experiment,emotion,0.0,,,,762.1608319999996,1004,23,female,True
194,110.0,25,M,down,0.5012334999992163,1.8541002228258925,,experiment,emotion,0.0,,,,764.910711999999,1004,23,female,True
195,108.0,25,M,down,0.4329186000013578,1.0146619205453251,,experiment,emotion,0.0,,,,766.6939815000005,1004,23,female,True
196,104.0,25,M,down,0.4680389999994077,1.9948126047225012,,experiment,emotion,0.0,,,,769.3938856999994,1004,23,female,True
197,106.0,25,F,down,0.4267290999996476,0.5225530025578842,,experiment,emotion,0.0,,,,770.6772366999994,1004,23,female,True
198,104.0,25,F,down,0.5445321000006516,1.3800945210258728,,experiment,emotion,0.0,,,,772.7604408999996,1004,23,female,True
199,110.0,25,M,down,0.3668298999982653,0.6274449057489753,,experiment,emotion,0.0,,,,774.1937053999991,1004,23,female,True
200,104.0,25,M,up,0.5063086999998632,1.408091489149327,,experiment,emotion,0.0,,,,776.2936329000004,1004,23,female,True
201,108.0,25,F,up,0.4165572000001702,0.9689001776543285,,experiment,emotion,0.0,,,,778.0438262999996,1004,23,female,True
202,108.0,25,F,up,0.4194384000002173,0.4642730950915456,,experiment,emotion,0.0,,,,779.1935336999995,1004,23,female,True
203,106.0,25,M,up,0.3835116999998718,0.5410138673139018,,experiment,emotion,0.0,,,,780.4101406999998,1004,23,female,True
204,106.0,25,F,up,0.4169586999996681,0.6447336393142916,,experiment,emotion,0.0,,,,781.7432790000003,1004,23,female,True
205,104.0,25,M,down,0.4262257999998837,0.5910915744892259,,experiment,emotion,0.0,,,,783.0266895999994,1004,23,female,True
206,110.0,25,F,up,0.5253247999989981,1.6063833671440582,,experiment,emotion,0.0,,,,785.3266036000005,1004,23,female,True
207,108.0,25,F,up,0.429025499999625,1.8318984106522984,,experiment,emotion,0.0,,,,787.9598614000006,1004,23,female,True
208,104.0,25,M,up,0.4167789999992237,1.1114133729281106,,experiment,emotion,0.0,,,,789.7598182000002,1004,23,female,True
209,110.0,25,M,up,0.4972027000003436,1.4032442148327229,,experiment,emotion,0.0,,,,791.8597171000001,1004,23,female,True
210,110.0,25,F,down,0.691294399999606,1.289067202221205,,experiment,emotion,0.0,,,,793.9096341000004,1004,23,female,True
211,106.0,25,M,down,0.7833303000006708,1.386282653282948,,experiment,emotion,0.0,,,,796.2595646999998,1004,23,female,True
212,104.0,25,F,down,0.4454322000001411,0.4025648214816187,,experiment,emotion,0.0,,,,797.7095007999997,1004,23,female,True
213,106.0,25,M,down,0.4860649000002013,0.3246418938958121,,experiment,emotion,0.0,,,,798.7428027999995,1004,23,female,True
214,108.0,25,F,down,0.4911816000003455,0.5962331823970921,,experiment,emotion,0.0,,,,800.0927682000001,1004,23,female,True
215,104.0,25,M,down,0.4262913999991724,1.741751604916788,,experiment,emotion,0.0,,,,802.5926435000001,1004,23,female,True
216,110.0,25,F,up,0.624977299999955,1.3939489457221184,,experiment,emotion,0.0,,,,804.6759215000002,1004,23,female,True
217,108.0,25,M,up,0.7304727000009734,1.5282107796547195,,experiment,emotion,0.0,,,,807.0924811000004,1004,23,female,True
218,110.0,25,F,down,0.6412764999986393,1.9629731655702525,,experiment,emotion,0.0,,,,810.0426914999989,1004,23,female,True
219,104.0,25,M,down,0.6733053000007203,0.4807697856127911,,experiment,emotion,0.0,,,,811.4256411999995,1004,23,female,True
220,108.0,25,F,up,0.7787655000011,1.0687723984944384,,experiment,emotion,0.0,,,,813.4421464999996,1004,23,female,True
221,106.0,25,M,down,1.0270889999992503,1.1941443926870174,,experiment,emotion,0.0,,,,815.7088277999992,1004,23,female,True
222,106.0,25,F,down,0.6325077999990754,1.570998528424146,,experiment,emotion,0.0,,,,818.5754032999994,1004,23,female,True
223,108.0,25,F,down,0.481271900000138,0.7452024164165982,,experiment,emotion,0.0,,,,820.208645499999,1004,23,female,True
224,110.0,25,M,down,0.4929632999992464,1.231242303003255,,experiment,emotion,0.0,,,,822.1919326000007,1004,23,female,True
225,106.0,25,F,down,0.5691707999994833,1.523720511853337,,experiment,emotion,0.0,,,,824.4918366999991,1004,23,female,True
226,104.0,25,M,down,0.4801602999996248,0.4517825009451692,,experiment,emotion,0.0,,,,825.7917877999989,1004,23,female,True
227,104.0,25,M,down,0.5572098000011465,1.730920481995062,,experiment,emotion,0.0,,,,828.2916994999996,1004,23,female,True
228,106.0,25,F,down,0.4167986000011296,1.4924310274782755,,experiment,emotion,0.0,,,,830.6082671999993,1004,23,female,True
229,110.0,25,F,down,0.4168248000005405,0.5621942245383835,,experiment,emotion,0.0,,,,831.8582188,1004,23,female,True
230,108.0,25,M,down,0.4673616000000038,0.8278226824844057,,experiment,emotion,0.0,,,,833.3915436999996,1004,23,female,True
231,104.0,25,F,down,0.3668785000008938,1.0542098778722715,,experiment,emotion,0.0,,,,835.1747725000005,1004,23,female,True
232,110.0,25,M,down,0.2834898000000976,1.2002100868375702,,experiment,emotion,0.0,,,,837.0580611000005,1004,23,female,True
233,108.0,25,M,down,0.4167749000007461,1.2850571307051042,,experiment,emotion,0.0,,,,839.0413083999993,1004,23,female,True
234,108.0,25,M,down,0.400197200000548,1.443624389462671,,experiment,emotion,0.0,,,,841.1745719999999,1004,23,female,True
235,104.0,25,M,down,0.4714084999995975,0.3943658100539599,,experiment,emotion,0.0,,,,842.2745309000002,1004,23,female,True
236,106.0,25,M,down,0.4001839000011387,0.6918731435336182,,experiment,emotion,0.0,,,,843.7077893999995,1004,23,female,True
237,110.0,25,F,up,0.5058721999994304,1.2566169112383525,,experiment,emotion,0.0,,,,845.6410809999998,1004,23,female,True
238,106.0,25,F,down,0.5199776999997994,1.966043110406892,,experiment,emotion,0.0,,,,848.3909334,1004,23,female,True
239,106.0,25,F,down,0.4170245999994222,1.563779557850343,,experiment,emotion,0.0,,,,850.740867999999,1004,23,female,True
240,106.0,25,M,down,0.7054434000001493,1.8741038797925,,experiment,emotion,0.0,,,,853.307475399999,1004,23,female,True
241,110.0,25,F,up,0.5168835999993462,1.460161055236632,,experiment,emotion,0.0,,,,855.7240729999994,1004,23,female,True
242,108.0,25,F,down,0.5672441999995499,0.9143714854882644,,experiment,emotion,0.0,,,,857.4406378999993,1004,23,female,True
243,104.0,25,F,down,0.5226922999991075,0.8752680534127266,,experiment,emotion,0.0,,,,859.1572338999995,1004,23,female,True
244,104.0,25,M,down,0.3668281999998726,0.6652885912576391,,experiment,emotion,0.0,,,,860.6071876999995,1004,23,female,True
245,108.0,25,F,up,0.4894133999987389,0.8547748930110994,,experiment,emotion,0.0,,,,862.1404810000004,1004,23,female,True
246,110.0,25,M,up,0.6545418000005157,1.6798925121775254,,experiment,emotion,0.0,,,,864.5903572999996,1004,23,female,True
247,110.0,25,M,up,0.6742190000004484,0.5686529468799826,,experiment,emotion,0.0,,,,866.0736281999998,1004,23,female,True
248,104.0,25,F,up,0.9066944000005606,1.419446759974584,,experiment,emotion,0.0,,,,868.4402219999993,1004,23,female,True
249,110.0,25,M,up,0.5334591999999247,0.3506094267746399,,experiment,emotion,0.0,,,,869.9734795999993,1004,23,female,True
250,106.0,25,F,down,0.5091500999988057,0.9607005889872162,,experiment,emotion,0.0,,,,871.7567600000002,1004,23,female,True
251,108.0,25,M,up,0.4166475999991235,1.0718322565627214,,experiment,emotion,0.0,,,,873.606679999999,1004,23,female,True
252,106.0,25,F,down,0.573953300001449,1.7505222722647784,,experiment,emotion,0.0,,,,876.0399450999994,1004,23,female,True
253,104.0,25,M,down,0.4670968000009452,1.665270181875372,,experiment,emotion,0.0,,,,878.5398401000002,1004,23,female,True
254,108.0,25,F,down,0.4167952999996487,1.994026351809327,,experiment,emotion,0.0,,,,881.2730683999998,1004,23,female,True
255,106.0,25,F,up,0.5879014000001916,1.055037489157738,,experiment,emotion,0.0,,,,883.0229977999988,1004,23,female,True
256,108.0,25,F,down,0.5414201999992656,0.6594591737790141,,experiment,emotion,0.0,,,,884.5394823000006,1004,23,female,True
257,104.0,25,F,up,0.4002048000002105,0.8710610358489965,,experiment,emotion,0.0,,,,886.2228698999988,1004,23,female,True
258,110.0,25,F,up,0.4537990999997419,1.8973165359190076,,experiment,emotion,0.0,,,,888.8061066999999,1004,23,female,True
259,108.0,25,M,up,0.4270030999996379,0.3747174428377986,,experiment,emotion,0.0,,,,889.9060862000006,1004,23,female,True
260,110.0,25,M,up,0.3335193999992043,0.4180899023273084,,experiment,emotion,0.0,,,,891.0227080999994,1004,23,female,True
261,104.0,25,M,down,0.8919411999995646,1.890515105391386,,experiment,emotion,0.0,,,,893.6059533999996,1004,23,female,True
262,106.0,25,M,down,0.636384999999791,1.8396659551790564,,experiment,emotion,0.0,,,,896.6224834000004,1004,23,female,True
263,0.114809122060399,25,up,down,0.547222299999703,0.566213796224372,,experiment,cRDM,0.0,,,,928.7546748000004,1004,23,female,True
264,0.114809122060399,25,up,up,0.4506805000000895,1.0145799481454254,,experiment,cRDM,0.0,,,,930.571242,1004,23,female,True
265,0.114809122060399,25,down,down,0.4002549000015278,1.6258672141626718,,experiment,cRDM,0.0,,,,932.904488,1004,23,female,True
266,0.114809122060399,25,down,up,0.4195579000006546,0.5221486671648263,,experiment,cRDM,0.0,,,,934.1044440999996,1004,23,female,True
267,0.114809122060399,25,up,up,0.4002504000000044,0.9322669707659972,,experiment,cRDM,0.0,,,,935.7043978999992,1004,23,female,True
268,0.114809122060399,25,down,down,0.3838747999998304,0.4557589327090014,,experiment,cRDM,0.0,,,,936.8376143999994,1004,23,female,True
269,0.114809122060399,25,up,up,0.6023948000001837,0.321537503910226,,experiment,cRDM,0.0,,,,937.8375674999988,1004,23,female,True
270,0.114809122060399,25,up,down,0.3171483000005537,0.5532329228490063,,experiment,cRDM,0.0,,,,939.2542892999992,1004,23,female,True
271,0.114809122060399,25,down,down,0.5410366000014619,0.4959872154447572,,experiment,cRDM,0.0,,,,940.420866299999,1004,23,female,True
272,0.114809122060399,25,down,down,0.3838402000001224,1.6279919028126244,,experiment,cRDM,0.0,,,,942.8541451,1004,23,female,True
273,0.114809122060399,25,down,down,0.3673179999987042,0.7433814954491036,,experiment,cRDM,0.0,,,,944.2874078000004,1004,23,female,True
274,0.114809122060399,25,down,down,0.4428373999999166,1.2148127797598292,,experiment,cRDM,0.0,,,,946.1873106999992,1004,23,female,True
275,0.114809122060399,25,down,down,0.3504942999988998,0.6828895177395427,,experiment,cRDM,0.0,,,,947.5706228,1004,23,female,True
276,0.114809122060399,25,down,down,0.3671713999992789,0.4493408718025719,,experiment,cRDM,0.0,,,,948.7039069000002,1004,23,female,True
277,0.114809122060399,25,up,down,0.4002596999998786,1.754301119814142,,experiment,cRDM,0.0,,,,951.1370109999988,1004,23,female,True
278,0.114809122060399,25,up,up,0.9594987999989826,1.7572344250655765,,experiment,cRDM,0.0,,,,953.5703947999992,1004,23,female,True
279,0.114809122060399,25,up,down,0.4969216999998025,1.9998493488324431,,experiment,cRDM,0.0,,,,956.7869441999992,1004,23,female,True
280,0.114809122060399,25,up,down,0.6678442000011273,1.2157609921863992,,experiment,cRDM,0.0,,,,958.7702090999992,1004,23,female,True
281,0.114809122060399,25,down,down,0.7244558000002144,1.8634871890655589,,experiment,cRDM,0.0,,,,961.5534544999992,1004,23,female,True
282,0.114809122060399,25,up,up,0.6372670000000653,1.8841385639462027,,experiment,cRDM,0.0,,,,964.436592099999,1004,23,female,True
283,0.114809122060399,25,up,down,0.4594625999998243,1.5101611263000971,,experiment,cRDM,0.0,,,,966.8364781,1004,23,female,True
284,0.114809122060399,25,down,down,0.4416655000004539,0.7984607558032331,,experiment,cRDM,0.0,,,,968.3532185000004,1004,23,female,True
285,0.114809122060399,25,up,up,0.6071158999984618,1.8115922380893137,,experiment,cRDM,0.0,,,,970.8697620000004,1004,23,female,True
286,0.114809122060399,25,down,down,0.5552012999996805,0.977150372421463,,experiment,cRDM,0.0,,,,972.7196611,1004,23,female,True
287,0.114809122060399,25,down,down,0.6653072000008251,1.5834351855657056,,experiment,cRDM,0.0,,,,975.1195917000005,1004,23,female,True
288,0.114809122060399,25,up,up,0.498087599999053,1.046318450978314,,experiment,cRDM,0.0,,,,977.1028389999992,1004,23,female,True
289,0.114809122060399,25,up,up,0.6661635000000388,1.4348738728042598,,experiment,cRDM,0.0,,,,979.302778199999,1004,23,female,True
290,0.114809122060399,25,down,down,0.4728520999997272,1.2544031092258083,,experiment,cRDM,0.0,,,,981.4860597000006,1004,23,female,True
291,0.114809122060399,25,up,down,0.6036012999993545,1.5468863548805123,,experiment,cRDM,0.0,,,,983.7692769000004,1004,23,female,True
292,0.114809122060399,25,down,down,0.3671274999996967,0.4908923420853055,,experiment,cRDM,0.0,,,,985.1359125,1004,23,female,True
293,0.114809122060399,25,down,down,0.4002780000009807,1.8759027747979813,,experiment,cRDM,0.0,,,,987.6858037000002,1004,23,female,True
294,0.114809122060399,25,down,down,0.4501565999999002,0.8169151815721478,,experiment,cRDM,0.0,,,,989.1857381999998,1004,23,female,True
295,0.114809122060399,25,up,up,0.5122377000006963,0.8827689776860548,,experiment,cRDM,0.0,,,,990.785697199999,1004,23,female,True
296,0.114809122060399,25,up,up,0.5455505999998422,0.7523601096863431,,experiment,cRDM,0.0,,,,992.3023214000004,1004,23,female,True
297,0.114809122060399,25,up,up,0.5889739000012923,0.7204935624415127,,experiment,cRDM,0.0,,,,993.8188974000004,1004,23,female,True
298,0.114809122060399,25,down,down,0.4497439000006125,1.371412533176687,,experiment,cRDM,0.0,,,,996.0521585000006,1004,23,female,True
299,0.114809122060399,25,down,down,0.383891899999071,0.7809508677677468,,experiment,cRDM,0.0,,,,997.5520717,1004,23,female,True
300,0.114809122060399,25,up,down,0.3672034999999596,0.6492336962974445,,experiment,cRDM,0.0,,,,998.8853780999998,1004,23,female,True
301,0.114809122060399,25,down,down,0.7545504999998229,1.228717591375989,,experiment,cRDM,0.0,,,,1000.7853200999998,1004,23,female,True
302,0.114809122060399,25,up,up,0.4483045999986643,0.4096868882057849,,experiment,cRDM,0.0,,,,1002.2185977999998,1004,23,female,True
303,0.114809122060399,25,up,up,0.42097079999985,0.9756947231887474,,experiment,cRDM,0.0,,,,1003.9018825000004,1004,23,female,True
304,0.114809122060399,25,up,up,0.5844701999994868,1.3119619397520237,,experiment,cRDM,0.0,,,,1005.9184394999992,1004,23,female,True
305,0.114809122060399,25,down,up,0.6840847999992548,1.2751428834075142,,experiment,cRDM,0.0,,,,1008.0517311999992,1004,23,female,True
306,0.114809122060399,25,down,up,1.0032217999996649,0.8665458339282901,,experiment,cRDM,0.0,,,,1009.8516545000002,1004,23,female,True
307,0.114809122060399,25,up,up,0.4564761999990878,0.5287435987858142,,experiment,cRDM,0.0,,,,1011.6515736,1004,23,female,True
308,0.114809122060399,25,down,up,0.6683438999989448,1.7917213556513492,,experiment,cRDM,0.0,,,,1014.1514912000002,1004,23,female,True
309,0.114809122060399,25,down,down,0.5077290000008361,1.1297982890705034,,experiment,cRDM,0.0,,,,1016.218094599999,1004,23,female,True
310,0.114809122060399,25,up,down,0.4168278000015561,1.808983276497714,,experiment,cRDM,0.0,,,,1018.8013047000004,1004,23,female,True
311,0.114809122060399,25,up,down,0.3338298999988183,1.86186907602868,,experiment,cRDM,0.0,,,,1021.3345324999992,1004,23,female,True
312,0.114809122060399,25,down,down,0.6910855999994965,0.8048541686866253,,experiment,cRDM,0.0,,,,1022.8178155000004,1004,23,female,True
313,0.114809122060399,25,up,up,0.5194658000000345,1.4278505217493584,,experiment,cRDM,0.0,,,,1025.1844027000006,1004,23,female,True
314,0.114809122060399,25,down,down,0.7025639000003139,1.9264185176174216,,experiment,cRDM,0.0,,,,1027.8843091,1004,23,female,True
315,0.114809122060399,25,down,up,0.5183144000002358,0.8704513063833113,,experiment,cRDM,0.0,,,,1029.7175833,1004,23,female,True
316,0.114809122060399,25,down,up,0.5069743000003655,1.3446469060273345,,experiment,cRDM,0.0,,,,1031.8508476999996,1004,23,female,True
317,0.114809122060399,25,up,up,0.5714738999995461,1.8832100671083327,,experiment,cRDM,0.0,,,,1034.517386399999,1004,23,female,True
318,0.114809122060399,25,up,up,0.7068588999991334,1.6285876691936445,,experiment,cRDM,0.0,,,,1036.9839845000006,1004,23,female,True
319,0.114809122060399,25,down,up,0.5699619999995775,1.1972774611865118,,experiment,cRDM,0.0,,,,1039.1339024999995,1004,23,female,True
320,0.114809122060399,25,down,down,0.5840298000002804,1.480077487581821,,experiment,cRDM,0.0,,,,1041.4338415000002,1004,23,female,True
321,0.114809122060399,25,up,down,0.3838455999994039,0.6715513334386276,,experiment,cRDM,0.0,,,,1042.9504070000005,1004,23,female,True
322,0.114809122060399,25,up,up,0.4167768999996042,1.517606393141125,,experiment,cRDM,0.0,,,,1045.1337086000003,1004,23,female,True
323,0.114809122060399,25,up,up,0.765602299999955,1.4557958453170825,,experiment,cRDM,0.0,,,,1047.2502759999988,1004,23,female,True
324,0.114809122060399,25,up,up,0.4683483999997406,1.197238580985341,,experiment,cRDM,0.0,,,,1049.4834984999998,1004,23,female,True
325,0.114809122060399,25,up,up,0.5144927999990614,0.6156869001605656,,experiment,cRDM,0.0,,,,1050.8334161999992,1004,23,female,True
326,0.114809122060399,25,down,down,0.6851650999997219,1.8647057694680065,,experiment,cRDM,0.0,,,,1053.4666961999992,1004,23,female,True
327,0.114809122060399,25,down,up,0.7059601999990264,1.6743463138544104,,experiment,cRDM,0.0,,,,1056.0999264000002,1004,23,female,True
328,0.114809122060399,25,up,up,0.7326956999986578,1.423642066516657,,experiment,cRDM,0.0,,,,1058.4831658000005,1004,23,female,True
329,0.114809122060399,25,down,down,0.4537235000007058,0.551807457170203,,experiment,cRDM,0.0,,,,1060.0331379,1004,23,female,True
330,0.114809122060399,25,down,up,0.557728900001166,1.2654759022518949,,experiment,cRDM,0.0,,,,1062.016159499999,1004,23,female,True
331,0.114809122060399,25,down,down,0.3838598999991518,1.9178064232792515,,experiment,cRDM,0.0,,,,1064.7496047000004,1004,23,female,True
332,0.114809122060399,25,up,up,0.5969433000009303,0.3889421866727788,,experiment,cRDM,0.0,,,,1065.8329371,1004,23,female,True
333,0.114809122060399,25,down,down,0.5527321999998094,1.763743565977921,,experiment,cRDM,0.0,,,,1068.4661211000002,1004,23,female,True
334,0.114809122060399,25,down,up,0.6728020999998989,1.3846698447152506,,experiment,cRDM,0.0,,,,1070.6660644999993,1004,23,female,True
335,0.114809122060399,25,down,down,0.5805634000007558,1.460289709999932,,experiment,cRDM,0.0,,,,1073.0492909999994,1004,23,female,True
336,0.114809122060399,25,up,up,0.4189549999991868,1.7409334166399144,,experiment,cRDM,0.0,,,,1075.615900499999,1004,23,female,True
337,0.114809122060399,25,up,down,0.4003732999990461,1.7294752511176927,,experiment,cRDM,0.0,,,,1078.0323952,1004,23,female,True
338,0.114809122060399,25,down,down,0.4168449999997392,1.87742335013763,,experiment,cRDM,0.0,,,,1080.5823459000003,1004,23,female,True
339,0.114809122060399,25,up,up,0.438841199998933,1.9174567910608844,,experiment,cRDM,0.0,,,,1083.1822584,1004,23,female,True
340,0.114809122060399,25,down,down,0.4167998000011721,1.0068009786641636,,experiment,cRDM,0.0,,,,1084.8822,1004,23,female,True
341,0.114809122060399,25,up,up,0.4002644000011059,1.4129822389302416,,experiment,cRDM,0.0,,,,1086.9821140000004,1004,23,female,True
342,0.114809122060399,25,up,down,0.4169133999985206,0.3713335384801822,,experiment,cRDM,0.0,,,,1088.0319944999992,1004,23,female,True
343,110.0,25,M,down,0.4525964000004023,1.3687878464209728,,experiment,emotion,1.0,,,,1144.1633481999995,1004,23,female,True
344,104.0,25,M,down,0.4169303000016953,1.3306469848191222,,experiment,emotion,1.0,,,,1146.2298838000006,1004,23,female,True
345,108.0,25,F,down,0.4359395999999833,0.8573474758370812,,experiment,emotion,1.0,,,,1147.7798839999996,1004,23,female,True
346,110.0,25,F,up,0.5010672000007617,1.2930599018877866,,experiment,emotion,1.0,,,,1149.7798041000003,1004,23,female,True
347,108.0,25,M,up,0.4608431999986351,1.9609470171620225,,experiment,emotion,1.0,,,,1152.513005499999,1004,23,female,True
348,106.0,25,F,up,0.4485893000000942,0.4005703300832235,,experiment,emotion,1.0,,,,1153.6463131,1004,23,female,True
349,104.0,25,M,down,0.6005972000002657,1.1931816573151777,,experiment,emotion,1.0,,,,1155.5462387999996,1004,23,female,True
350,106.0,25,M,down,0.4536799999987124,1.0713218428526812,,experiment,emotion,1.0,,,,1157.496164799999,1004,23,female,True
351,110.0,25,F,down,0.5161012999997183,1.937202097715209,,experiment,emotion,1.0,,,,1160.1627470999993,1004,23,female,True
352,106.0,25,F,down,0.7418263999988994,1.3926756977422363,,experiment,emotion,1.0,,,,1162.3459968999996,1004,23,female,True
353,108.0,25,F,down,0.4735677000007854,0.9291452383192778,,experiment,emotion,1.0,,,,1164.2792721999997,1004,23,female,True
354,110.0,25,F,down,0.4306245000007038,1.0049755610624167,,experiment,emotion,1.0,,,,1166.0291980000002,1004,23,female,True
355,108.0,25,F,down,0.5786939000008715,0.5918877901139304,,experiment,emotion,1.0,,,,1167.3291455,1004,23,female,True
356,104.0,25,F,down,0.5895651999999245,1.523078241154659,,experiment,emotion,1.0,,,,1169.7123095999996,1004,23,female,True
357,106.0,25,M,up,0.5288729999992938,1.7552992821061548,,experiment,emotion,1.0,,,,1172.3289583000003,1004,23,female,True
358,104.0,25,M,down,0.5009815000012168,0.8971815131699046,,experiment,emotion,1.0,,,,1174.0289035999997,1004,23,female,True
359,110.0,25,M,down,0.427360800000315,0.8378496872039862,,experiment,emotion,1.0,,,,1175.6455012000006,1004,23,female,True
360,104.0,25,M,up,0.5360040999985358,1.291787868052963,,experiment,emotion,1.0,,,,1177.6288382999992,1004,23,female,True
361,108.0,25,F,up,0.5431752999993478,1.9497545254146835,,experiment,emotion,1.0,,,,1180.3786612999993,1004,23,female,True
362,108.0,25,M,down,0.3668576999989454,1.6017554032788273,,experiment,emotion,1.0,,,,1182.7785693999997,1004,23,female,True
363,106.0,25,M,down,0.503326999998535,1.3008175191913536,,experiment,emotion,1.0,,,,1184.7785033,1004,23,female,True
364,106.0,25,F,down,0.5467644999989716,1.897647476944337,,experiment,emotion,1.0,,,,1187.4450720000004,1004,23,female,True
365,104.0,25,M,up,0.5732213999999658,1.8997875305367968,,experiment,emotion,1.0,,,,1190.1616211,1004,23,female,True
366,110.0,25,F,up,0.6492804000008618,1.4445591491944445,,experiment,emotion,1.0,,,,1192.4615369000005,1004,23,female,True
367,108.0,25,F,up,0.6803597999987687,0.7690485752916361,,experiment,emotion,1.0,,,,1194.1614740000005,1004,23,female,True
368,104.0,25,M,up,0.5058533999999781,0.3201409343123627,,experiment,emotion,1.0,,,,1195.4279831999993,1004,23,female,True
369,110.0,25,M,down,0.4167820999991818,1.7320312210062272,,experiment,emotion,1.0,,,,1197.9280072,1004,23,female,True
370,110.0,25,F,up,0.6159191999995528,1.2750339839871805,,experiment,emotion,1.0,,,,1199.8779310999998,1004,23,female,True
371,106.0,25,M,down,0.7203119000005245,0.6215727742092536,,experiment,emotion,1.0,,,,1201.3945335999997,1004,23,female,True
372,104.0,25,F,up,0.4883372000003874,1.1487992470760904,,experiment,emotion,1.0,,,,1203.5444945,1004,23,female,True
373,106.0,25,F,down,0.5351384000023245,0.3804001716880444,,experiment,emotion,1.0,,,,1204.6777457000007,1004,23,female,True
374,108.0,25,F,up,0.5798131999981706,0.8230233208045654,,experiment,emotion,1.0,,,,1206.3110165999988,1004,23,female,True
375,104.0,25,M,up,0.4855553999987023,0.6895485284564915,,experiment,emotion,1.0,,,,1207.8443102,1004,23,female,True
376,110.0,25,M,up,0.4251628000019991,0.3291924317290104,,experiment,emotion,1.0,,,,1208.9275851000002,1004,23,female,True
377,108.0,25,M,up,0.416850900001009,0.3271716495282375,,experiment,emotion,1.0,,,,1209.9609007999989,1004,23,female,True
378,110.0,25,F,down,0.5253555000017514,1.02363727861434,,experiment,emotion,1.0,,,,1211.6775094999994,1004,23,female,True
379,104.0,25,F,down,0.7627694999973755,1.468355603757591,,experiment,emotion,1.0,,,,1213.9440831999982,1004,23,female,True
380,108.0,25,M,up,0.6554985999973724,0.8942259529897096,,experiment,emotion,1.0,,,,1215.8773304000006,1004,23,female,True
381,106.0,25,F,down,0.6018955999970785,0.7963332229507949,,experiment,emotion,1.0,,,,1217.593933400001,1004,23,female,True
382,106.0,25,M,up,0.5926328999994439,1.960214097715119,,experiment,emotion,1.0,,,,1220.4271927999998,1004,23,female,True
383,108.0,25,M,up,0.5347115999975358,1.797728856057229,,experiment,emotion,1.0,,,,1223.077072099999,1004,23,female,True
384,110.0,25,M,up,0.3501426999973773,0.4956686208711843,,experiment,emotion,1.0,,,,1224.360383199999,1004,23,female,True
385,106.0,25,F,down,0.4789060000002791,0.4436851946133924,,experiment,emotion,1.0,,,,1225.476979699999,1004,23,female,True
386,104.0,25,F,up,0.6036745999990671,1.2887981914209676,,experiment,emotion,1.0,,,,1227.5102248999992,1004,23,female,True
387,104.0,25,M,up,0.7537234000010358,1.873007032296626,,experiment,emotion,1.0,,,,1230.2601175,1004,23,female,True
388,106.0,25,F,up,0.6631398999998055,1.748190399566958,,experiment,emotion,1.0,,,,1233.0267007999992,1004,23,female,True
389,110.0,25,F,up,0.5865673000007519,1.170504808827293,,experiment,emotion,1.0,,,,1235.143291899998,1004,23,female,True
390,108.0,25,M,down,0.6992764999995416,1.7604750824292743,,experiment,emotion,1.0,,,,1237.776534399998,1004,23,female,True
391,104.0,25,M,down,0.5106990000022051,0.4482514019933326,,experiment,emotion,1.0,,,,1239.193128599998,1004,23,female,True
392,110.0,25,F,up,0.5930640000005951,0.3759606636542044,,experiment,emotion,1.0,,,,1240.359759599998,1004,23,female,True
393,108.0,25,M,up,0.5132223000000522,1.9201641326439092,,experiment,emotion,1.0,,,,1243.1596498999988,1004,23,female,True
394,108.0,25,F,up,0.6329949000028137,1.5702447594431264,,experiment,emotion,1.0,,,,1245.5098286000011,1004,23,female,True
395,104.0,25,F,down,0.643307399997866,0.3379313212131284,,experiment,emotion,1.0,,,,1246.759531400001,1004,23,female,True
396,106.0,25,F,up,0.4950876000002608,1.797733766702191,,experiment,emotion,1.0,,,,1249.4927415000002,1004,23,female,True
397,110.0,25,M,up,0.6027486000020872,0.5617931121063844,,experiment,emotion,1.0,,,,1250.8260605000014,1004,23,female,True
398,106.0,25,M,up,0.5995652000019618,1.7615583907463863,,experiment,emotion,1.0,,,,1253.459281999998,1004,23,female,True
399,106.0,25,F,down,0.5202566000007209,0.5035247742172372,,experiment,emotion,1.0,,,,1254.8425697000002,1004,23,female,True
400,106.0,25,F,up,0.5546657000013511,1.9445383558458456,,experiment,emotion,1.0,,,,1257.5591342999996,1004,23,female,True
401,110.0,25,M,down,0.7181124000017007,1.3379087210927247,,experiment,emotion,1.0,,,,1259.7257314,1004,23,female,True
402,108.0,25,M,up,0.4608569999982137,1.5274334342850704,,experiment,emotion,1.0,,,,1262.2589615000015,1004,23,female,True
403,104.0,25,M,up,0.5606184999996913,1.0041110317324182,,experiment,emotion,1.0,,,,1263.9922035,1004,23,female,True
404,104.0,25,M,up,0.4276130999969609,0.727520901534477,,experiment,emotion,1.0,,,,1265.542187099998,1004,23,female,True
405,108.0,25,M,up,0.4967619000017294,0.4647159191145876,,experiment,emotion,1.0,,,,1266.6921010999995,1004,23,female,True
406,110.0,25,F,up,0.5714922000006482,0.8207334938374466,,experiment,emotion,1.0,,,,1268.2753948000009,1004,23,female,True
407,110.0,25,F,up,0.4421619999993709,1.8494136488410728,,experiment,emotion,1.0,,,,1270.9586397000005,1004,23,female,True
408,104.0,25,M,up,0.5569593000000168,1.4271488774187615,,experiment,emotion,1.0,,,,1273.0918841000002,1004,23,female,True
409,110.0,25,F,down,0.4790207000005466,1.1249861921069737,,experiment,emotion,1.0,,,,1275.0418311000012,1004,23,female,True
410,106.0,25,F,down,0.4166298000018287,1.0984442864909754,,experiment,emotion,1.0,,,,1276.9084219999986,1004,23,female,True
411,108.0,25,F,down,0.4375174999986484,1.961764196475901,,experiment,emotion,1.0,,,,1279.5583046999982,1004,23,female,True
412,106.0,25,M,down,0.4608912000003329,0.5091752407014033,,experiment,emotion,1.0,,,,1280.774930499998,1004,23,female,True
413,104.0,25,F,down,0.3835398000010173,0.5456081772151324,,experiment,emotion,1.0,,,,1282.0582062000012,1004,23,female,True
414,108.0,25,F,up,0.3836712000011175,1.56711502960189,,experiment,emotion,1.0,,,,1284.3246539999982,1004,23,female,True
415,106.0,25,F,down,0.6037780000006023,1.1846163982667126,,experiment,emotion,1.0,,,,1286.208038499999,1004,23,female,True
416,108.0,25,M,down,0.5735763000011502,1.452825327348233,,experiment,emotion,1.0,,,,1288.5413352999983,1004,23,female,True
417,104.0,25,M,down,0.4535729000017454,1.311085524908506,,experiment,emotion,1.0,,,,1290.6912219999997,1004,23,female,True
418,110.0,25,F,down,0.442302200000995,0.9308846068463968,,experiment,emotion,1.0,,,,1292.3745151999992,1004,23,female,True
419,108.0,25,M,down,0.4654113999968103,1.6361096628540364,,experiment,emotion,1.0,,,,1294.7244130999989,1004,23,female,True
420,110.0,25,F,down,0.5435350999978255,0.5109383988904945,,experiment,emotion,1.0,,,,1295.974407399999,1004,23,female,True
421,104.0,25,M,down,0.5692149000024074,1.957780703127797,,experiment,emotion,1.0,,,,1298.7576000999998,1004,23,female,True
422,106.0,25,M,down,0.4222358000006352,0.5901957947618763,,experiment,emotion,1.0,,,,1300.2075229999991,1004,23,female,True
423,0.114809122060399,25,up,up,0.6841582999986713,1.934762544087727,,experiment,cRDM,1.0,,,,1343.3226449999984,1004,23,female,True
424,0.114809122060399,25,up,up,0.4856418999988818,1.4449466160086637,,experiment,cRDM,1.0,,,,1345.722521900001,1004,23,female,True
425,0.114809122060399,25,down,up,0.4002561999986938,1.1155865276743857,,experiment,cRDM,1.0,,,,1347.5724685000005,1004,23,female,True
426,0.114809122060399,25,down,down,0.3672331999987364,1.6495262078170885,,experiment,cRDM,1.0,,,,1349.889023400001,1004,23,female,True
427,0.114809122060399,25,up,down,0.3838636999971641,1.9393649211272468,,experiment,cRDM,1.0,,,,1352.5055828999994,1004,23,female,True
428,0.114809122060399,25,down,down,0.3838430000032531,1.510642821700528,,experiment,cRDM,1.0,,,,1354.6888418,1004,23,female,True
429,0.114809122060399,25,up,down,0.3671401999999943,0.6078229853593831,,experiment,cRDM,1.0,,,,1355.9721512000017,1004,23,female,True
430,0.114809122060399,25,up,up,0.6764929999990272,1.3525226281403384,,experiment,cRDM,1.0,,,,1358.0053051999985,1004,23,female,True
431,0.114809122060399,25,down,down,0.4280689999977767,0.7504902229169956,,experiment,cRDM,1.0,,,,1359.6886891000013,1004,23,female,True
432,0.114809122060399,25,down,down,0.4494511999982933,0.5786933900278338,,experiment,cRDM,1.0,,,,1360.9552969999986,1004,23,female,True
433,0.114809122060399,25,down,down,0.4372645999974338,1.9682456729601807,,experiment,cRDM,1.0,,,,1363.6385346000006,1004,23,female,True
434,0.114809122060399,25,down,up,0.4716964999970514,1.31684896219448,,experiment,cRDM,1.0,,,,1365.6551223000006,1004,23,female,True
435,0.114809122060399,25,down,down,0.4458762000031129,0.5271008750946251,,experiment,cRDM,1.0,,,,1366.9049265000012,1004,23,female,True
436,0.114809122060399,25,down,down,0.4167784999990545,0.7038586673899632,,experiment,cRDM,1.0,,,,1368.321726100001,1004,23,female,True
437,0.114809122060399,25,up,down,0.4168063999968581,1.53344638593751,,experiment,cRDM,1.0,,,,1370.538294,1004,23,female,True
438,0.114809122060399,25,up,down,0.4705769000029249,0.9759485148422712,,experiment,cRDM,1.0,,,,1372.1882220999996,1004,23,female,True
439,0.114809122060399,25,up,down,0.6953004999995755,0.6975734709025567,,experiment,cRDM,1.0,,,,1373.6214753000004,1004,23,female,True
440,0.114809122060399,25,up,up,0.4424163000003318,1.9898960202746816,,experiment,cRDM,1.0,,,,1376.5713691,1004,23,female,True
441,0.114809122060399,25,down,down,0.3171810000021651,1.9676551490112195,,experiment,cRDM,1.0,,,,1379.2546254999995,1004,23,female,True
442,0.114809122060399,25,up,up,0.4949673000010079,1.7067285597679387,,experiment,cRDM,1.0,,,,1381.6378647,1004,23,female,True
443,0.114809122060399,25,up,down,0.3505708000011509,1.936036735551898,,experiment,cRDM,1.0,,,,1384.3210697999984,1004,23,female,True
444,0.114809122060399,25,down,down,0.4440558000023884,0.4824361172185527,,experiment,cRDM,1.0,,,,1385.4877117000017,1004,23,female,True
445,0.114809122060399,25,up,down,0.4167852999999013,1.6538593734865188,,experiment,cRDM,1.0,,,,1387.8542940999996,1004,23,female,True
446,0.114809122060399,25,down,down,0.4581713000006857,0.9489756189236768,,experiment,cRDM,1.0,,,,1389.4709003000007,1004,23,female,True
447,0.114809122060399,25,down,down,0.4002322999986063,0.4554936190540809,,experiment,cRDM,1.0,,,,1390.6375804,1004,23,female,True
448,0.114809122060399,25,up,down,0.4789964000010513,0.7608529983059313,,experiment,cRDM,1.0,,,,1392.0708102000008,1004,23,female,True
449,0.114809122060399,25,up,down,0.4190543000004254,0.7227159334418571,,experiment,cRDM,1.0,,,,1393.5207619000012,1004,23,female,True
450,0.114809122060399,25,down,down,0.4167932000018481,1.6007266870026136,,experiment,cRDM,1.0,,,,1395.7873185000008,1004,23,female,True
451,0.114809122060399,25,up,up,0.4742488999982015,1.307291460284654,,experiment,cRDM,1.0,,,,1397.7705799000014,1004,23,female,True
452,0.114809122060399,25,down,down,0.3838188999980048,1.109547606396111,,experiment,cRDM,1.0,,,,1399.6205584,1004,23,female,True
453,0.114809122060399,25,down,down,0.5773502000010922,1.917175263535804,,experiment,cRDM,1.0,,,,1402.2204526000005,1004,23,female,True
454,0.114809122060399,25,down,down,0.467466099999001,1.0059938257605994,,experiment,cRDM,1.0,,,,1404.070359299998,1004,23,female,True
455,0.114809122060399,25,up,down,0.4514009000013175,1.916714989949525,,experiment,cRDM,1.0,,,,1406.7034417000011,1004,23,female,True
456,0.114809122060399,25,up,down,0.4669959999991988,0.9647813788219848,,experiment,cRDM,1.0,,,,1408.3868286000015,1004,23,female,True
457,0.114809122060399,25,up,down,0.5149802999985695,0.3755068686019089,,experiment,cRDM,1.0,,,,1409.4868176,1004,23,female,True
458,0.114809122060399,25,down,down,0.4002493000007234,1.6012726562653803,,experiment,cRDM,1.0,,,,1411.8700737999989,1004,23,female,True
459,0.114809122060399,25,down,down,0.4004328999981226,1.142508470082216,,experiment,cRDM,1.0,,,,1413.6866629000017,1004,23,female,True
460,0.114809122060399,25,up,down,0.4405986999991,1.7377181203700147,,experiment,cRDM,1.0,,,,1416.1031934000002,1004,23,female,True
461,0.114809122060399,25,down,down,0.4416195999983756,1.3419683616873008,,experiment,cRDM,1.0,,,,1418.1531792000003,1004,23,female,True
462,0.114809122060399,25,up,down,0.5080376000005344,1.3614615374531274,,experiment,cRDM,1.0,,,,1420.2197958000015,1004,23,female,True
463,0.114809122060399,25,up,down,0.4377977999974973,0.513135198400096,,experiment,cRDM,1.0,,,,1421.503010399998,1004,23,female,True
464,0.114809122060399,25,up,down,0.4002791000020806,1.8719739290677768,,experiment,cRDM,1.0,,,,1424.0696253000006,1004,23,female,True
465,0.114809122060399,25,down,down,0.5406108999995922,1.2877603752455646,,experiment,cRDM,1.0,,,,1426.036203900001,1004,23,female,True
466,0.114809122060399,25,down,down,0.4356645999978354,0.8608587730708543,,experiment,cRDM,1.0,,,,1427.6861601,1004,23,female,True
467,0.114809122060399,25,up,down,0.4353761000020313,0.4909098623687825,,experiment,cRDM,1.0,,,,1428.8694422999995,1004,23,female,True
468,0.114809122060399,25,down,down,0.488693899998907,0.3656693023362264,,experiment,cRDM,1.0,,,,1429.9360687999997,1004,23,female,True
469,0.114809122060399,25,down,down,0.4608244000010018,1.1073526174757988,,experiment,cRDM,1.0,,,,1431.7860046000003,1004,23,female,True
470,0.114809122060399,25,up,up,0.5477702000025602,0.9282724513045012,,experiment,cRDM,1.0,,,,1433.435996099999,1004,23,female,True
471,0.114809122060399,25,up,down,0.4678819000000658,1.9786062872070964,,experiment,cRDM,1.0,,,,1436.2358544,1004,23,female,True
472,0.114809122060399,25,down,down,0.5460506999988866,1.6167013957508136,,experiment,cRDM,1.0,,,,1438.585728600001,1004,23,female,True
473,0.114809122060399,25,up,down,0.4002475999986927,0.9570820243483108,,experiment,cRDM,1.0,,,,1440.3523627999984,1004,23,female,True
474,0.114809122060399,25,down,down,0.628484999997454,0.9240150751814884,,experiment,cRDM,1.0,,,,1441.952298999999,1004,23,female,True
475,0.114809122060399,25,down,down,0.5905265000001236,0.4067760449498384,,experiment,cRDM,1.0,,,,1443.252260700001,1004,23,female,True
476,0.114809122060399,25,down,up,0.7269209999976738,0.3695035426648495,,experiment,cRDM,1.0,,,,1444.4688590999997,1004,23,female,True
477,0.114809122060399,25,up,down,0.3838214999996125,0.6492600670600959,,experiment,cRDM,1.0,,,,1446.1021354999991,1004,23,female,True
478,0.114809122060399,25,up,down,0.5243766999992658,1.081443205718308,,experiment,cRDM,1.0,,,,1447.885393999999,1004,23,female,True
479,0.114809122060399,25,down,down,0.4470994000002974,0.6089927142178811,,experiment,cRDM,1.0,,,,1449.2687088000002,1004,23,female,True
480,0.114809122060399,25,down,down,0.4195404000020062,1.7562105515904454,,experiment,cRDM,1.0,,,,1451.7352665999988,1004,23,female,True
481,0.114809122060399,25,up,up,0.5909499999979744,0.5745582030319932,,experiment,cRDM,1.0,,,,1453.0018404999992,1004,23,female,True
482,0.114809122060399,25,up,up,0.6326343000000634,0.8291452696154897,,experiment,cRDM,1.0,,,,1454.6851767999997,1004,23,female,True
483,0.114809122060399,25,up,down,0.5301642999984324,1.829565637641542,,experiment,cRDM,1.0,,,,1457.401620399998,1004,23,female,True
484,0.114809122060399,25,up,up,0.581760299999587,0.4444878624733789,,experiment,cRDM,1.0,,,,1458.6350221999985,1004,23,female,True
485,0.114809122060399,25,up,down,0.4982352000006358,0.3597071539230382,,experiment,cRDM,1.0,,,,1459.8516344,1004,23,female,True
486,0.114809122060399,25,down,down,0.5572167999998783,1.1402978027579207,,experiment,cRDM,1.0,,,,1461.7515574000008,1004,23,female,True
487,0.114809122060399,25,down,down,0.4516538000025321,1.2999009668171284,,experiment,cRDM,1.0,,,,1463.868150799999,1004,23,female,True
488,0.114809122060399,25,up,up,0.5433163000016066,0.407230300139617,,experiment,cRDM,1.0,,,,1465.0014648999986,1004,23,female,True
489,0.114809122060399,25,down,down,0.4229048999986844,1.4708143657028847,,experiment,cRDM,1.0,,,,1467.2680194000004,1004,23,female,True
490,0.114809122060399,25,down,down,0.4168991999977152,1.316165095846907,,experiment,cRDM,1.0,,,,1469.2679488999984,1004,23,female,True
491,0.114809122060399,25,down,up,0.3838197999975818,0.7286327989402004,,experiment,cRDM,1.0,,,,1470.6678980000015,1004,23,female,True
492,0.114809122060399,25,up,down,0.3838541000004625,1.52311195413539,,experiment,cRDM,1.0,,,,1472.8844690999997,1004,23,female,True
493,0.114809122060399,25,down,up,0.5207392999982403,0.7364262621517372,,experiment,cRDM,1.0,,,,1474.3010403999997,1004,23,female,True
494,0.114809122060399,25,down,down,0.4168012999980419,1.834980056818047,,experiment,cRDM,1.0,,,,1476.9176764999993,1004,23,female,True
495,0.114809122060399,25,down,down,0.4645881000033114,1.5996283048141882,,experiment,cRDM,1.0,,,,1479.184234800001,1004,23,female,True
496,0.114809122060399,25,up,up,0.5258838000008836,0.8388649909998895,,experiment,cRDM,1.0,,,,1480.750861999999,1004,23,female,True
497,0.114809122060399,25,up,up,0.8669989000009082,0.7581108161750802,,experiment,cRDM,1.0,,,,1482.3007572000006,1004,23,female,True
498,0.114809122060399,25,down,down,0.4168132999984664,1.001531464778609,,experiment,cRDM,1.0,,,,1484.4340544999995,1004,23,female,True
499,0.114809122060399,25,up,up,0.4348397999965527,1.3581406256168214,,experiment,cRDM,1.0,,,,1486.4839626000012,1004,23,female,True
500,0.114809122060399,25,down,down,0.3838345000003755,1.6009542899199756,,experiment,cRDM,1.0,,,,1488.7838828000004,1004,23,female,True
501,0.114809122060399,25,up,up,0.550421700001607,1.236346791118338,,experiment,cRDM,1.0,,,,1490.700350099998,1004,23,female,True
502,0.114809122060399,25,up,up,0.5000030000010156,0.4636146608748316,,experiment,cRDM,1.0,,,,1491.9837549999993,1004,23,female,True
503,110.0,25,M,down,0.4520824999999604,1.60271948348328,,experiment,emotion,2.0,,,,1530.8156997999995,1004,23,female,True
504,104.0,25,M,down,0.5124842000004719,1.6301041613402592,,experiment,emotion,2.0,,,,1533.1822755999983,1004,23,female,True
505,108.0,25,F,up,0.5852424000004248,0.3792427177241745,,experiment,emotion,2.0,,,,1534.3655420999985,1004,23,female,True
506,110.0,25,F,down,0.5496734000007564,1.724503990541101,,experiment,emotion,2.0,,,,1536.9321236999986,1004,23,female,True
507,108.0,25,M,down,0.6707502999997814,1.6889250412940986,,experiment,emotion,2.0,,,,1539.4320337000008,1004,23,female,True
508,106.0,25,F,down,0.6144567000010284,0.791152081118085,,experiment,emotion,2.0,,,,1541.165298599999,1004,23,female,True
509,104.0,25,M,down,0.4451786000026914,1.4952010461018526,,experiment,emotion,2.0,,,,1543.5485548999986,1004,23,female,True
510,106.0,25,M,down,0.4192536999980802,0.6754912580815634,,experiment,emotion,2.0,,,,1544.9485098999994,1004,23,female,True
511,110.0,25,F,down,1.3869878000004974,1.3760266569476445,,experiment,emotion,2.0,,,,1547.0317569999988,1004,23,female,True
512,106.0,25,F,down,0.5341091000009328,1.7448013055679823,,experiment,emotion,2.0,,,,1550.431649199998,1004,23,female,True
513,108.0,25,F,down,0.5431841999998142,1.084535968494805,,experiment,emotion,2.0,,,,1552.3315667000006,1004,23,female,True
514,110.0,25,F,down,0.5482969000004232,1.7716033278546848,,experiment,emotion,2.0,,,,1554.9314638000014,1004,23,female,True
515,108.0,25,F,up,0.7065593000006629,1.3119284135718925,,experiment,emotion,2.0,,,,1557.0812545999995,1004,23,female,True
516,104.0,25,F,down,0.5607653000006394,0.728874715495287,,experiment,emotion,2.0,,,,1558.7979939000015,1004,23,female,True
517,106.0,25,M,down,0.4345089000016742,0.6523880652730137,,experiment,emotion,2.0,,,,1560.2812534999994,1004,23,female,True
518,104.0,25,M,down,0.4201608999974269,1.6247897789248094,,experiment,emotion,2.0,,,,1562.5976331000002,1004,23,female,True
519,110.0,25,M,down,0.4292870999997831,1.5301932246651926,,experiment,emotion,2.0,,,,1564.8144340999988,1004,23,female,True
520,104.0,25,M,down,0.4374098999978741,1.145568976918495,,experiment,emotion,2.0,,,,1566.664353099999,1004,23,female,True
521,108.0,25,F,down,0.4288109999979497,0.8085817635613377,,experiment,emotion,2.0,,,,1568.180970899999,1004,23,female,True
522,108.0,25,M,down,0.4001914000000397,1.5646277780979252,,experiment,emotion,2.0,,,,1570.4475598000008,1004,23,female,True
523,106.0,25,M,down,0.4182782999996561,0.7981564621092256,,experiment,emotion,2.0,,,,1571.9475078000014,1004,23,female,True
524,106.0,25,F,down,0.4440097999977297,1.7890789863185177,,experiment,emotion,2.0,,,,1574.4307504000008,1004,23,female,True
525,104.0,25,M,up,0.4728261000018392,1.5844975861595467,,experiment,emotion,2.0,,,,1576.7139920999998,1004,23,female,True
526,110.0,25,F,up,0.4001682000016444,1.5513322922102768,,experiment,emotion,2.0,,,,1579.0139427999984,1004,23,female,True
527,108.0,25,F,up,0.3835329000030469,1.326992939543853,,experiment,emotion,2.0,,,,1581.030493100001,1004,23,female,True
528,104.0,25,M,down,0.4657913999981247,1.1809010001653295,,experiment,emotion,2.0,,,,1582.8970064000005,1004,23,female,True
529,110.0,25,M,down,0.3835330000001704,0.7494518955399527,,experiment,emotion,2.0,,,,1584.3803571000008,1004,23,female,True
530,110.0,25,F,down,0.4300900999987789,0.5100680773196462,,experiment,emotion,2.0,,,,1585.5636638999986,1004,23,female,True
531,106.0,25,M,down,0.5165312999997695,1.5944490168809395,,experiment,emotion,2.0,,,,1587.8802290000003,1004,23,female,True
532,104.0,25,F,down,0.4201930000017455,0.3965826466820768,,experiment,emotion,2.0,,,,1589.0635516999992,1004,23,female,True
533,106.0,25,F,down,0.567630099998496,0.4291371345644827,,experiment,emotion,2.0,,,,1590.1801437000013,1004,23,female,True
534,108.0,25,F,down,0.4533654000006208,1.6924009414482428,,experiment,emotion,2.0,,,,1592.7134088000005,1004,23,female,True
535,104.0,25,M,down,0.3667654000018956,1.5876844858949497,,experiment,emotion,2.0,,,,1595.0299706999997,1004,23,female,True
536,110.0,25,M,down,0.3668332000015653,0.4002856696666689,,experiment,emotion,2.0,,,,1596.1132662,1004,23,female,True
537,108.0,25,M,down,0.4573783999985608,1.7859903475499808,,experiment,emotion,2.0,,,,1598.5963826999996,1004,23,female,True
538,110.0,25,F,down,0.3501656000007642,1.3951100742052005,,experiment,emotion,2.0,,,,1600.7297639000008,1004,23,female,True
539,104.0,25,F,down,0.3834686000009242,0.9349964100814928,,experiment,emotion,2.0,,,,1602.3463719999982,1004,23,female,True
540,108.0,25,M,down,0.4001915999979246,1.1848308695473566,,experiment,emotion,2.0,,,,1604.212985199998,1004,23,female,True
541,106.0,25,F,down,0.4168424000017694,1.915714359783368,,experiment,emotion,2.0,,,,1606.8295339000017,1004,23,female,True
542,106.0,25,M,down,0.3835146999990684,1.0445763439897138,,experiment,emotion,2.0,,,,1608.5628132000002,1004,23,female,True
543,108.0,25,M,down,0.4169911999997566,0.6446463553767314,,experiment,emotion,2.0,,,,1609.8959759000008,1004,23,female,True
544,110.0,25,M,down,0.3835268999973777,1.0248226850813238,,experiment,emotion,2.0,,,,1611.629362499998,1004,23,female,True
545,106.0,25,F,down,0.3334929999982705,0.8239602817133309,,experiment,emotion,2.0,,,,1613.1459726000012,1004,23,female,True
546,104.0,25,F,down,0.4935638000024482,1.6886270945171329,,experiment,emotion,2.0,,,,1615.5292371999983,1004,23,female,True
547,104.0,25,M,down,0.3835261999993236,1.4625310696881215,,experiment,emotion,2.0,,,,1617.7457921000005,1004,23,female,True
548,106.0,25,F,down,0.3668383000003814,1.8037432399067173,,experiment,emotion,2.0,,,,1620.2290306000014,1004,23,female,True
549,110.0,25,F,down,0.3502079999998386,1.0247246920140265,,experiment,emotion,2.0,,,,1621.9456397000013,1004,23,female,True
550,108.0,25,M,down,0.3669879999979457,1.1564811268451716,,experiment,emotion,2.0,,,,1623.7954488999983,1004,23,female,True
551,104.0,25,M,down,0.3835114000030444,1.643641942382639,,experiment,emotion,2.0,,,,1626.1288226000015,1004,23,female,True
552,110.0,25,F,down,0.3668566999986069,1.9015883889035108,,experiment,emotion,2.0,,,,1628.7120680999997,1004,23,female,True
553,108.0,25,M,down,0.4001224000021466,0.6713524155123463,,experiment,emotion,2.0,,,,1630.0620757000015,1004,23,female,True
554,108.0,25,F,down,0.3668373000000429,1.1911604185887938,,experiment,emotion,2.0,,,,1631.9452699000012,1004,23,female,True
555,104.0,25,F,down,0.65672160000031,1.8827438098054072,,experiment,emotion,2.0,,,,1634.4949737000006,1004,23,female,True
556,106.0,25,F,down,0.4001987999981793,1.1311964688355238,,experiment,emotion,2.0,,,,1636.5617851000006,1004,23,female,True
557,110.0,25,M,down,0.4634254000011424,1.5399160608199374,,experiment,emotion,2.0,,,,1638.7783307000009,1004,23,female,True
558,106.0,25,M,down,0.6014778000026126,1.322365536785894,,experiment,emotion,2.0,,,,1640.828271299999,1004,23,female,True
559,106.0,25,F,down,0.4167812999985472,0.4154756570533471,,experiment,emotion,2.0,,,,1642.1115803999985,1004,23,female,True
560,106.0,25,F,up,0.4588875999979791,1.7354991942069176,,experiment,emotion,2.0,,,,1644.544823899998,1004,23,female,True
561,110.0,25,M,up,0.4773802000017895,1.757481061483487,,experiment,emotion,2.0,,,,1647.011390400001,1004,23,female,True
562,108.0,25,M,up,0.4863796000026923,0.8998852003400555,,experiment,emotion,2.0,,,,1648.661375900001,1004,23,female,True
563,104.0,25,M,up,0.3502069000023766,1.324533381139246,,experiment,emotion,2.0,,,,1650.7612285999985,1004,23,female,True
564,104.0,25,M,up,0.3834134999997332,0.3590546266924156,,experiment,emotion,2.0,,,,1651.8112297999996,1004,23,female,True
565,108.0,25,M,up,0.3502982999998494,0.6547072877603692,,experiment,emotion,2.0,,,,1653.1611520999995,1004,23,female,True
566,110.0,25,F,up,0.4001851999964856,1.316999348107727,,experiment,emotion,2.0,,,,1655.1777540999992,1004,23,female,True
567,110.0,25,F,up,0.350022300001001,0.7905652171723774,,experiment,emotion,2.0,,,,1656.644355899998,1004,23,female,True
568,104.0,25,M,up,0.3168308999993314,1.2209818267288752,,experiment,emotion,2.0,,,,1658.544306599999,1004,23,female,True
569,110.0,25,F,up,0.3335135000015725,0.379746902149455,,experiment,emotion,2.0,,,,1659.610917,1004,23,female,True
570,106.0,25,F,up,0.316802599998482,0.6950513880230621,,experiment,emotion,2.0,,,,1660.9942337000011,1004,23,female,True
571,108.0,25,F,down,0.5490213000011863,1.7276038016076307,,experiment,emotion,2.0,,,,1663.4107894999995,1004,23,female,True
572,106.0,25,M,down,0.4834813999987091,1.557145196741159,,experiment,emotion,2.0,,,,1665.7772494,1004,23,female,True
573,104.0,25,F,up,0.4758365000016056,0.303152547893938,,experiment,emotion,2.0,,,,1666.8439855000015,1004,23,female,True
574,108.0,25,F,up,0.3502908000009483,0.7896858188673104,,experiment,emotion,2.0,,,,1668.3771279999985,1004,23,female,True
575,106.0,25,F,down,0.350069899999653,0.6674777584625545,,experiment,emotion,2.0,,,,1669.7271988000011,1004,23,female,True
576,108.0,25,M,up,0.3669343999972625,0.9757683069147476,,experiment,emotion,2.0,,,,1671.3770597999992,1004,23,female,True
577,104.0,25,M,up,0.3668310000030033,1.809832105659236,,experiment,emotion,2.0,,,,1673.8603883000014,1004,23,female,True
578,110.0,25,F,up,0.3501347999990685,1.82786356926044,,experiment,emotion,2.0,,,,1676.393638399999,1004,23,female,True
579,108.0,25,M,up,0.3668527000008907,1.6476031039495054,,experiment,emotion,2.0,,,,1678.7268633000003,1004,23,female,True
580,110.0,25,F,down,0.455034099999466,1.7650887916255764,,experiment,emotion,2.0,,,,1681.1767096999993,1004,23,female,True
581,104.0,25,M,up,0.3335279999992053,1.8886783990353693,,experiment,emotion,2.0,,,,1683.7933523999982,1004,23,female,True
582,106.0,25,M,up,0.4168145000003278,1.8068955696130755,,experiment,emotion,2.0,,,,1686.3099356000002,1004,23,female,True
583,0.114809122060399,25,up,down,0.4692486999992979,1.195030938097095,,experiment,cRDM,2.0,,,,1706.8425076000003,1004,23,female,True
584,0.114809122060399,25,up,down,0.4503268000007665,1.8088095631658407,,experiment,cRDM,2.0,,,,1709.392436199998,1004,23,female,True
585,0.114809122060399,25,down,down,0.517804499999329,1.7901409439274518,,experiment,cRDM,2.0,,,,1711.9089742000017,1004,23,female,True
586,0.114809122060399,25,down,down,0.4167744000005768,1.345649347949309,,experiment,cRDM,2.0,,,,1714.042245499999,1004,23,female,True
587,0.114809122060399,25,up,down,0.4168124999996507,0.4531198640120226,,experiment,cRDM,2.0,,,,1715.1753708999986,1004,23,female,True
588,0.114809122060399,25,down,down,0.43994549999843,1.25507461280902,,experiment,cRDM,2.0,,,,1717.1088131999986,1004,23,female,True
589,0.114809122060399,25,up,up,0.6853287000012642,0.3711797338839214,,experiment,cRDM,2.0,,,,1718.1753996999996,1004,23,female,True
590,0.114809122060399,25,up,down,0.4610557000014523,0.6381481127951147,,experiment,cRDM,2.0,,,,1719.758681500001,1004,23,female,True
591,0.114809122060399,25,down,down,0.4521605000009003,1.2779747295092814,,experiment,cRDM,2.0,,,,1721.7586065999983,1004,23,female,True
592,0.114809122060399,25,down,down,0.5041482999986329,1.1774790957985533,,experiment,cRDM,2.0,,,,1723.6585630999998,1004,23,female,True
593,0.114809122060399,25,down,down,0.6398603999987245,0.4127595811381698,,experiment,cRDM,2.0,,,,1724.8418581999997,1004,23,female,True
594,0.114809122060399,25,down,up,0.5746476000022085,0.8862218865159504,,experiment,cRDM,2.0,,,,1726.6250859999982,1004,23,female,True
595,0.114809122060399,25,down,down,0.4523593000012624,1.5552909721505233,,experiment,cRDM,2.0,,,,1729.0083723000007,1004,23,female,True
596,0.114809122060399,25,down,up,0.4715629999991506,0.3846113886256109,,experiment,cRDM,2.0,,,,1730.1083223000005,1004,23,female,True
597,0.114809122060399,25,up,up,0.5241602999994939,1.1987623043626074,,experiment,cRDM,2.0,,,,1732.041572799999,1004,23,female,True
598,0.114809122060399,25,up,down,0.427181399998517,0.4062480992760152,,experiment,cRDM,2.0,,,,1733.241548,1004,23,female,True
599,0.114809122060399,25,up,up,0.4859111000005214,0.3003666930734939,,experiment,cRDM,2.0,,,,1734.2248156000005,1004,23,female,True
600,0.114809122060399,25,up,up,0.5306544999984908,1.9417374206102893,,experiment,cRDM,2.0,,,,1736.908072600001,1004,23,female,True
601,0.114809122060399,25,down,down,0.3672348000000056,1.6820237487743617,,experiment,cRDM,2.0,,,,1739.3911866,1004,23,female,True
602,0.114809122060399,25,up,up,0.4364956999997957,1.3713287431154406,,experiment,cRDM,2.0,,,,1741.441228499998,1004,23,female,True
603,0.114809122060399,25,up,down,0.4211830999993253,0.5898511462963572,,experiment,cRDM,2.0,,,,1742.7245190000012,1004,23,female,True
604,0.114809122060399,25,down,up,0.4319103000016184,0.6040792628237681,,experiment,cRDM,2.0,,,,1744.007853699999,1004,23,female,True
605,0.114809122060399,25,up,up,0.6258185000006051,0.4946327445505333,,experiment,cRDM,2.0,,,,1745.1909128999996,1004,23,female,True
606,0.114809122060399,25,down,up,0.4179856000009749,0.6225907164355662,,experiment,cRDM,2.0,,,,1746.7077367000002,1004,23,female,True
607,0.114809122060399,25,down,up,0.4241434999967168,1.91256104019122,,experiment,cRDM,2.0,,,,1749.3076359999995,1004,23,female,True
608,0.114809122060399,25,up,up,0.4602049000022816,1.4576503728280157,,experiment,cRDM,2.0,,,,1751.4575172999994,1004,23,female,True
609,0.114809122060399,25,up,down,0.5346199999985402,1.344146964398121,,experiment,cRDM,2.0,,,,1753.5241063999983,1004,23,female,True
610,0.114809122060399,25,down,down,0.4002805999989505,1.13639906409433,,experiment,cRDM,2.0,,,,1755.4406779,1004,23,female,True
611,0.114809122060399,25,up,up,0.3506344000015815,0.9782823469089632,,experiment,cRDM,2.0,,,,1757.090473899998,1004,23,female,True
612,0.114809122060399,25,down,down,0.3838250000007974,0.8787914412307081,,experiment,cRDM,2.0,,,,1758.6572484000008,1004,23,female,True
613,0.114809122060399,25,down,down,0.4928843999987293,1.1429470695033648,,experiment,cRDM,2.0,,,,1760.473860600001,1004,23,female,True
614,0.114809122060399,25,down,down,0.4002405000028375,0.6966494868948157,,experiment,cRDM,2.0,,,,1761.923789099999,1004,23,female,True
615,0.114809122060399,25,up,down,0.5099816000001738,0.858354853159204,,experiment,cRDM,2.0,,,,1763.47372,1004,23,female,True
616,0.114809122060399,25,up,up,0.4002438999996229,0.4988806167694614,,experiment,cRDM,2.0,,,,1764.7570174000011,1004,23,female,True
617,0.114809122060399,25,up,down,0.5194893000007141,0.5084087134603773,,experiment,cRDM,2.0,,,,1765.9402978999988,1004,23,female,True
618,0.114809122060399,25,down,up,0.4378274000009696,1.882321627887668,,experiment,cRDM,2.0,,,,1768.6069216000014,1004,23,female,True
619,0.114809122060399,25,down,down,0.4252344999986235,1.416672594812739,,experiment,cRDM,2.0,,,,1770.7234827999982,1004,23,female,True
620,0.114809122060399,25,up,down,0.3173479999968549,0.7646086994910264,,experiment,cRDM,2.0,,,,1772.1899264000003,1004,23,female,True
621,0.114809122060399,25,down,up,0.5330298000008042,1.6786088313601673,,experiment,cRDM,2.0,,,,1774.556649199998,1004,23,female,True
622,0.114809122060399,25,up,up,0.6144688000022143,1.1162385618361987,,experiment,cRDM,2.0,,,,1776.4732458999988,1004,23,female,True
623,0.114809122060399,25,up,down,0.5828677999998035,0.3873845914989637,,experiment,cRDM,2.0,,,,1777.7398841999984,1004,23,female,True
624,0.114809122060399,25,up,up,0.4552265999991505,1.5140603214726724,,experiment,cRDM,2.0,,,,1780.1064745999993,1004,23,female,True
625,0.114809122060399,25,down,down,0.4493021999987832,0.5425889233722418,,experiment,cRDM,2.0,,,,1781.3564186999993,1004,23,female,True
626,0.114809122060399,25,down,up,0.4551473999999871,0.6270612768656247,,experiment,cRDM,2.0,,,,1782.689569600001,1004,23,female,True
627,0.114809122060399,25,up,up,0.6452755999998772,1.950884074853595,,experiment,cRDM,2.0,,,,1785.3395924000015,1004,23,female,True
628,0.114809122060399,25,down,down,0.3503994999991846,1.599632372985666,,experiment,cRDM,2.0,,,,1787.8395091000002,1004,23,female,True
629,0.114809122060399,25,down,up,0.4002523999988625,1.3886679217824185,,experiment,cRDM,2.0,,,,1789.906122899998,1004,23,female,True
630,0.114809122060399,25,up,up,0.4954421000002185,1.1546667912034427,,experiment,cRDM,2.0,,,,1791.7393489000006,1004,23,female,True
631,0.114809122060399,25,up,down,0.424458899997262,1.5893147529221352,,experiment,cRDM,2.0,,,,1794.0892860000004,1004,23,female,True
632,0.114809122060399,25,down,up,0.3004823000010219,1.3616877435596684,,experiment,cRDM,2.0,,,,1796.1391945000014,1004,23,female,True
633,0.114809122060399,25,up,up,0.4437720999994781,0.4680015734049776,,experiment,cRDM,2.0,,,,1797.2889968,1004,23,female,True
634,0.114809122060399,25,down,up,0.5443128000006254,1.6301997145335978,,experiment,cRDM,2.0,,,,1799.6223907000003,1004,23,female,True
635,0.114809122060399,25,down,up,0.4403869000016129,0.8739381352643691,,experiment,cRDM,2.0,,,,1801.3223343000009,1004,23,female,True
636,0.114809122060399,25,down,down,0.350453799997922,0.9780717677079308,,experiment,cRDM,2.0,,,,1803.0056336,1004,23,female,True
637,0.114809122060399,25,up,down,0.3338074000021152,1.531257757883257,,experiment,cRDM,2.0,,,,1805.2222029999996,1004,23,female,True
638,0.114809122060399,25,up,down,0.4482205999993311,0.4597491893341129,,experiment,cRDM,2.0,,,,1806.355495499998,1004,23,female,True
639,0.114809122060399,25,down,up,0.4003114000006462,1.0155578827323426,,experiment,cRDM,2.0,,,,1808.0887822999996,1004,23,female,True
640,0.114809122060399,25,down,down,0.4878456000005826,1.2907611070843514,,experiment,cRDM,2.0,,,,1810.0718607,1004,23,female,True
641,0.114809122060399,25,up,up,0.5260865999989619,1.0589697140503542,,experiment,cRDM,2.0,,,,1811.8886272,1004,23,female,True
642,0.114809122060399,25,up,down,0.3504507000034209,1.223682276861599,,experiment,cRDM,2.0,,,,1813.9052041999985,1004,23,female,True
643,0.114809122060399,25,up,up,0.3505493999982718,0.8552012875100907,,experiment,cRDM,2.0,,,,1815.4384716000004,1004,23,female,True
644,0.114809122060399,25,up,up,0.4899465999988024,0.4989156736493678,,experiment,cRDM,2.0,,,,1816.6217850999983,1004,23,female,True
645,0.114809122060399,25,up,up,0.5666882000004989,1.3342965847835409,,experiment,cRDM,2.0,,,,1818.7050193999985,1004,23,female,True
646,0.114809122060399,25,down,down,0.4002837000007275,0.7829947428891672,,experiment,cRDM,2.0,,,,1820.3216252,1004,23,female,True
647,0.114809122060399,25,down,down,0.4921256000016001,1.106141593782188,,experiment,cRDM,2.0,,,,1822.1215729999983,1004,23,female,True
648,0.114809122060399,25,up,up,0.5165237999972305,0.7063745961977681,,experiment,cRDM,2.0,,,,1823.588192199999,1004,23,female,True
649,0.114809122060399,25,down,down,0.3673472000009496,1.7076250861474704,,experiment,cRDM,2.0,,,,1826.0712101000008,1004,23,female,True
650,0.114809122060399,25,down,down,0.422730499998579,1.477947378802794,,experiment,cRDM,2.0,,,,1828.2379835999984,1004,23,female,True
651,0.114809122060399,25,down,down,0.5817222000005131,0.5552442715036221,,experiment,cRDM,2.0,,,,1829.4879848,1004,23,female,True
652,0.114809122060399,25,up,up,0.4752344000007724,1.3226419360726538,,experiment,cRDM,2.0,,,,1831.6545119999992,1004,23,female,True
653,0.114809122060399,25,down,down,0.477537000002485,0.4374631605428813,,experiment,cRDM,2.0,,,,1832.8211687999992,1004,23,female,True
654,0.114809122060399,25,down,up,0.4002704999984416,1.9014541716021176,,experiment,cRDM,2.0,,,,1835.454390500001,1004,23,female,True
655,0.114809122060399,25,down,down,0.4530914000024495,1.0659715583130756,,experiment,cRDM,2.0,,,,1837.1876825999989,1004,23,female,True
656,0.114809122060399,25,up,up,0.5997329000019818,0.363016064669706,,experiment,cRDM,2.0,,,,1838.2709872,1004,23,female,True
657,0.114809122060399,25,up,up,0.5615195999998832,1.2668794178366185,,experiment,cRDM,2.0,,,,1840.4042065999984,1004,23,female,True
658,0.114809122060399,25,down,down,0.4309582000023511,0.4370739389192003,,experiment,cRDM,2.0,,,,1841.670720199998,1004,23,female,True
659,0.114809122060399,25,up,up,0.620621600002778,0.737264507672085,,experiment,cRDM,2.0,,,,1843.104118199999,1004,23,female,True
660,0.114809122060399,25,down,up,0.5523341000007349,1.0378134839825313,,experiment,cRDM,2.0,,,,1845.037370600001,1004,23,female,True
661,0.114809122060399,25,up,up,0.566116999998485,0.5737194803221928,,experiment,cRDM,2.0,,,,1846.4206497,1004,23,female,True
662,0.114809122060399,25,up,up,0.4454022999998415,1.3217720572477492,,experiment,cRDM,2.0,,,,1848.5703273999989,1004,23,female,True
663,110.0,25,M,down,0.6232044999997015,1.8630236781827456,,experiment,emotion,3.0,,,,1931.567479700001,1004,23,female,True
664,104.0,25,M,down,0.4559798999980557,1.1715177744388976,,experiment,emotion,3.0,,,,1933.6507597,1004,23,female,True
665,108.0,25,F,down,0.3835567999994964,0.3240164407004521,,experiment,emotion,3.0,,,,1934.7173605000007,1004,23,female,True
666,110.0,25,F,down,0.2833672000015212,0.9030299904273056,,experiment,emotion,3.0,,,,1936.3006651000012,1004,23,female,True
667,108.0,25,M,up,0.4309079999984533,1.6985800246227465,,experiment,emotion,3.0,,,,1938.683773499999,1004,23,female,True
668,106.0,25,F,down,0.4391918000001169,1.1528780066382724,,experiment,emotion,3.0,,,,1940.5505036999984,1004,23,female,True
669,104.0,25,M,down,0.400236200002837,0.84566968688356,,experiment,emotion,3.0,,,,1942.1004507999987,1004,23,female,True
670,106.0,25,M,down,0.461323600000469,0.9580268915025348,,experiment,emotion,3.0,,,,1943.7503635999983,1004,23,female,True
671,110.0,25,F,down,0.3835485000017797,0.6509181352984473,,experiment,emotion,3.0,,,,1945.1336624000012,1004,23,female,True
672,106.0,25,F,down,0.4587709000006725,1.5572192064304509,,experiment,emotion,3.0,,,,1947.3669156000012,1004,23,female,True
673,108.0,25,F,down,0.4792954000004101,1.7862039584470155,,experiment,emotion,3.0,,,,1949.883393099999,1004,23,female,True
674,110.0,25,F,down,0.4526463000001968,1.9235103315319533,,experiment,emotion,3.0,,,,1952.5500852999996,1004,23,female,True
675,108.0,25,F,down,0.4440986999979941,1.7504981392131704,,experiment,emotion,3.0,,,,1955.0166252,1004,23,female,True
676,104.0,25,F,down,0.4165671000009752,1.720540189274545,,experiment,emotion,3.0,,,,1957.466553199998,1004,23,female,True
677,106.0,25,M,down,0.450520400001551,1.5608699409282354,,experiment,emotion,3.0,,,,1959.733108800001,1004,23,female,True
678,104.0,25,M,down,0.4169174000016937,0.436972331996148,,experiment,emotion,3.0,,,,1960.8829649999989,1004,23,female,True
679,110.0,25,M,down,0.4347054000027128,1.1136547090109503,,experiment,emotion,3.0,,,,1962.6830015,1004,23,female,True
680,104.0,25,M,down,0.5330345000002126,0.3512478733536468,,experiment,emotion,3.0,,,,1963.749649200001,1004,23,female,True
681,108.0,25,F,up,0.5478004999968107,1.386775544090519,,experiment,emotion,3.0,,,,1965.932885799999,1004,23,female,True
682,108.0,25,M,up,0.3832598999979382,0.9289324335018448,,experiment,emotion,3.0,,,,1967.6828608000012,1004,23,female,True
683,106.0,25,M,up,0.4878787000016018,0.9263608689347465,,experiment,emotion,3.0,,,,1969.282773500001,1004,23,female,True
684,106.0,25,F,up,0.444344400002592,1.7619380967091474,,experiment,emotion,3.0,,,,1971.7993363000005,1004,23,female,True
685,104.0,25,M,down,0.5731096999988949,1.6556373163815776,,experiment,emotion,3.0,,,,1974.1825943999995,1004,23,female,True
686,110.0,25,F,down,0.7334430999981123,0.5552316667881699,,experiment,emotion,3.0,,,,1975.599217699999,1004,23,female,True
687,108.0,25,F,down,0.3835109999999986,1.627583895851599,,experiment,emotion,3.0,,,,1978.2157706999988,1004,23,female,True
688,104.0,25,M,down,0.5323470000002999,1.3886650131145155,,experiment,emotion,3.0,,,,1980.2823755000009,1004,23,female,True
689,110.0,25,M,down,0.3668518999984371,1.351975505594712,,experiment,emotion,3.0,,,,1982.4156270000003,1004,23,female,True
690,110.0,25,F,up,0.4648244999989401,1.0422191526728632,,experiment,emotion,3.0,,,,1984.1488765999984,1004,23,female,True
691,106.0,25,M,up,0.4002349000002141,1.3110950264580794,,experiment,emotion,3.0,,,,1986.2321206,1004,23,female,True
692,104.0,25,F,down,0.5666009999986272,0.976052815695124,,experiment,emotion,3.0,,,,1987.8820792999995,1004,23,female,True
693,106.0,25,F,down,0.4167777000002388,0.7077480709428494,,experiment,emotion,3.0,,,,1989.4153833,1004,23,female,True
694,108.0,25,F,up,0.4405020000012882,1.0569505877224634,,experiment,emotion,3.0,,,,1991.1651735,1004,23,female,True
695,104.0,25,M,up,0.4271045999994385,1.1757836866053264,,experiment,emotion,3.0,,,,1993.0485376000013,1004,23,female,True
696,110.0,25,M,up,0.3835034000003361,0.341908815885832,,experiment,emotion,3.0,,,,1994.0985241,1004,23,female,True
697,108.0,25,M,up,0.3836346999996749,1.8886256579652692,,experiment,emotion,3.0,,,,1996.6649906,1004,23,female,True
698,110.0,25,F,down,0.4768567999999504,0.8041901734655568,,experiment,emotion,3.0,,,,1998.1648393000012,1004,23,female,True
699,104.0,25,F,down,0.4001881000003777,0.6224306690698791,,experiment,emotion,3.0,,,,1999.5316638999996,1004,23,female,True
700,108.0,25,M,up,0.8730476000018825,1.572773289475394,,experiment,emotion,3.0,,,,2001.7816102999984,1004,23,female,True
701,106.0,25,F,down,0.7191748000004736,0.5487848049515069,,experiment,emotion,3.0,,,,2003.4815196,1004,23,female,True
702,106.0,25,M,up,0.4886000999977113,1.0727344266396257,,experiment,emotion,3.0,,,,2005.5480770000013,1004,23,female,True
703,108.0,25,M,up,0.4436863999981142,1.734269571548896,,experiment,emotion,3.0,,,,2008.0479765,1004,23,female,True
704,110.0,25,M,up,0.4568381999997655,1.982848201148147,,experiment,emotion,3.0,,,,2010.7479049000008,1004,23,female,True
705,106.0,25,F,down,0.4748906999993778,1.9773838354222115,,experiment,emotion,3.0,,,,2013.4477853000008,1004,23,female,True
706,104.0,25,F,down,0.4285617999994429,0.7323010360139606,,experiment,emotion,3.0,,,,2014.9311131000013,1004,23,female,True
707,104.0,25,M,up,0.6023117000004277,0.693564756992997,,experiment,emotion,3.0,,,,2016.3143583,1004,23,female,True
708,106.0,25,F,up,0.4291147999974782,0.512762535644362,,experiment,emotion,3.0,,,,2017.6976626000012,1004,23,female,True
709,110.0,25,F,up,0.5031287999991036,1.106929276405204,,experiment,emotion,3.0,,,,2019.4975671999985,1004,23,female,True
710,108.0,25,M,up,0.5058219000020472,0.7645774039066797,,experiment,emotion,3.0,,,,2021.0308600000008,1004,23,female,True
711,104.0,25,M,up,0.4168219999992288,0.798413723727972,,experiment,emotion,3.0,,,,2022.614124900001,1004,23,female,True
712,110.0,25,F,up,0.4320412000015494,1.5376774706094138,,experiment,emotion,3.0,,,,2024.830716399998,1004,23,female,True
713,108.0,25,M,up,0.48030049999943,0.7737487743566883,,experiment,emotion,3.0,,,,2026.2973508999985,1004,23,female,True
714,108.0,25,F,up,0.6930926999993972,0.8537276136357255,,experiment,emotion,3.0,,,,2027.8806141000005,1004,23,female,True
715,104.0,25,F,down,0.64615749999939,1.4713502397527147,,experiment,emotion,3.0,,,,2030.3305012,1004,23,female,True
716,106.0,25,F,down,0.5035654000021168,1.2409288401603864,,experiment,emotion,3.0,,,,2032.4971161999983,1004,23,female,True
717,110.0,25,M,down,0.4275305000010121,1.9132099506102984,,experiment,emotion,3.0,,,,2035.1801620999995,1004,23,female,True
718,106.0,25,M,down,0.4001547999978356,1.0123672856974666,,experiment,emotion,3.0,,,,2036.8969511999985,1004,23,female,True
719,106.0,25,F,down,0.4514877000001434,1.3073605865115665,,experiment,emotion,3.0,,,,2038.8801834999997,1004,23,female,True
720,106.0,25,F,down,0.58017689999906,0.5183744733012238,,experiment,emotion,3.0,,,,2040.113486199998,1004,23,female,True
721,110.0,25,M,down,0.4001996000006329,1.1162590423926986,,experiment,emotion,3.0,,,,2042.0800819999984,1004,23,female,True
722,108.0,25,M,down,0.4663025000008929,0.6276848546330408,,experiment,emotion,3.0,,,,2043.413368399999,1004,23,female,True
723,104.0,25,M,down,0.4697453000007954,0.4813467922845853,,experiment,emotion,3.0,,,,2044.629975400001,1004,23,female,True
724,104.0,25,M,down,0.3668580000012298,0.576413634979551,,experiment,emotion,3.0,,,,2045.9465752000012,1004,23,female,True
725,108.0,25,M,down,0.3832961000007344,0.5436272228793193,,experiment,emotion,3.0,,,,2047.179911000001,1004,23,female,True
726,110.0,25,F,up,0.6611782999971183,1.302259985247747,,experiment,emotion,3.0,,,,2049.1464872999986,1004,23,female,True
727,110.0,25,F,up,0.6576494000000821,1.9978671006232287,,experiment,emotion,3.0,,,,2052.063015000001,1004,23,female,True
728,104.0,25,M,up,0.4170049000022118,0.996802282458765,,experiment,emotion,3.0,,,,2053.9795127999987,1004,23,female,True
