,stimLvl,stimTime,rand,response,rt,precedingITI,trialNumber,trialType,stimuli,block,estIntens,estThres,estSlope,trialStart,subject,age,gender,headRest
0,0.9,100,down,,,1.486827796929423,,introTrial,cRDM,,,,,223.02773890000023,1002,29,female,True
1,150.0,100,F,,,0.7746993878232942,,introTrial,emotion,,,,,227.76096229999985,1002,29,female,True
2,0.9,25,down,down,0.8789202999996633,1.9567607191270904,,tutorial,cRDM,,,,,274.17582670000047,1002,29,female,True
3,0.9,25,down,down,0.6392461000004914,1.0496297211418109,,tutorial,cRDM,,,,,276.3924317000001,1002,29,female,True
4,0.9,25,down,down,0.6697858000006818,1.9902752618336823,,tutorial,cRDM,,,,,279.30898890000026,1002,29,female,True
5,0.9,25,up,up,0.524845699999787,0.8015598059386122,,tutorial,cRDM,,,,,281.0588908,1002,29,female,True
6,0.9,25,down,down,0.5398702000002231,0.5018878635066225,,tutorial,cRDM,,,,,282.3588768999998,1002,29,female,True
7,0.9,25,down,down,0.485298700000385,1.1537442493536454,,tutorial,cRDM,,,,,284.3254560000005,1002,29,female,True
8,0.9,25,up,up,0.4739187000004676,0.5235822313615749,,tutorial,cRDM,,,,,285.6087963,1002,29,female,True
9,0.9,25,up,up,0.4729784000001018,0.4576340635822852,,tutorial,cRDM,,,,,286.80872850000014,1002,29,female,True
10,0.9,25,up,up,0.5534287000000404,1.9656067512239852,,tutorial,cRDM,,,,,289.52528110000003,1002,29,female,True
11,0.9,25,up,up,0.4170303000000785,1.9604480654000995,,tutorial,cRDM,,,,,292.3251608999999,1002,29,female,True
12,200.0,25,M,up,1.5647675999998685,0.4103421001184035,,tutorial,emotion,,,,,300.3749237000002,1002,29,female,True
13,200.0,25,M,up,0.461560400000053,1.13600950670692,,tutorial,emotion,,,,,303.3581450000001,1002,29,female,True
14,200.0,25,F,up,0.8682958999997936,1.2428051542389575,,tutorial,emotion,,,,,305.3414131999998,1002,29,female,True
15,0.0,25,F,down,0.4520462000000407,1.2253343917690942,,tutorial,emotion,,,,,307.72466220000024,1002,29,female,True
16,0.0,25,M,down,0.472442499999488,0.633283081330394,,tutorial,emotion,,,,,309.0912962000002,1002,29,female,True
17,200.0,25,F,up,0.5531670000000304,0.4681268354047944,,tutorial,emotion,,,,,310.32456569999977,1002,29,female,True
18,0.0,25,M,down,0.5182721000001038,0.958925252973038,,tutorial,emotion,,,,,312.12446329999966,1002,29,female,True
19,200.0,25,M,up,0.7416232999994463,1.30675231974114,,tutorial,emotion,,,,,314.2410775999997,1002,29,female,True
20,0.0,25,F,up,0.4002013999997871,1.3878716844370684,,tutorial,emotion,,,,,316.6409794000001,1002,29,female,True
21,0.0,25,F,down,0.48317440000028,1.9579181855601044,,tutorial,emotion,,,,,319.30757619999986,1002,29,female,True
22,0.29,25,up,up,0.5530360000002474,0.5676846789900432,,psi_staircase_training,cRDM,,0.25,0.2569312402994632,0.105,332.0736947000005,1002,29,female,True
23,0.25,25,up,up,0.6781213000003845,1.8202198358392627,,psi_staircase_training,cRDM,,0.2191026665318312,0.2260132002683492,0.1046863203387393,334.7236073000004,1002,29,female,True
24,0.21,25,down,down,0.5078776000000289,0.7814746715242293,,psi_staircase_training,cRDM,,0.1900540959403307,0.1968497961554001,0.1029467298424999,336.4568479999998,1002,29,female,True
25,0.18,25,down,down,0.5865839000007327,1.6076641707039931,,psi_staircase_training,cRDM,,0.1635257589279754,0.1701521334256793,0.1003816477568649,338.8401273999998,1002,29,female,True
26,0.15,25,up,up,1.02098019999994,0.5563599269553434,,psi_staircase_training,cRDM,,0.1401895574244936,0.1466013351187503,0.0971307628663642,340.2567105999997,1002,29,female,True
27,0.13,25,down,down,0.7447191999999632,0.8825218208765571,,psi_staircase_training,cRDM,,0.1198760602145479,0.1260554767618333,0.0936107694196103,342.44000049999977,1002,29,female,True
28,0.11,25,up,down,0.6155795999993643,0.9252373071921064,,psi_staircase_training,cRDM,,0.1025773523696548,0.1084910344569865,0.0895852101993795,344.37315240000044,1002,29,female,True
29,0.18,25,down,down,0.6612131000001682,0.386082101517628,,psi_staircase_training,cRDM,,0.1555041659961974,0.1624100184452552,0.1046154044330593,345.65652880000016,1002,29,female,True
30,0.16,25,down,down,0.5819695999998657,1.1020479727777095,,psi_staircase_training,cRDM,,0.1391658438081895,0.1457849300972332,0.1002712401131731,347.6898192999997,1002,29,female,True
31,0.15,25,up,up,0.5766548999999941,1.775115434479678,,psi_staircase_training,cRDM,,0.1258032750545589,0.1321354728273346,0.0959252222423927,350.3230321000001,1002,29,female,True
32,0.15,25,down,down,0.5561447999998563,1.1628243046809337,,psi_staircase_training,cRDM,,0.1150699471259995,0.1211167653058565,0.0916020627555137,352.3395862999996,1002,29,female,True
33,0.13,25,down,up,0.5110776999999871,0.9337189492343568,,psi_staircase_training,cRDM,,0.1069881900360696,0.1127039379774579,0.086586744639663,354.0895975000003,1002,29,female,True
34,0.17,25,down,up,0.3671464999997624,0.6704403064820148,,psi_staircase_training,cRDM,,0.1375992308975301,0.1437143873553285,0.0926373059261205,355.53949470000043,1002,29,female,True
35,0.22,25,up,down,0.6212556999998924,1.4381569037446966,,psi_staircase_training,cRDM,,0.1827252899578873,0.1911516455316712,0.1276492080812471,357.68946080000023,1002,29,female,True
36,0.32,25,up,up,0.49639709999974,1.6531910076157996,,psi_staircase_training,cRDM,,0.2432411700707197,0.2523675885203631,0.1382543232971968,360.2393258000002,1002,29,female,True
37,0.29,25,down,down,0.5025288000006185,0.9422186743048636,,psi_staircase_training,cRDM,,0.2264195910989706,0.2355313863629108,0.138032799524755,361.93923799999993,1002,29,female,True
38,0.27,25,down,down,0.4002778999993097,1.7428851252048172,,psi_staircase_training,cRDM,,0.2113615524351678,0.2204078261065263,0.1370402257682802,364.4724882,1002,29,female,True
39,0.26,25,up,up,0.4855606000000989,0.7324930661412284,,psi_staircase_training,cRDM,,0.198079815300483,0.2070432238684044,0.1357849185671179,365.88915520000046,1002,29,female,True
40,0.21,25,up,up,0.6487280999999712,1.4799409585984802,,psi_staircase_training,cRDM,,0.1866538964387634,0.1955146215645959,0.134229387240328,368.1390291999997,1002,29,female,True
41,0.21,25,up,down,0.5384515000005194,0.8989447317708532,,psi_staircase_training,cRDM,,0.1739161984438449,0.1829607020540276,0.1370134114586576,369.97227010000006,1002,29,female,True
42,0.27,25,up,down,0.4414938999998412,1.8272834132712692,,psi_staircase_training,cRDM,,0.2128495856119903,0.2216170904366888,0.1328172111800287,372.6222005,1002,29,female,True
43,0.33,25,down,down,0.6406188000000839,1.0528216151012622,,psi_staircase_training,cRDM,,0.2572918622518153,0.2669541214467042,0.1463716696623404,374.3721089999999,1002,29,female,True
44,0.31,25,down,down,0.4226662000000942,1.379815374885906,,psi_staircase_training,cRDM,,0.2452423364623429,0.2548282643294026,0.1452153413465126,376.6720201999997,1002,29,female,True
45,0.31,25,down,down,0.7576976000000286,1.0997682212871165,,psi_staircase_training,cRDM,,0.234469868274451,0.2439467057094184,0.1435627517846458,378.4719864999997,1002,29,female,True
46,0.26,25,up,up,0.6115082999995138,0.5495081375465003,,psi_staircase_training,cRDM,,0.2254843684399005,0.2348105766453053,0.1412808991261391,380.0552472999998,1002,29,female,True
47,0.25,25,up,down,0.6471841999991739,1.510173740589439,,psi_staircase_training,cRDM,,0.2149335795659072,0.2243721803767276,0.1429835126640869,382.43848960000014,1002,29,female,True
48,0.31,25,down,down,0.4989812000003439,1.8980440734045791,,psi_staircase_training,cRDM,,0.2483931627059344,0.2574933340275492,0.1378567107020581,385.2717106,1002,29,female,True
49,0.31,25,down,down,0.506064499999411,0.4282136189540274,,psi_staircase_training,cRDM,,0.240622819570917,0.2495036353720594,0.1345337369405827,386.4716619999999,1002,29,female,True
50,0.25,25,up,down,0.8854535000000396,1.5885796712324451,,psi_staircase_training,cRDM,,0.234261207878418,0.2428958767115051,0.1308049047937859,388.8382604999997,1002,29,female,True
51,0.31,25,up,down,0.6465130999995381,0.7657475970312173,,psi_staircase_training,cRDM,,0.2610164742259427,0.2686063534539549,0.1149775919618593,390.78817590000017,1002,29,female,True
52,100.0,25,M,down,0.6021641000006639,1.759118653351156,,psi_staircase_training,emotion,,100.0,100.0,25.00050000000001,401.9045305,1002,29,female,True
53,145.0,25,M,up,1.1308357999996588,0.3211346395393487,,psi_staircase_training,emotion,,145.25719053245996,145.25719053245996,25.00050000000028,403.1878033000002,1002,29,female,True
54,121.0,25,F,up,0.3665096000004268,0.4156077686512882,,psi_staircase_training,emotion,,120.36392901436103,120.36392901436103,25.71326925488699,405.0880444000004,1002,29,female,True
55,97.0,25,F,down,1.0883674999995492,0.6880534873719655,,psi_staircase_training,emotion,,102.3887610608496,102.3887610608496,26.14633372628729,406.5543248000004,1002,29,female,True
56,113.0,25,M,down,1.050449999999728,1.6412276614385275,,psi_staircase_training,emotion,,114.01123255420406,114.01123255420406,23.00305641778335,409.65421460000016,1002,29,female,True
57,127.0,25,F,up,0.98031870000068,1.7822767976034417,,psi_staircase_training,emotion,,123.15505271238727,123.15505271238727,23.86267166612523,412.8374377,1002,29,female,True
58,117.0,25,M,up,0.9870515000002342,1.5424083952445178,,psi_staircase_training,emotion,,116.72664759921038,116.72664759921038,20.612160618334432,415.72066110000014,1002,29,female,True
59,107.0,25,F,up,0.4944949999999153,0.7163402871393784,,psi_staircase_training,emotion,,111.41772370799676,111.41772370799676,20.39996786109954,417.7872078999999,1002,29,female,True
60,91.0,25,F,down,0.9858848000003492,1.7147803384109803,,psi_staircase_training,emotion,,104.32443105099112,104.32443105099112,26.32628876540062,420.3538348000002,1002,29,female,True
61,93.0,25,M,down,0.6396714000002248,1.529641852235022,,psi_staircase_training,emotion,,107.92512315738632,107.92512315738632,23.70033126942176,423.23702950000006,1002,29,female,True
62,124.0,25,F,up,0.8620643000003838,0.7611673915956712,,psi_staircase_training,emotion,,110.22796413543166,110.22796413543166,21.45892762814926,425.0036587000004,1002,29,female,True
63,95.0,25,F,down,1.0831780999997136,1.1231632228959452,,psi_staircase_training,emotion,,108.403965494472,108.403965494472,19.38210143201049,427.3535343000003,1002,29,female,True
64,122.0,25,F,up,0.8945399000003817,1.3149532028490822,,psi_staircase_training,emotion,,109.94368713509012,109.94368713509012,17.31191981424421,430.12013579999984,1002,29,female,True
65,103.0,25,M,up,0.9122792999996818,0.6620166736473336,,psi_staircase_training,emotion,,108.67978030968648,108.67978030968648,15.463136412969188,432.05339840000033,1002,29,female,True
66,91.0,25,M,down,0.6417219000004479,0.4544863851204102,,psi_staircase_training,emotion,,105.20990095633208,105.20990095633208,18.6001237526918,433.7869601000002,1002,29,female,True
67,93.0,25,F,down,0.6817725000000792,1.4355456573126986,,psi_staircase_training,emotion,,106.36848545528969,106.36848545528969,16.668197030963324,436.2199074999999,1002,29,female,True
68,117.0,25,F,up,0.93587320000006,0.810367012767079,,psi_staircase_training,emotion,,107.17563135202876,107.17563135202876,15.063014166609644,438.0698048000004,1002,29,female,True
69,105.0,25,M,up,1.0493357000004837,0.5257427435623746,,psi_staircase_training,emotion,,106.13582299230195,106.13582299230195,13.527185789439574,439.8863971999999,1002,29,female,True
70,105.0,25,M,down,0.6640843000004679,0.9901749706628123,,psi_staircase_training,emotion,,104.2298454680224,104.2298454680224,13.199410957044265,442.2696601999996,1002,29,female,True
71,119.0,25,M,down,1.0673784999999043,0.5525839637241676,,psi_staircase_training,emotion,,106.1195220293339,106.1195220293339,14.45974207771448,443.83630379999977,1002,29,female,True
72,128.0,25,M,up,0.8208501999997679,1.9751721398357325,,psi_staircase_training,emotion,,108.7621841760053,108.7621841760053,20.506330094096256,447.2528296,1002,29,female,True
73,89.0,25,F,down,1.1629173999999691,1.364495792600498,,psi_staircase_training,emotion,,108.11964001896806,108.11964001896806,19.127220292555343,449.8027542,1002,29,female,True
74,126.0,25,F,up,1.281730300000163,1.1138956452789246,,psi_staircase_training,emotion,,108.67937327450387,108.67937327450387,17.848750640566752,452.4359679999998,1002,29,female,True
75,91.0,25,F,down,0.6447678000004089,0.4470599449261906,,psi_staircase_training,emotion,,108.15697605415043,108.15697605415043,16.680821938459385,454.5358931999999,1002,29,female,True
76,124.0,25,M,up,0.841244899999765,1.6655381941877696,,psi_staircase_training,emotion,,108.60816081661454,108.60816081661454,15.628967479262622,457.2024650000003,1002,29,female,True
77,93.0,25,M,down,0.729008999999678,0.8721426271626844,,psi_staircase_training,emotion,,108.16470646716778,108.16470646716778,14.68060119776411,459.28567010000006,1002,29,female,True
78,122.0,25,F,up,0.6605074999997669,1.6779253794153537,,psi_staircase_training,emotion,,108.54674295648798,108.54674295648798,13.841951923761767,462.0522815000004,1002,29,female,True
79,95.0,25,F,down,1.4178234000000884,0.5432307250381774,,psi_staircase_training,emotion,,108.14814307574028,108.14814307574028,13.086531707267383,463.61887149999984,1002,29,female,True
80,120.0,25,M,up,1.1442273999991812,1.0919227756097942,,psi_staircase_training,emotion,,108.49286282418268,108.49286282418268,12.42428378496099,466.4854713000004,1002,29,female,True
81,119.0,25,M,up,0.4929802999995445,0.4218325612566047,,psi_staircase_training,emotion,,108.11181749285068,108.11181749285068,11.821091556067165,468.4187165000003,1002,29,female,True
82,0.29,25,up,up,0.6824996999994255,1.3049749095155678,,psi_staircase,cRDM,,0.25,0.2569312402994632,0.105,487.75123450000046,1002,29,female,True
83,0.25,25,up,down,1.0595202000004065,1.2570672731011627,,psi_staircase,cRDM,,0.2191026665318312,0.2260132002683492,0.1046863203387393,489.9511537999997,1002,29,female,True
84,0.36,25,down,down,0.4756124000005002,1.685742068909218,,psi_staircase,cRDM,,0.3202997408361979,0.3276103223604739,0.1107465658214764,492.9510515000002,1002,29,female,True
85,0.33,25,down,down,0.5037538000005952,1.7276421306745802,,psi_staircase,cRDM,,0.2990372097977385,0.3064139828071687,0.1117492876491608,495.4009863000001,1002,29,female,True
86,0.31,25,up,up,0.3504994999993869,1.408080780502276,,psi_staircase,cRDM,,0.2780189805609542,0.2853981109641391,0.1117849993448387,497.58422750000045,1002,29,female,True
87,0.31,25,down,down,0.5622134999994159,1.1025656374823551,,psi_staircase,cRDM,,0.2582073586141265,0.2655339603556145,0.1109892529502702,499.36747790000027,1002,29,female,True
88,0.29,25,up,down,1.0648480999998355,0.505032461687744,,psi_staircase,cRDM,,0.2413824040928039,0.2485489846939696,0.1085651240775294,500.7008231,1002,29,female,True
89,0.34,25,down,down,0.6239689000003636,1.6718615560566694,,psi_staircase,cRDM,,0.3073454417166785,0.3149277051621045,0.1148622219650045,503.7006812,1002,29,female,True
90,0.33,25,down,down,0.6286961000005249,0.7954193220340682,,psi_staircase,cRDM,,0.2927292575981571,0.3001400641015301,0.1122648543745358,505.3839773,1002,29,female,True
91,0.33,25,up,up,0.6472190000004048,1.9776694716393064,,psi_staircase,cRDM,,0.2799629878781474,0.2871409858153892,0.1087380830626744,508.2504736000001,1002,29,female,True
92,0.33,25,down,down,0.6329502999997203,1.723803712707195,,psi_staircase,cRDM,,0.2695926699591431,0.2764764406857724,0.1042808927504711,510.8837233000004,1002,29,female,True
93,0.28,25,down,down,0.6323069000000032,0.9148602505335988,,psi_staircase,cRDM,,0.2614704990066661,0.2680289199272108,0.0993522323429645,512.7003402999999,1002,29,female,True
94,0.27,25,down,down,0.4447276000000784,0.5786798753019677,,psi_staircase,cRDM,,0.2464670158500881,0.2535999772647707,0.108055833614608,514.1669603999999,1002,29,female,True
95,0.27,25,up,down,1.1225052999998295,1.8964613345073724,,psi_staircase,cRDM,,0.2304596381176586,0.2381767732488235,0.1169053666823627,516.7671655000004,1002,29,female,True
96,0.32,25,up,up,0.6473171999996339,1.3738477966880571,,psi_staircase,cRDM,,0.2762334270077306,0.282674160920706,0.0975694149450837,519.5333974000005,1002,29,female,True
97,0.31,25,down,down,0.497404099999585,1.883760027108208,,psi_staircase,cRDM,,0.2699635361621891,0.2760639025578887,0.0924132541758888,522.3333106999999,1002,29,female,True
98,0.28,25,down,down,0.6540973000001031,1.3622896912783775,,psi_staircase,cRDM,,0.2639761126457052,0.2698453180907049,0.088911442267077,524.4665659000002,1002,29,female,True
99,0.27,25,up,down,0.8778291999997236,0.9149404115474722,,psi_staircase,cRDM,,0.2527208924700063,0.2591850578441984,0.0979243735558742,526.2998304000002,1002,29,female,True
100,0.31,25,up,up,0.5212423000002673,0.8824473640911439,,psi_staircase,cRDM,,0.2818327587367206,0.2866422813733069,0.0728585152185062,528.3164278000004,1002,29,female,True
101,0.3,25,up,up,0.8836097000003065,0.6870210120489084,,psi_staircase,cRDM,,0.277853528558358,0.2823379797322048,0.0679340713797483,529.7830497000004,1002,29,female,True
102,0.3,25,up,up,0.8670547000001534,0.3101109459837984,,psi_staircase,cRDM,,0.2734958837477033,0.2778400311455894,0.0658086369929155,531.2496226000003,1002,29,female,True
103,0.29,25,down,down,0.5938225999998394,1.6462158370077629,,psi_staircase,cRDM,,0.2699744846280461,0.2741483049142776,0.0632283849815806,534.0328564000001,1002,29,female,True
104,0.29,25,down,down,0.6228326999998899,0.5529000320892188,,psi_staircase,cRDM,,0.2650588554860926,0.2693232150512462,0.0645999467621685,535.4328329999998,1002,29,female,True
105,0.26,25,down,down,0.7072932000000947,1.6475890933014008,,psi_staircase,cRDM,,0.2606849329192555,0.26498989302197,0.0652149963434439,537.9493730000004,1002,29,female,True
106,0.26,25,up,up,1.042333499999586,1.088966031970029,,psi_staircase,cRDM,,0.2502199351493998,0.2554762740545769,0.0796272472455378,539.9993313000004,1002,29,female,True
107,0.26,25,up,up,0.8610803999999916,0.5181711827059655,,psi_staircase,cRDM,,0.2382026379643977,0.2444394588973428,0.0944803772003031,541.8325707000004,1002,29,female,True
108,0.25,25,down,down,0.6895345000002635,1.9984670797289923,,psi_staircase,cRDM,,0.2254599502521234,0.2326211908242625,0.1084842290250453,544.9491224000003,1002,29,female,True
109,0.25,25,down,down,0.5579944999999498,1.1608924314511275,,psi_staircase,cRDM,,0.2122814731160041,0.2203057296333354,0.121557888331333,547.0657173999998,1002,29,female,True
110,0.25,25,up,down,0.8857000000007247,1.6565552646210844,,psi_staircase,cRDM,,0.1998697287078362,0.208589823330166,0.1320990033220364,549.5489550000002,1002,29,female,True
111,0.26,25,up,up,1.4593824000003224,0.4815545425566407,,psi_staircase,cRDM,,0.2350866190125537,0.2421611226584591,0.1071702683396492,551.1823035999996,1002,29,female,True
112,0.25,25,down,down,0.5886043999998947,1.4064900165398706,,psi_staircase,cRDM,,0.2242290922870267,0.2320843430244472,0.1189976529154551,554.3321044000004,1002,29,female,True
113,0.25,25,up,up,0.9930111999992732,1.7711916008144113,,psi_staircase,cRDM,,0.213328776506343,0.2218928108107395,0.1297348761709026,556.9486680999998,1002,29,female,True
114,0.25,25,down,down,0.6360645000004297,1.4405920970714068,,psi_staircase,cRDM,,0.2032477331860921,0.2123647554548879,0.1381119823962365,559.6485733,1002,29,female,True
115,0.25,25,up,up,1.026539800000137,1.813439478015361,,psi_staircase,cRDM,,0.1941717058650731,0.2036991987561087,0.1443301213545018,562.3651417000001,1002,29,female,True
116,0.24,25,down,down,0.6398912000004202,0.4269267956619602,,psi_staircase,cRDM,,0.1860939049577299,0.1959153083547542,0.1487825139704662,564.0817672000003,1002,29,female,True
117,0.24,25,up,up,0.6099595000005138,1.0966110784187837,,psi_staircase,cRDM,,0.1785304007012673,0.1885808861899473,0.1522528336513054,566.0817274000001,1002,29,female,True
118,0.23,25,down,down,0.6230044000003545,0.873302650666028,,psi_staircase,cRDM,,0.1716998939546276,0.1819126903754514,0.1547116501312965,567.8316359,1002,29,female,True
119,0.19,25,up,up,1.0381553999995958,1.4226995497881516,,psi_staircase,cRDM,,0.1651486935426537,0.1754926154927522,0.1566980450590409,570.1315384999998,1002,29,female,True
120,0.16,25,up,down,1.3722152999998798,1.2049015013438331,,psi_staircase,cRDM,,0.1578904755625028,0.1683935810188447,0.1591094847773924,572.6314436000002,1002,29,female,True
121,0.23,25,down,down,0.8043191000006118,1.0661365672891738,,psi_staircase,cRDM,,0.1785501274133696,0.1885643075415528,0.1517028508650407,575.3313354000002,1002,29,female,True
122,0.21,25,down,down,0.5643833000003724,1.2348343836050275,,psi_staircase,cRDM,,0.1727754509401693,0.1828963492866075,0.1533195042247055,577.6312805999996,1002,29,female,True
123,0.16,25,down,down,0.8775317999998151,1.4661863398478276,,psi_staircase,cRDM,,0.1667993544167932,0.1770348677919682,0.1550557848177042,579.9311766000001,1002,29,female,True
124,0.15,25,up,up,0.6892621000006329,0.7512037242059457,,psi_staircase,cRDM,,0.1598569908162526,0.1702847757447949,0.1579684688729853,581.8144313000003,1002,29,female,True
125,0.14,25,up,up,0.8719590999999127,0.9895616025070422,,psi_staircase,cRDM,,0.1528487052214859,0.1634708971501572,0.1609135023924731,583.7646710999998,1002,29,female,True
126,0.14,25,down,up,0.995372800000041,0.7134547599437586,,psi_staircase,cRDM,,0.1457937482338516,0.1566110412222732,0.1638690500850504,585.6143032999998,1002,29,female,True
127,0.15,25,down,down,1.002197900000283,1.6568232800939102,,psi_staircase,cRDM,,0.1635808481669816,0.1739381494952711,0.1569007266354072,588.5474930999999,1002,29,female,True
128,0.14,25,down,down,0.5845662000001539,0.7832051067936502,,psi_staircase,cRDM,,0.1570584608418691,0.1676040268974917,0.1597527120688802,590.6141127000001,1002,29,female,True
129,0.13,25,up,up,0.7449206000001141,1.5162474029224868,,psi_staircase,cRDM,,0.1504673142524409,0.1612056569808502,0.1626730480791864,592.9807295,1002,29,female,True
130,0.13,25,up,up,0.6843886000006023,0.3693341754435339,,psi_staircase,cRDM,,0.1438308944950885,0.1547646298925185,0.1656330133034139,594.3472826999996,1002,29,female,True
131,0.12,25,up,up,1.0464009999996051,0.6946779445992359,,psi_staircase,cRDM,,0.137326176037665,0.1484409035759469,0.1683748277505212,595.9972484999998,1002,29,female,True
132,100.0,25,M,down,1.0439622999992937,1.6138175519449984,,psi_staircase,emotion,,100.0,100.0,25.00050000000001,640.9956728999996,1002,29,female,True
133,145.0,25,M,up,0.9644719999996596,1.9150500964471788,,psi_staircase,emotion,,145.25719053245996,145.25719053245996,25.00050000000028,644.3122008999999,1002,29,female,True
134,121.0,25,F,down,0.6535562999997637,1.021306585226288,,psi_staircase,emotion,,120.36392901436103,120.36392901436103,25.71326925488699,646.6620787000002,1002,29,female,True
135,137.0,25,F,up,0.7696174000002429,0.9313118179608012,,psi_staircase,emotion,,137.8359832966118,137.8359832966118,25.292325986285498,648.6120222999998,1002,29,female,True
136,127.0,25,M,up,0.6797546999996484,0.6301908632095479,,psi_staircase,emotion,,126.46069055808248,126.46069055808248,23.64975108561129,650.3619042,1002,29,female,True
137,113.0,25,F,up,0.8284461000002921,1.4426645780463334,,psi_staircase,emotion,,117.51644698116752,117.51644698116752,24.57617413513076,652.8452090999999,1002,29,female,True
138,94.0,25,M,down,0.5322957000007591,1.1378212860670345,,psi_staircase,emotion,,106.52678028801836,106.52678028801836,30.115701177201284,655.1784261000003,1002,29,female,True
139,98.0,25,F,down,1.236912200000006,1.724940997329603,,psi_staircase,emotion,,112.69176471044776,112.69176471044776,27.72735343080098,657.8117000000002,1002,29,female,True
140,132.0,25,F,up,0.7480410000007396,0.8676110815164644,,psi_staircase,emotion,,116.555244613451,116.555244613451,25.68608228109161,660.2785961999998,1002,29,female,True
141,103.0,25,M,down,0.4925020999999105,1.189324173907596,,psi_staircase,emotion,,113.7593527695303,113.7593527695303,23.877520687671648,662.5781555000003,1002,29,female,True
142,131.0,25,F,up,1.1975474999999278,1.1442859633191966,,psi_staircase,emotion,,116.68945046105982,116.68945046105982,21.89311654377142,664.5781158999998,1002,29,female,True
143,107.0,25,F,down,1.4312565000000177,0.3699300982686891,,psi_staircase,emotion,,114.79233295674628,114.79233295674628,20.061136582159428,666.5113677999998,1002,29,female,True
144,130.0,25,F,up,0.7513772000002064,0.3149971614047815,,psi_staircase,emotion,,117.11272584921343,117.11272584921343,18.334895816501486,668.6112934000002,1002,29,female,True
145,111.0,25,M,down,1.250065899999754,0.5205292617313425,,psi_staircase,emotion,,115.79584557437082,115.79584557437082,16.64129144990507,670.2445524000004,1002,29,female,True
146,121.0,25,M,up,1.0778829999999289,1.2896410850538973,,psi_staircase,emotion,,117.79993741073204,117.79993741073204,15.346325248223833,673.1278005000004,1002,29,female,True
147,105.0,25,F,down,0.6873187999999573,1.2715631379368424,,psi_staircase,emotion,,115.90108364121376,115.90108364121376,14.755768981299555,675.8443362999997,1002,29,female,True
148,126.0,25,F,up,0.7567113999994035,0.6086780899719835,,psi_staircase,emotion,,116.8217379368045,116.8217379368045,13.256523911270982,677.5109536999998,1002,29,female,True
149,114.0,25,M,up,0.4857520999994449,0.4892967907129821,,psi_staircase,emotion,,115.99237304873284,115.99237304873284,12.006338949191171,679.1109142000005,1002,29,female,True
150,104.0,25,M,up,0.8221217000000252,0.8359328940498201,,psi_staircase,emotion,,114.01275936203024,114.01275936203024,12.685300728448226,680.7775111000001,1002,29,female,True
151,95.0,25,M,up,1.145957200000339,1.7017007108662556,,psi_staircase,emotion,,111.09484566507366,111.09484566507366,18.41671002459685,683.6607102999997,1002,29,female,True
152,85.0,25,M,down,0.6093823999999586,1.4502852447472725,,psi_staircase,emotion,,106.99921558431444,106.99921558431444,25.800972385112424,686.6272881000004,1002,29,female,True
153,86.0,25,F,down,0.4591454000001249,1.070813905352571,,psi_staircase,emotion,,108.16743602848256,108.16743602848256,24.21753990293977,688.6605104,1002,29,female,True
154,87.0,25,F,down,0.5178726000003735,1.1588416358777802,,psi_staircase,emotion,,109.0829854916348,109.0829854916348,22.794253898695636,690.6437924000002,1002,29,female,True
155,89.0,25,F,down,0.7056235999998535,1.1933311084688876,,psi_staircase,emotion,,109.8053303636605,109.8053303636605,21.52325566682224,692.7270439000004,1002,29,female,True
156,131.0,25,M,up,0.7169819999999163,1.3180384736370685,,psi_staircase,emotion,,110.40819465960944,110.40819465960944,20.37258396447605,695.0936511999998,1002,29,female,True
157,90.0,25,M,down,1.1164245999998457,0.5844718633402664,,psi_staircase,emotion,,109.88092805914968,109.88092805914968,19.31974943505506,696.7602297000003,1002,29,female,True
158,129.0,25,F,up,0.606409299999541,0.7192574814625778,,psi_staircase,emotion,,110.36866834190704,110.36866834190704,18.336778773938278,698.9602330999996,1002,29,female,True
159,92.0,25,F,down,0.5915512000001399,0.4396750356262449,,psi_staircase,emotion,,109.9072219438846,109.9072219438846,17.43069190757563,700.3600988999997,1002,29,female,True
160,127.0,25,M,up,0.6619474999997692,0.7253752814499943,,psi_staircase,emotion,,110.3369930476291,110.3369930476291,16.59817298871003,702.0267182999996,1002,29,female,True
161,94.0,25,M,down,0.6623219000002791,0.5508214698018877,,psi_staircase,emotion,,109.91844904182544,109.91844904182544,15.833240706987745,703.5933396,1002,29,female,True
162,125.0,25,F,up,1.108401800000138,1.627724541511272,,psi_staircase,emotion,,110.31353908831166,110.31353908831166,15.136105053430938,706.2432292000003,1002,29,female,True
163,96.0,25,M,up,0.757866500000091,1.397949113529828,,psi_staircase,emotion,,109.91852874270884,109.91852874270884,14.493764900846918,709.1097970000001,1002,29,female,True
164,89.0,25,F,up,0.6405414999999266,0.3656042207797995,,psi_staircase,emotion,,108.04175655488643,108.04175655488643,17.384448375588637,710.5930771000003,1002,29,female,True
165,82.0,25,M,down,0.840043300000616,1.8823307374271765,,psi_staircase,emotion,,105.96372262257287,105.96372262257287,21.5900282805103,713.4766322000005,1002,29,female,True
166,83.0,25,F,down,0.7396883999999773,0.4725213777619668,,psi_staircase,emotion,,106.35872238988954,106.35872238988954,20.760247690203105,715.1429000999997,1002,29,female,True
167,128.0,25,M,up,0.7931762999996863,0.8615261911410583,,psi_staircase,emotion,,106.69794322318016,106.69794322318016,20.01564380166583,717.1094841000004,1002,29,female,True
168,85.0,25,F,down,0.626905699999952,1.977970552917769,,psi_staircase,emotion,,106.3563278494122,106.3563278494122,19.32004730992255,720.2427203999996,1002,29,female,True
169,127.0,25,M,up,0.5206890999997995,0.8009160906961599,,psi_staircase,emotion,,106.66924966799324,106.66924966799324,18.672621890076904,722.0259763000004,1002,29,female,True
170,86.0,25,M,down,0.5768356999997195,1.7667059241542344,,psi_staircase,emotion,,106.359957443648,106.359957443648,18.075817642684918,724.6758443999997,1002,29,female,True
171,125.0,25,F,up,0.6005697000000509,1.858746445159255,,psi_staircase,emotion,,106.63850895132369,106.63850895132369,17.527919053035937,727.4590865999999,1002,29,female,True
172,124.0,25,F,up,0.3835085999999137,0.5219474222847668,,psi_staircase,emotion,,106.33308308621568,106.33308308621568,17.00712594838582,728.9423806000004,1002,29,female,True
173,88.0,25,F,down,0.6512778999995135,0.3777013383066419,,psi_staircase,emotion,,106.04749272898684,106.04749272898684,16.53421050198903,730.0923604,1002,29,female,True
174,123.0,25,M,up,1.2180242000004,1.5520658030796806,,psi_staircase,emotion,,106.3186456801427,106.3186456801427,16.08422858535818,732.6755980999997,1002,29,female,True
175,89.0,25,M,,,0.8045529620332352,,psi_staircase,emotion,,106.04590168471258,106.04590168471258,15.674626750351386,735.0588194000002,1002,29,female,True
176,89.0,25,F,down,0.6605766000002404,0.8045529620332352,,psi_staircase,emotion,,106.04590168471258,106.04590168471258,15.674626750351386,738.5420267999998,1002,29,female,True
177,122.0,25,F,down,0.8420489000000089,1.4506601452359082,,psi_staircase,emotion,,106.2990168846277,106.2990168846277,15.288847059026429,741.0086136,1002,29,female,True
178,89.0,25,F,down,0.6107960999997886,1.7399969397260375,,psi_staircase,emotion,,107.71277044702474,107.71277044702474,17.207938190009155,743.9418255,1002,29,female,True
179,126.0,25,F,up,0.6119116999998369,1.7890634763637594,,psi_staircase,emotion,,107.9553931444748,107.9553931444748,16.80027435735707,746.6917313000004,1002,29,female,True
180,90.0,25,M,down,0.7992831999999908,0.3485979769848265,,psi_staircase,emotion,,107.70937382516438,107.70937382516438,16.414566119060254,748.0083596000004,1002,29,female,True
181,125.0,25,M,down,1.0553283000008378,1.8477937652536889,,psi_staircase,emotion,,107.94182028598652,107.94182028598652,16.059885922090643,751.0082947999999,1002,29,female,True
182,130.0,25,M,up,0.6551710000003368,0.4087788381396861,,psi_staircase,emotion,,109.28758051300534,109.28758051300534,17.976932556293942,752.8414800999999,1002,29,female,True
183,0.1308443431162611,25,down,up,1.092609999999695,0.8453728309760269,,experiment,cRDM,0.0,,,,763.4910361000002,1002,29,female,True
184,0.1308443431162611,25,down,up,0.6118504000005487,1.0951611780303916,,experiment,cRDM,0.0,,,,765.9578007,1002,29,female,True
185,0.1308443431162611,25,down,down,0.6881113999997979,1.1700368825995604,,experiment,cRDM,0.0,,,,768.0075382000005,1002,29,female,True
186,0.1308443431162611,25,up,up,0.749511199999688,1.9125363394855484,,experiment,cRDM,0.0,,,,770.8740987000001,1002,29,female,True
187,0.1308443431162611,25,up,up,0.6219492999998693,1.5421480316920495,,experiment,cRDM,0.0,,,,773.4406507000003,1002,29,female,True
188,0.1308443431162611,25,up,up,0.7933624999996027,1.0316402988064766,,experiment,cRDM,0.0,,,,775.3572715999999,1002,29,female,True
189,0.1308443431162611,25,up,up,0.6221138000000792,1.488547000314537,,experiment,cRDM,0.0,,,,777.8905009,1002,29,female,True
190,0.1308443431162611,25,up,up,0.6332282000003033,1.7197215604409375,,experiment,cRDM,0.0,,,,780.4904128999997,1002,29,female,True
191,0.1308443431162611,25,down,down,0.7042738999998619,1.8993288230748973,,experiment,cRDM,0.0,,,,783.290336,1002,29,female,True
192,0.1308443431162611,25,down,up,0.5750893999993423,1.7734320022536358,,experiment,cRDM,0.0,,,,786.0235420999998,1002,29,female,True
193,0.1308443431162611,25,up,up,0.6974408000005496,1.330054573811408,,experiment,cRDM,0.0,,,,788.1901543000004,1002,29,female,True
194,0.1308443431162611,25,down,up,0.4391255999998975,0.5893058639372841,,experiment,cRDM,0.0,,,,789.7233929000004,1002,29,female,True
195,0.1308443431162611,25,down,up,0.684306099999958,1.248343049576952,,experiment,cRDM,0.0,,,,791.6733290000002,1002,29,female,True
196,0.1308443431162611,25,up,up,0.9110854999998992,1.7407007717644796,,experiment,cRDM,0.0,,,,794.3565448999998,1002,29,female,True
197,0.1308443431162611,25,down,down,0.7501693000003797,1.547199840670377,,experiment,cRDM,0.0,,,,797.0564352000001,1002,29,female,True
198,0.1308443431162611,25,down,down,0.6652413000001616,0.4659991143003184,,experiment,cRDM,0.0,,,,798.5563846000005,1002,29,female,True
199,0.1308443431162611,25,up,up,0.6559958999996525,1.6586170968205638,,experiment,cRDM,0.0,,,,801.1396420000001,1002,29,female,True
200,0.1308443431162611,25,up,up,1.288387600000533,1.30591600304178,,experiment,cRDM,0.0,,,,803.3561978999996,1002,29,female,True
201,0.1308443431162611,25,down,up,0.9510824000008142,0.9963353581727404,,experiment,cRDM,0.0,,,,805.8894994000002,1002,29,female,True
202,0.1308443431162611,25,up,up,0.7615980000000491,1.4588102532433724,,experiment,cRDM,0.0,,,,808.5560309000002,1002,29,female,True
203,0.1308443431162611,25,down,down,0.6713153999999122,0.9032489262506428,,experiment,cRDM,0.0,,,,810.4892896000001,1002,29,female,True
204,0.1308443431162611,25,down,down,0.6724182999996628,0.5638572622073078,,experiment,cRDM,0.0,,,,811.9892396000005,1002,29,female,True
205,0.1308443431162611,25,up,up,0.6394880000007106,1.5073825796153733,,experiment,cRDM,0.0,,,,814.4391285000002,1002,29,female,True
206,0.1308443431162611,25,down,down,0.962571900000512,1.0072049460541683,,experiment,cRDM,0.0,,,,816.3390626,1002,29,female,True
207,0.1308443431162611,25,up,up,0.9016688000001524,0.6207834428083583,,experiment,cRDM,0.0,,,,818.1890008,1002,29,female,True
208,0.1308443431162611,25,up,up,0.7476824000004854,0.9943148594622228,,experiment,cRDM,0.0,,,,820.3389220999998,1002,29,female,True
209,0.1308443431162611,25,down,down,0.798820799999703,1.0928161187813776,,experiment,cRDM,0.0,,,,822.4388165999999,1002,29,female,True
210,0.1308443431162611,25,up,up,0.7311970000000656,0.7124647161781781,,experiment,cRDM,0.0,,,,824.2054439000003,1002,29,female,True
211,0.1308443431162611,25,down,down,0.6394996999997602,0.8823531626105519,,experiment,cRDM,0.0,,,,826.0720944000004,1002,29,female,True
212,0.1308443431162611,25,up,up,0.6530086999991909,1.569901644786424,,experiment,cRDM,0.0,,,,828.5386033000004,1002,29,female,True
213,0.1308443431162611,25,up,up,0.5911030999996001,1.13633319438305,,experiment,cRDM,0.0,,,,830.5885557000001,1002,29,female,True
214,0.1308443431162611,25,down,down,0.6864998000000924,1.562063354172442,,experiment,cRDM,0.0,,,,833.0051377,1002,29,female,True
215,0.1308443431162611,25,down,down,1.139883899999404,0.7261690212356902,,experiment,cRDM,0.0,,,,834.6717578999996,1002,29,female,True
216,0.1308443431162611,25,down,down,0.6739497999997184,0.8927368075901052,,experiment,cRDM,0.0,,,,836.9716842999997,1002,29,female,True
217,0.1308443431162611,25,down,down,0.7020546999992803,0.5241664778965088,,experiment,cRDM,0.0,,,,838.4215899000001,1002,29,female,True
218,0.1308443431162611,25,up,up,0.8857714000005217,1.6550004571521628,,experiment,cRDM,0.0,,,,841.0548538000003,1002,29,female,True
219,0.1308443431162611,25,up,up,0.6591666999993322,1.957284240311176,,experiment,cRDM,0.0,,,,844.1714190000002,1002,29,female,True
220,0.1308443431162611,25,up,up,0.6459657999994306,1.3605752751723956,,experiment,cRDM,0.0,,,,846.4546286000004,1002,29,female,True
221,0.1308443431162611,25,down,down,0.7020122999992964,0.5316189824865176,,experiment,cRDM,0.0,,,,847.9045715000002,1002,29,female,True
222,0.1308443431162611,25,up,down,1.0567352999996729,1.2305687302506227,,experiment,cRDM,0.0,,,,850.0878613000004,1002,29,female,True
223,0.1308443431162611,25,down,down,0.6011646999995719,0.7507958001117617,,experiment,cRDM,0.0,,,,852.1544295000003,1002,29,female,True
224,0.1308443431162611,25,down,,,0.3834682494952516,,experiment,cRDM,0.0,,,,853.4043825999997,1002,29,female,True
225,0.1308443431162611,25,up,up,0.8396468999999342,0.8831950858954514,,experiment,cRDM,0.0,,,,856.9709481999998,1002,29,female,True
226,0.1308443431162611,25,down,down,0.6387295000004087,0.999159466495222,,experiment,cRDM,0.0,,,,859.0708739000002,1002,29,female,True
227,0.1308443431162611,25,up,up,0.894833600000311,0.8364746475186837,,experiment,cRDM,0.0,,,,860.8207709999997,1002,29,female,True
228,0.1308443431162611,25,up,down,0.8789829999996073,1.5435341749955866,,experiment,cRDM,0.0,,,,863.5206405999998,1002,29,female,True
229,0.1308443431162611,25,up,up,0.6907639000000927,0.7923569492157545,,experiment,cRDM,0.0,,,,865.4539109999996,1002,29,female,True
230,0.1308443431162611,25,up,up,0.7310508999999001,1.3668429157316462,,experiment,cRDM,0.0,,,,867.7705446,1002,29,female,True
231,0.1308443431162611,25,down,down,0.7661674000000858,1.799180518872986,,experiment,cRDM,0.0,,,,870.5704286999999,1002,29,female,True
232,0.1308443431162611,25,down,down,0.7089363000004596,0.8516050572185581,,experiment,cRDM,0.0,,,,872.4536606000001,1002,29,female,True
233,0.1308443431162611,25,down,down,0.8403794999994716,1.251211521300722,,experiment,cRDM,0.0,,,,874.6702149000002,1002,29,female,True
234,0.1308443431162611,25,down,down,0.6964736999998422,0.7845701246783274,,experiment,cRDM,0.0,,,,876.5701577999998,1002,29,female,True
235,0.1308443431162611,25,up,down,0.5185084999993705,1.0255060467515615,,experiment,cRDM,0.0,,,,878.5700839000001,1002,29,female,True
236,0.1308443431162611,25,up,up,0.5938421000000744,1.5413628573813123,,experiment,cRDM,0.0,,,,880.8867252,1002,29,female,True
237,0.1308443431162611,25,up,down,0.7029723000005106,0.790767912593016,,experiment,cRDM,0.0,,,,882.5366309000001,1002,29,female,True
238,0.1308443431162611,25,up,down,0.7213940000001458,1.1506086715910238,,experiment,cRDM,0.0,,,,884.6531952000005,1002,29,female,True
239,0.1308443431162611,25,down,down,0.522123400000055,0.7582409229929098,,experiment,cRDM,0.0,,,,886.3864898000002,1002,29,female,True
240,0.1308443431162611,25,down,down,0.8861933999996836,1.160352043968215,,experiment,cRDM,0.0,,,,888.3364099999999,1002,29,female,True
241,0.1308443431162611,25,down,down,0.6992332999998325,0.8436829576527178,,experiment,cRDM,0.0,,,,890.3363405999999,1002,29,female,True
242,0.1308443431162611,25,up,up,0.6996674000001804,0.8464016423454219,,experiment,cRDM,0.0,,,,892.1529209,1002,29,female,True
243,0.1308443431162611,25,up,down,0.8534236000004967,1.9307121962467044,,experiment,cRDM,0.0,,,,895.0361676000002,1002,29,female,True
244,0.1308443431162611,25,down,up,1.0315546000001632,1.7339411465384231,,experiment,cRDM,0.0,,,,897.8860989000004,1002,29,female,True
245,0.1308443431162611,25,up,down,0.891304200000377,1.6518878390317704,,experiment,cRDM,0.0,,,,900.8192858000002,1002,29,female,True
246,0.1308443431162611,25,down,down,0.5587747999998101,1.856810101456913,,experiment,cRDM,0.0,,,,903.8358146,1002,29,female,True
247,0.1308443431162611,25,up,up,1.0492107000000033,0.8959803874581835,,experiment,cRDM,0.0,,,,905.5524095,1002,29,female,True
248,0.1308443431162611,25,up,up,1.2965111000003162,0.3125463061879355,,experiment,cRDM,0.0,,,,907.1690356999998,1002,29,female,True
249,0.1308443431162611,25,down,down,0.6763006000001042,1.517257012515138,,experiment,cRDM,0.0,,,,910.2522713999996,1002,29,female,True
250,0.1308443431162611,25,up,down,0.6427561000000424,1.631254079925759,,experiment,cRDM,0.0,,,,912.8188281000002,1002,29,female,True
251,0.1308443431162611,25,down,down,0.6765101999999388,1.525737049847779,,experiment,cRDM,0.0,,,,915.2520750000004,1002,29,female,True
252,0.1308443431162611,25,down,down,0.5422614999997677,1.084521648843977,,experiment,cRDM,0.0,,,,917.2853213,1002,29,female,True
253,0.1308443431162611,25,down,down,0.5859843000007459,1.9815202163530288,,experiment,cRDM,0.0,,,,920.0686022999998,1002,29,female,True
254,0.1308443431162611,25,down,down,0.6514170000000377,1.1663151190402925,,experiment,cRDM,0.0,,,,922.0851666999996,1002,29,female,True
255,0.1308443431162611,25,up,up,0.7228454999994938,1.7934337047805295,,experiment,cRDM,0.0,,,,924.8017412,1002,29,female,True
256,0.1308443431162611,25,down,down,0.5839562000001024,1.5083147708587534,,experiment,cRDM,0.0,,,,927.3016229000004,1002,29,female,True
257,0.1308443431162611,25,down,down,1.5246782000003805,1.065183409522249,,experiment,cRDM,0.0,,,,929.2349106,1002,29,female,True
258,0.1308443431162611,25,down,down,0.7271663999999873,1.6303585940614735,,experiment,cRDM,0.0,,,,932.6514188,1002,29,female,True
259,0.1308443431162611,25,up,up,0.7337257999997746,1.0805784855424074,,experiment,cRDM,0.0,,,,934.7180201,1002,29,female,True
260,0.1308443431162611,25,up,down,0.7259876999996777,1.8178902663333296,,experiment,cRDM,0.0,,,,937.5345602999996,1002,29,female,True
261,0.1308443431162611,25,up,up,0.5711731999999756,1.9103718206679916,,experiment,cRDM,0.0,,,,940.4344779000004,1002,29,female,True
262,0.1308443431162611,25,up,down,0.7008154000004652,0.4642555297286779,,experiment,cRDM,0.0,,,,941.7177776,1002,29,female,True
263,115.0,25,M,down,1.5027546000001166,0.8179334354789087,,experiment,emotion,0.0,,,,949.7008721000002,1002,29,female,True
264,111.0,25,M,down,1.180486899999778,1.6969803230627745,,experiment,emotion,0.0,,,,953.1840677,1002,29,female,True
265,115.0,25,F,down,0.7316337000002022,1.445237193505756,,experiment,emotion,0.0,,,,956.0839827,1002,29,female,True
266,102.0,25,F,down,0.6260866000002352,1.7011817163665008,,experiment,emotion,0.0,,,,958.8005217999998,1002,29,female,True
267,106.0,25,M,down,0.5141271000002234,1.690284086414493,,experiment,emotion,0.0,,,,961.4004495999998,1002,29,female,True
268,111.0,25,F,down,0.7934969999996611,0.3325492378032722,,experiment,emotion,0.0,,,,962.5170546999998,1002,29,female,True
269,106.0,25,M,down,0.5899578999997175,0.359904135116435,,experiment,emotion,0.0,,,,963.9336570000004,1002,29,female,True
270,102.0,25,M,down,0.5253341000006913,0.9990608837471308,,experiment,emotion,0.0,,,,965.8002812000004,1002,29,female,True
271,102.0,25,F,down,0.666769700000259,1.8104254578473955,,experiment,emotion,0.0,,,,968.4168453000002,1002,29,female,True
272,115.0,25,F,up,0.780820500000118,0.543396987860003,,experiment,emotion,0.0,,,,969.916773,1002,29,female,True
273,111.0,25,F,down,0.6035464000005959,0.8883648513561684,,experiment,emotion,0.0,,,,971.8500295000003,1002,29,female,True
274,106.0,25,F,down,0.5135771000004752,1.2285719156310697,,experiment,emotion,0.0,,,,973.9499966000004,1002,29,female,True
275,115.0,25,F,up,1.072061400000166,1.6900052298117163,,experiment,emotion,0.0,,,,976.4165499,1002,29,female,True
276,102.0,25,F,down,0.5458229999994728,1.8932525161417089,,experiment,emotion,0.0,,,,979.6497461,1002,29,female,True
277,106.0,25,M,up,0.9682339999999384,1.0526004564326643,,experiment,emotion,0.0,,,,981.5163565000004,1002,29,female,True
278,111.0,25,M,up,0.5849690000004557,0.5919902701497739,,experiment,emotion,0.0,,,,983.3496016999998,1002,29,female,True
279,102.0,25,M,up,0.8650006999996549,0.3937342816155338,,experiment,emotion,0.0,,,,984.5995752,1002,29,female,True
280,111.0,25,M,up,0.7181213000003481,1.4778265212498125,,experiment,emotion,0.0,,,,987.1994787000004,1002,29,female,True
281,111.0,25,F,up,1.6598601000005146,1.189757939055108,,experiment,emotion,0.0,,,,989.3827435000004,1002,29,female,True
282,115.0,25,M,down,1.0483284000001731,1.7296123683155256,,experiment,emotion,0.0,,,,993.0492571000004,1002,29,female,True
283,102.0,25,M,down,0.5967513000005056,1.838878996465096,,experiment,emotion,0.0,,,,996.2158172999998,1002,29,female,True
284,106.0,25,F,down,0.4595175000004019,1.1505064188887075,,experiment,emotion,0.0,,,,998.2490537000004,1002,29,female,True
285,115.0,25,M,down,0.5016711999996915,1.907706317625045,,experiment,emotion,0.0,,,,1000.8989577000002,1002,29,female,True
286,106.0,25,F,up,0.8290070999992167,0.8318378729805205,,experiment,emotion,0.0,,,,1002.5155830000004,1002,29,female,True
287,106.0,25,F,down,0.8207795999996961,1.240080336496215,,experiment,emotion,0.0,,,,1004.8487899000002,1002,29,female,True
288,111.0,25,M,up,0.8161620999999286,0.407438399330425,,experiment,emotion,0.0,,,,1006.3654509999996,1002,29,female,True
289,115.0,25,M,up,0.6882060999996611,0.6734327993827633,,experiment,emotion,0.0,,,,1008.1153734,1002,29,female,True
290,102.0,25,F,down,1.57594969999991,1.5218992747176738,,experiment,emotion,0.0,,,,1010.5986030000004,1002,29,female,True
291,111.0,25,M,up,0.7070602000003419,1.1665100403591169,,experiment,emotion,0.0,,,,1013.5985066000004,1002,29,female,True
292,102.0,25,F,down,0.946205799999916,1.979189375792952,,experiment,emotion,0.0,,,,1016.5483414,1002,29,female,True
293,106.0,25,F,,,1.6962321704449486,,experiment,emotion,0.0,,,,1019.4482356,1002,29,female,True
294,115.0,25,F,down,1.361414200000581,0.8085237346745067,,experiment,emotion,0.0,,,,1022.9481453999996,1002,29,female,True
295,111.0,25,M,down,0.9732292999997298,1.9364079469003823,,experiment,emotion,0.0,,,,1026.5313333000004,1002,29,female,True
296,102.0,25,M,up,0.9096579000006386,0.5690336601667141,,experiment,emotion,0.0,,,,1028.3478977000004,1002,29,female,True
297,106.0,25,M,up,0.60436270000082,0.4140042088843524,,experiment,emotion,0.0,,,,1029.9311975,1002,29,female,True
298,106.0,25,F,up,0.5307787000001554,1.9893548507489245,,experiment,emotion,0.0,,,,1032.7977781999998,1002,29,female,True
299,115.0,25,F,up,1.6025260999995226,1.6811779022790627,,experiment,emotion,0.0,,,,1035.2810369,1002,29,female,True
300,111.0,25,M,down,1.2393138999996154,0.9138274556264304,,experiment,emotion,0.0,,,,1038.0642729,1002,29,female,True
301,115.0,25,F,up,0.7517882000001919,1.0473207020776527,,experiment,emotion,0.0,,,,1040.6308034000003,1002,29,female,True
302,102.0,25,M,up,0.7757927000002383,0.7019168660915283,,experiment,emotion,0.0,,,,1042.3807640000005,1002,29,female,True
303,106.0,25,M,down,0.710960200000045,0.8044914360892923,,experiment,emotion,0.0,,,,1044.2306685000003,1002,29,female,True
304,102.0,25,M,up,1.5452943999998752,0.7393689571394084,,experiment,emotion,0.0,,,,1045.9472698999998,1002,29,female,True
305,102.0,25,F,down,0.7041099000007307,1.3162892830977069,,experiment,emotion,0.0,,,,1049.0805172,1002,29,female,True
306,115.0,25,F,up,1.1737933999993402,0.8547712771522753,,experiment,emotion,0.0,,,,1050.9137882000005,1002,29,female,True
307,111.0,25,M,down,0.7805528999997478,1.170142119956531,,experiment,emotion,0.0,,,,1053.5470016999998,1002,29,female,True
308,106.0,25,F,down,1.0389568000000509,1.1191674854270637,,experiment,emotion,0.0,,,,1055.7136011000002,1002,29,female,True
309,111.0,25,F,down,0.8830336999999417,0.5744392396729538,,experiment,emotion,0.0,,,,1057.6135365,1002,29,female,True
310,115.0,25,M,down,0.6534572999999,1.064790280273557,,experiment,emotion,0.0,,,,1059.8301001999998,1002,29,female,True
311,106.0,25,M,down,0.6855362000005698,1.563287640198349,,experiment,emotion,0.0,,,,1062.3300202,1002,29,female,True
312,115.0,25,F,up,0.6293468000003486,1.8213056395666087,,experiment,emotion,0.0,,,,1065.1132429,1002,29,female,True
313,111.0,25,M,up,1.0481284999996203,1.2829820781324082,,experiment,emotion,0.0,,,,1067.296518,1002,29,female,True
314,102.0,25,F,up,1.029096200000822,0.3652234450516213,,experiment,emotion,0.0,,,,1068.9964547,1002,29,female,True
315,111.0,25,F,down,1.1099137000001065,1.1292234923538462,,experiment,emotion,0.0,,,,1071.4296393000004,1002,29,female,True
316,106.0,25,F,down,0.6340208000001439,0.6047826218223139,,experiment,emotion,0.0,,,,1073.4296049000004,1002,29,female,True
317,115.0,25,M,up,1.907303899999533,0.6731995265608548,,experiment,emotion,0.0,,,,1074.9962327000003,1002,29,female,True
318,102.0,25,M,down,0.6548152999994272,1.2764646053062385,,experiment,emotion,0.0,,,,1078.4627222999998,1002,29,female,True
319,111.0,25,F,down,1.117509699999573,0.6552665670100841,,experiment,emotion,0.0,,,,1080.0460389,1002,29,female,True
320,111.0,25,F,down,0.6705903000001854,1.0719476426347772,,experiment,emotion,0.0,,,,1082.4959596999995,1002,29,female,True
321,102.0,25,M,up,0.6303946999996697,0.3960221070588812,,experiment,emotion,0.0,,,,1083.8291706,1002,29,female,True
322,115.0,25,M,up,1.5647628999995504,1.913584233685301,,experiment,emotion,0.0,,,,1086.6457898999995,1002,29,female,True
323,115.0,25,M,up,0.8015378999998575,1.3879002039554835,,experiment,emotion,0.0,,,,1089.8790128,1002,29,female,True
324,106.0,25,M,up,0.7492751999998291,0.3515530041281877,,experiment,emotion,0.0,,,,1091.3122736000005,1002,29,female,True
325,106.0,25,M,down,0.9220757000002776,1.9683499708938192,,experiment,emotion,0.0,,,,1094.2955082999997,1002,29,female,True
326,102.0,25,F,down,0.8644706000004589,1.4634360052288586,,experiment,emotion,0.0,,,,1096.9620808999998,1002,29,female,True
327,106.0,25,F,down,0.534196399999928,0.5586976464718658,,experiment,emotion,0.0,,,,1098.6453542,1002,29,female,True
328,115.0,25,M,up,0.931631099999322,1.805205073123852,,experiment,emotion,0.0,,,,1101.2619169,1002,29,female,True
329,111.0,25,F,up,1.4847516999998334,1.7314589775960068,,experiment,emotion,0.0,,,,1104.2118219000004,1002,29,female,True
330,102.0,25,F,down,0.9428871000000072,1.591911911517804,,experiment,emotion,0.0,,,,1107.5616633999998,1002,29,female,True
331,102.0,25,F,down,0.8533380999997462,1.712098120186914,,experiment,emotion,0.0,,,,1110.4782481000002,1002,29,female,True
332,111.0,25,M,down,0.8553734000006443,0.4240139698992805,,experiment,emotion,0.0,,,,1112.028166,1002,29,female,True
333,106.0,25,F,down,0.5848213999997824,1.3973672517972957,,experiment,emotion,0.0,,,,1114.5447783,1002,29,female,True
334,115.0,25,F,down,1.1259220000001733,0.5433227634233367,,experiment,emotion,0.0,,,,1115.9446896,1002,29,female,True
335,102.0,25,F,down,0.7060660000006465,1.9978522299597397,,experiment,emotion,0.0,,,,1119.3445111,1002,29,female,True
336,106.0,25,M,down,0.8090308999999252,0.8570636375664302,,experiment,emotion,0.0,,,,1121.1945134999996,1002,29,female,True
337,102.0,25,M,down,0.7617794999996477,0.6572136073599153,,experiment,emotion,0.0,,,,1122.9277690999998,1002,29,female,True
338,111.0,25,F,up,0.8455573999999615,1.9564528484703827,,experiment,emotion,0.0,,,,1125.9109932,1002,29,female,True
339,115.0,25,M,up,0.4002152000002752,1.2056314961108896,,experiment,emotion,0.0,,,,1128.244237,1002,29,female,True
340,106.0,25,F,up,1.1156756999998834,0.383362545291786,,experiment,emotion,0.0,,,,1129.3108693000004,1002,29,female,True
341,115.0,25,M,up,1.344774199999847,1.0749869848146618,,experiment,emotion,0.0,,,,1131.7607940999997,1002,29,female,True
342,111.0,25,M,down,0.9109176000001752,1.4852013673985072,,experiment,emotion,0.0,,,,1134.8606735000003,1002,29,female,True
343,0.1308443431162611,25,up,up,0.8163701999992554,0.3565711946875071,,experiment,cRDM,1.0,,,,1145.7101792000003,1002,29,female,True
344,0.1308443431162611,25,up,up,0.8580740000006699,0.7324480865915298,,experiment,cRDM,1.0,,,,1147.5434659000002,1002,29,female,True
345,0.1308443431162611,25,down,down,0.5951618999997663,0.3723626876844997,,experiment,cRDM,1.0,,,,1149.0434151,1002,29,female,True
346,0.1308443431162611,25,down,down,0.9078837999995812,0.3748446283527173,,experiment,cRDM,1.0,,,,1150.2766916,1002,29,female,True
347,0.1308443431162611,25,up,down,0.7279673000002731,1.6806770471508388,,experiment,cRDM,1.0,,,,1153.1265714,1002,29,female,True
348,0.1308443431162611,25,down,down,0.6303840999999011,1.6276166397689218,,experiment,cRDM,1.0,,,,1155.7431671000004,1002,29,female,True
349,0.1308443431162611,25,up,up,0.6344496000001527,0.7088234624852012,,experiment,cRDM,1.0,,,,1157.3430925000002,1002,29,female,True
350,0.1308443431162611,25,up,up,0.706165399999918,0.6401457990600437,,experiment,cRDM,1.0,,,,1158.8763760000002,1002,29,female,True
351,0.1308443431162611,25,down,down,0.7308655000006183,0.5056705047295632,,experiment,cRDM,1.0,,,,1160.3596976999995,1002,29,female,True
352,0.1308443431162611,25,down,up,0.7403001000002405,1.8348990809819925,,experiment,cRDM,1.0,,,,1163.1762104999998,1002,29,female,True
353,0.1308443431162611,25,down,up,1.0837507000005644,1.5694473167416425,,experiment,cRDM,1.0,,,,1165.7427876000002,1002,29,female,True
354,0.1308443431162611,25,down,down,0.5891761000002589,0.9183856145588276,,experiment,cRDM,1.0,,,,1168.0093576,1002,29,female,True
355,0.1308443431162611,25,down,down,0.7265659000004234,1.5018418023976337,,experiment,cRDM,1.0,,,,1170.3759519000005,1002,29,female,True
356,0.1308443431162611,25,down,down,0.6513580000000729,1.834019162478985,,experiment,cRDM,1.0,,,,1173.2091760000003,1002,29,female,True
357,0.1308443431162611,25,up,up,0.9655672999997478,0.5979212142696483,,experiment,cRDM,1.0,,,,1174.7090654000003,1002,29,female,True
358,0.1308443431162611,25,up,up,0.6958267999998498,0.3937944267511328,,experiment,cRDM,1.0,,,,1176.3257138999998,1002,29,female,True
359,0.1308443431162611,25,up,up,0.6169188999992912,1.526320799355623,,experiment,cRDM,1.0,,,,1178.82561,1002,29,female,True
360,0.1308443431162611,25,up,up,0.6379764000002979,1.0632027567802005,,experiment,cRDM,1.0,,,,1180.7755632,1002,29,female,True
361,0.1308443431162611,25,down,up,0.5357230999998137,1.776308083244269,,experiment,cRDM,1.0,,,,1183.4588089,1002,29,female,True
362,0.1308443431162611,25,up,up,0.7483794999998281,0.6178864106095956,,experiment,cRDM,1.0,,,,1184.8754109,1002,29,female,True
363,0.1308443431162611,25,up,up,0.8645262000000002,0.7651452759265369,,experiment,cRDM,1.0,,,,1186.6420481000005,1002,29,female,True
364,0.1308443431162611,25,down,up,0.6646513000005143,1.602846535817474,,experiment,cRDM,1.0,,,,1189.3752615000003,1002,29,female,True
365,0.1308443431162611,25,up,up,0.6933554999995977,1.0604332027431012,,experiment,cRDM,1.0,,,,1191.3751708999998,1002,29,female,True
366,0.1308443431162611,25,down,down,0.7934869000000617,0.8800271825063826,,experiment,cRDM,1.0,,,,1193.2250835000004,1002,29,female,True
367,0.1308443431162611,25,down,down,1.0208514999994804,1.3099842860211015,,experiment,cRDM,1.0,,,,1195.5916767,1002,29,female,True
368,0.1308443431162611,25,up,up,0.6845899999998437,0.7401962542437561,,experiment,cRDM,1.0,,,,1197.6249239,1002,29,female,True
369,0.1308443431162611,25,up,up,0.6226855999993859,1.7947804082839045,,experiment,cRDM,1.0,,,,1200.3748396,1002,29,female,True
370,0.1308443431162611,25,down,down,0.6184774000003017,0.3461840146871187,,experiment,cRDM,1.0,,,,1201.6080896000003,1002,29,female,True
371,0.1308443431162611,25,up,up,0.6294652999995378,0.523801976130353,,experiment,cRDM,1.0,,,,1203.0080626999998,1002,29,female,True
372,0.1308443431162611,25,down,down,0.5955549000000246,1.3090140877180405,,experiment,cRDM,1.0,,,,1205.2079731000003,1002,29,female,True
373,0.1308443431162611,25,down,up,0.64598659999956,1.2552326002287264,,experiment,cRDM,1.0,,,,1207.3245742999998,1002,29,female,True
374,0.1308443431162611,25,down,down,0.6309874000007767,0.3968956232365537,,experiment,cRDM,1.0,,,,1208.6245366000005,1002,29,female,True
375,0.1308443431162611,25,up,up,0.6347955000001093,0.5901753255781981,,experiment,cRDM,1.0,,,,1210.107803,1002,29,female,True
376,0.1308443431162611,25,up,up,0.6374864000008529,1.7806739907794629,,experiment,cRDM,1.0,,,,1212.7910475999995,1002,29,female,True
377,0.1308443431162611,25,up,up,0.6482101999999941,0.9390896997082878,,experiment,cRDM,1.0,,,,1214.6243038000002,1002,29,female,True
378,0.1308443431162611,25,down,down,0.5723264000007475,0.9429326445514884,,experiment,cRDM,1.0,,,,1216.474236,1002,29,female,True
379,0.1308443431162611,25,down,up,0.9750316999998176,0.9918197188831503,,experiment,cRDM,1.0,,,,1218.3074773999997,1002,29,female,True
380,0.1308443431162611,25,up,down,0.7537243999995553,1.3420658908834089,,experiment,cRDM,1.0,,,,1220.8907998000004,1002,29,female,True
381,0.1308443431162611,25,down,down,0.8205251999997927,1.2651349827900047,,experiment,cRDM,1.0,,,,1223.1739968000002,1002,29,female,True
382,0.1308443431162611,25,up,up,0.7646173000002818,0.8700669127957124,,experiment,cRDM,1.0,,,,1225.1239052,1002,29,female,True
383,0.1308443431162611,25,up,up,0.692061100000501,1.6854119358580388,,experiment,cRDM,1.0,,,,1227.8405001,1002,29,female,True
384,0.1308443431162611,25,up,up,0.6521080000002257,1.3923151239287168,,experiment,cRDM,1.0,,,,1230.1904022999995,1002,29,female,True
385,0.1308443431162611,25,down,down,0.6018884000004618,1.018421366874865,,experiment,cRDM,1.0,,,,1232.1236607,1002,29,female,True
386,0.1308443431162611,25,down,up,0.7126207000001159,1.5735218857873805,,experiment,cRDM,1.0,,,,1234.5569355999996,1002,29,female,True
387,0.1308443431162611,25,up,up,0.6763897999999244,0.4648463222064085,,experiment,cRDM,1.0,,,,1235.9901599000004,1002,29,female,True
388,0.1308443431162611,25,down,up,0.6424100000003818,0.8250377096212045,,experiment,cRDM,1.0,,,,1237.7401151000004,1002,29,female,True
389,0.1308443431162611,25,down,down,0.7231210999998439,0.3253077841228318,,experiment,cRDM,1.0,,,,1238.9734117999997,1002,29,female,True
390,0.1308443431162611,25,up,up,1.0499097000001711,0.4361322664935007,,experiment,cRDM,1.0,,,,1240.4066843,1002,29,female,True
391,0.1308443431162611,25,up,down,1.0735865000006015,0.9150451799496676,,experiment,cRDM,1.0,,,,1242.6399483000005,1002,29,female,True
392,0.1308443431162611,25,down,down,0.5853753999999753,1.2599460640098177,,experiment,cRDM,1.0,,,,1245.2231505,1002,29,female,True
393,0.1308443431162611,25,up,up,0.65878100000009,1.815112607702589,,experiment,cRDM,1.0,,,,1247.8897386999995,1002,29,female,True
394,0.1308443431162611,25,down,down,0.7571113000003606,0.6603258822164132,,experiment,cRDM,1.0,,,,1249.456403,1002,29,female,True
395,0.1308443431162611,25,down,down,0.5261733999996068,0.3762436286131993,,experiment,cRDM,1.0,,,,1250.8563442000004,1002,29,female,True
396,0.1308443431162611,25,down,down,0.5619514999998501,1.7400948991223,,experiment,cRDM,1.0,,,,1253.3895362000003,1002,29,female,True
397,0.1308443431162611,25,up,up,0.8311162999998487,1.1784644090000724,,experiment,cRDM,1.0,,,,1255.3894701999998,1002,29,female,True
398,0.1308443431162611,25,up,up,0.6471043000001373,0.6152191658741999,,experiment,cRDM,1.0,,,,1257.0894089000003,1002,29,female,True
399,0.1308443431162611,25,down,down,0.5625253999996858,0.699560556304867,,experiment,cRDM,1.0,,,,1258.7060106,1002,29,female,True
400,0.1308443431162611,25,down,down,0.8852435999997397,1.3670608181554726,,experiment,cRDM,1.0,,,,1260.8892551999998,1002,29,female,True
401,0.1308443431162611,25,up,up,0.6643492999992304,1.4532564676238398,,experiment,cRDM,1.0,,,,1263.4891674,1002,29,female,True
402,0.1308443431162611,25,up,up,0.6441205999999511,1.8574864959076949,,experiment,cRDM,1.0,,,,1266.2723966000003,1002,29,female,True
403,0.1308443431162611,25,up,up,0.7889185000003636,1.831196831908394,,experiment,cRDM,1.0,,,,1269.0056261,1002,29,female,True
404,0.1308443431162611,25,up,up,0.8479041000000507,0.5012963420613926,,experiment,cRDM,1.0,,,,1270.5556052000002,1002,29,female,True
405,0.1308443431162611,25,up,up,0.5776857000000746,0.6837306254906881,,experiment,cRDM,1.0,,,,1272.3388305999997,1002,29,female,True
406,0.1308443431162611,25,down,up,0.6231023000000278,1.7807904257569371,,experiment,cRDM,1.0,,,,1274.9554453,1002,29,female,True
407,0.1308443431162611,25,down,up,0.5215109999999186,0.5356852478964484,,experiment,cRDM,1.0,,,,1276.3720172000003,1002,29,female,True
408,0.1308443431162611,25,up,down,0.9345825000000332,0.9246050719845892,,experiment,cRDM,1.0,,,,1278.0719500000005,1002,29,female,True
409,0.1308443431162611,25,down,down,0.7586477999993804,0.3515151635068013,,experiment,cRDM,1.0,,,,1279.6218648000004,1002,29,female,True
410,0.1308443431162611,25,down,down,0.5667245000004186,1.73819977825276,,experiment,cRDM,1.0,,,,1282.3717890999997,1002,29,female,True
411,0.1308443431162611,25,down,down,0.6665207999994891,1.6092020941666814,,experiment,cRDM,1.0,,,,1284.8050273999995,1002,29,female,True
412,0.1308443431162611,25,up,up,0.6839199000005465,1.2870789693413387,,experiment,cRDM,1.0,,,,1287.0215926,1002,29,female,True
413,0.1308443431162611,25,down,down,0.7246242000001075,1.2808263752761522,,experiment,cRDM,1.0,,,,1289.2548987,1002,29,female,True
414,0.1308443431162611,25,down,down,0.4764019000003827,0.3469841669441693,,experiment,cRDM,1.0,,,,1290.5881531000005,1002,29,female,True
415,0.1308443431162611,25,down,down,0.4807674999992741,1.0323475174755827,,experiment,cRDM,1.0,,,,1292.3547728000003,1002,29,female,True
416,0.1308443431162611,25,up,up,0.6588970000002519,1.2009963583645933,,experiment,cRDM,1.0,,,,1294.3046832,1002,29,female,True
417,0.1308443431162611,25,up,down,0.5105865000004997,1.4206886614309584,,experiment,cRDM,1.0,,,,1296.6379296000005,1002,29,female,True
418,0.1308443431162611,25,down,down,0.4169667999994999,0.8208828935243284,,experiment,cRDM,1.0,,,,1298.2211847999995,1002,29,female,True
419,0.1308443431162611,25,up,down,0.4002576000002591,1.350142220590991,,experiment,cRDM,1.0,,,,1300.2545047000003,1002,29,female,True
420,0.1308443431162611,25,down,down,0.6191546999998536,0.7746366641665896,,experiment,cRDM,1.0,,,,1301.7044204000003,1002,29,female,True
421,0.1308443431162611,25,up,down,0.4002583999999842,1.7818826995679942,,experiment,cRDM,1.0,,,,1304.3709678000005,1002,29,female,True
422,0.1308443431162611,25,up,up,0.7975912000001699,0.8808283647936863,,experiment,cRDM,1.0,,,,1305.9209047000004,1002,29,female,True
423,115.0,25,M,down,1.6195692000001145,0.376988478566437,,experiment,emotion,1.0,,,,1341.6530143999998,1002,29,female,True
424,111.0,25,M,down,0.698626499999591,0.8325614179648455,,experiment,emotion,1.0,,,,1344.4028584999996,1002,29,female,True
425,115.0,25,F,down,0.9471018999993248,1.9493595250378215,,experiment,emotion,1.0,,,,1347.3194026,1002,29,female,True
426,102.0,25,F,down,0.8894303000006403,1.294245312813422,,experiment,emotion,1.0,,,,1349.8360309,1002,29,female,True
427,106.0,25,M,down,1.0528770999999324,0.8962250650163461,,experiment,emotion,1.0,,,,1351.9026095,1002,29,female,True
428,111.0,25,F,up,1.3670547000001534,1.063759741787794,,experiment,emotion,1.0,,,,1354.3025101000003,1002,29,female,True
429,106.0,25,M,down,0.6873932999997123,1.3369422009036034,,experiment,emotion,1.0,,,,1357.2690906999997,1002,29,female,True
430,102.0,25,M,down,1.0461404999996375,0.3642527230723629,,experiment,emotion,1.0,,,,1358.6023541000004,1002,29,female,True
431,102.0,25,F,up,0.4945938999999271,1.5081773887654586,,experiment,emotion,1.0,,,,1361.4189084,1002,29,female,True
432,115.0,25,F,down,0.6473387000005459,1.7315157493163562,,experiment,emotion,1.0,,,,1363.9521721,1002,29,female,True
433,111.0,25,F,up,1.2348019000000932,1.8407965786517444,,experiment,emotion,1.0,,,,1366.7186946000002,1002,29,female,True
434,106.0,25,F,up,0.7881922999995368,1.499872256923963,,experiment,emotion,1.0,,,,1369.7353017000005,1002,29,female,True
435,115.0,25,F,up,1.1729522999994515,0.680128716820927,,experiment,emotion,1.0,,,,1371.4685499999996,1002,29,female,True
436,102.0,25,F,down,0.6920187000005171,1.1348086912506,,experiment,emotion,1.0,,,,1374.0684623999996,1002,29,female,True
437,106.0,25,M,up,2.08444419999978,1.3013531921350476,,experiment,emotion,1.0,,,,1376.3350479,1002,29,female,True
438,111.0,25,M,up,1.124947700000121,1.6012774511087255,,experiment,emotion,1.0,,,,1380.3015410999997,1002,29,female,True
439,102.0,25,M,down,1.261432899999818,0.8326229321709828,,experiment,emotion,1.0,,,,1382.5181279,1002,29,female,True
440,111.0,25,M,up,0.8735612999998921,1.9695505369165969,,experiment,emotion,1.0,,,,1386.017949,1002,29,female,True
441,111.0,25,F,up,0.7755910000005315,1.9942664239846848,,experiment,emotion,1.0,,,,1389.1679057,1002,29,female,True
442,115.0,25,M,up,0.6956766999992396,1.740539205780829,,experiment,emotion,1.0,,,,1391.9678102999997,1002,29,female,True
443,102.0,25,M,down,0.882812400000148,0.977057954179195,,experiment,emotion,1.0,,,,1393.9177041000005,1002,29,female,True
444,106.0,25,F,up,1.167535199999293,1.814287191474612,,experiment,emotion,1.0,,,,1396.9009481000005,1002,29,female,True
445,115.0,25,M,up,0.6899774000003163,1.0163167651011469,,experiment,emotion,1.0,,,,1399.3675277000002,1002,29,female,True
446,106.0,25,F,down,0.6464066999997158,1.866109521317076,,experiment,emotion,1.0,,,,1402.1840814999996,1002,29,female,True
447,106.0,25,F,down,1.3404534999999669,0.5355077442590632,,experiment,emotion,1.0,,,,1403.6340496000005,1002,29,female,True
448,111.0,25,M,up,0.8638872000001356,1.6912888108098636,,experiment,emotion,1.0,,,,1406.9505848999995,1002,29,female,True
449,115.0,25,M,up,0.5520427999999811,0.6091708433257992,,experiment,emotion,1.0,,,,1408.7004987,1002,29,female,True
450,102.0,25,F,down,1.0848022000000128,0.6937638377853097,,experiment,emotion,1.0,,,,1410.2337122,1002,29,female,True
451,111.0,25,M,up,1.206119999999828,1.5644036504206316,,experiment,emotion,1.0,,,,1413.1503463,1002,29,female,True
452,102.0,25,F,up,0.8931632000003447,1.019895129807744,,experiment,emotion,1.0,,,,1415.6502766000003,1002,29,female,True
453,106.0,25,F,down,0.9920522000002164,1.7304543354432542,,experiment,emotion,1.0,,,,1418.5334511,1002,29,female,True
454,115.0,25,F,down,1.05442579999999,1.9475193707648903,,experiment,emotion,1.0,,,,1421.7500470000004,1002,29,female,True
455,111.0,25,M,down,0.7462408999999752,1.364160545743357,,experiment,emotion,1.0,,,,1424.4332438,1002,29,female,True
456,102.0,25,M,down,1.2829887999996572,1.5216954141890284,,experiment,emotion,1.0,,,,1426.9664988000004,1002,29,female,True
457,106.0,25,M,up,1.0344306000006327,1.7456103616690293,,experiment,emotion,1.0,,,,1430.2830531999998,1002,29,female,True
458,106.0,25,F,up,0.8312198999992688,0.920137597007748,,experiment,emotion,1.0,,,,1432.5162688,1002,29,female,True
459,115.0,25,F,up,0.8959512000001268,0.9295333285108124,,experiment,emotion,1.0,,,,1434.5495649000004,1002,29,female,True
460,111.0,25,M,up,0.625693400000273,1.6548105734666094,,experiment,emotion,1.0,,,,1437.3827861999998,1002,29,female,True
461,115.0,25,F,up,0.9161008999999468,1.2659123988704148,,experiment,emotion,1.0,,,,1439.5493821,1002,29,female,True
462,102.0,25,M,up,0.822536300000138,0.917575924487678,,experiment,emotion,1.0,,,,1441.6659508000002,1002,29,female,True
463,106.0,25,M,up,0.8599160000003394,1.4047745658493025,,experiment,emotion,1.0,,,,1444.1825445000004,1002,29,female,True
464,102.0,25,M,down,1.2970079999995503,0.4768501529697257,,experiment,emotion,1.0,,,,1445.7824907000004,1002,29,female,True
465,102.0,25,F,down,0.6387236999999004,0.3178773372145783,,experiment,emotion,1.0,,,,1447.6657489999998,1002,29,female,True
466,115.0,25,F,up,0.8688395999997738,0.6318898510556459,,experiment,emotion,1.0,,,,1449.2156548000005,1002,29,female,True
467,111.0,25,M,up,0.6282344999999623,0.658502599665294,,experiment,emotion,1.0,,,,1451.0322266000005,1002,29,female,True
468,106.0,25,F,up,1.1976425000002564,0.9047638721714024,,experiment,emotion,1.0,,,,1452.8488801000003,1002,29,female,True
469,111.0,25,F,down,1.6097714000006818,1.376942764318048,,experiment,emotion,1.0,,,,1455.6987740000004,1002,29,female,True
470,115.0,25,M,down,0.5768428999999742,1.5261049650926,,experiment,emotion,1.0,,,,1459.0986387000005,1002,29,female,True
471,106.0,25,M,down,0.7165685999998459,1.4221905756525288,,experiment,emotion,1.0,,,,1461.3819087000002,1002,29,female,True
472,115.0,25,F,up,0.8590231999996831,1.2751491948557412,,experiment,emotion,1.0,,,,1463.6484588000003,1002,29,female,True
473,111.0,25,M,down,1.223460299999715,1.6834928150553312,,experiment,emotion,1.0,,,,1466.4650459000004,1002,29,female,True
474,102.0,25,F,down,1.418928299999607,0.370823361828063,,experiment,emotion,1.0,,,,1468.3316146999996,1002,29,female,True
475,111.0,25,F,up,1.0912588000001051,1.0325454975334825,,experiment,emotion,1.0,,,,1471.0482177000004,1002,29,female,True
476,106.0,25,F,down,0.7100731000000451,1.8823231951443455,,experiment,emotion,1.0,,,,1474.281419,1002,29,female,True
477,115.0,25,M,,,0.6344384437345636,,experiment,emotion,1.0,,,,1475.9146622999997,1002,29,female,True
478,102.0,25,M,down,0.9029531000005592,0.5047666683725235,,experiment,emotion,1.0,,,,1479.1145422999998,1002,29,female,True
479,111.0,25,F,up,0.8190012000004572,1.7707992062420588,,experiment,emotion,1.0,,,,1482.0644683,1002,29,female,True
480,111.0,25,F,up,0.8937668999997186,1.33523954013529,,experiment,emotion,1.0,,,,1484.4976824000005,1002,29,female,True
481,102.0,25,M,up,0.7708401999998387,0.9253277014648726,,experiment,emotion,1.0,,,,1486.5976299000004,1002,29,female,True
482,115.0,25,M,up,0.6699636000003011,1.1452123350435304,,experiment,emotion,1.0,,,,1488.7975347,1002,29,female,True
483,115.0,25,M,up,0.6736923000007664,0.4614555971913953,,experiment,emotion,1.0,,,,1490.1807804,1002,29,female,True
484,106.0,25,M,up,0.4703693999999814,0.3790935236506265,,experiment,emotion,1.0,,,,1491.5141009,1002,29,female,True
485,106.0,25,M,up,0.5327648000002227,1.2268865477796256,,experiment,emotion,1.0,,,,1493.4807007,1002,29,female,True
486,102.0,25,F,down,1.359844499999781,1.3521345288904718,,experiment,emotion,1.0,,,,1495.6306250999996,1002,29,female,True
487,106.0,25,F,down,1.0469223999998576,1.4211661905683814,,experiment,emotion,1.0,,,,1498.6805114999995,1002,29,female,True
488,115.0,25,M,up,0.9734215999997105,1.5872614281871198,,experiment,emotion,1.0,,,,1501.5970527,1002,29,female,True
489,111.0,25,F,down,0.9015045000005556,1.6099787340524905,,experiment,emotion,1.0,,,,1504.4469681,1002,29,female,True
490,102.0,25,F,down,0.519959100000051,0.7940354539372569,,experiment,emotion,1.0,,,,1506.4135054999997,1002,29,female,True
491,102.0,25,F,down,0.9050128999997468,1.3215363410806618,,experiment,emotion,1.0,,,,1508.5134589,1002,29,female,True
492,111.0,25,M,down,0.7157943000001978,1.7939553633353629,,experiment,emotion,1.0,,,,1511.4966812000002,1002,29,female,True
493,106.0,25,F,down,1.0638733999994656,0.3097062527725603,,experiment,emotion,1.0,,,,1512.7966316000002,1002,29,female,True
494,115.0,25,F,down,1.026578899999549,1.8883695777273903,,experiment,emotion,1.0,,,,1516.0298713000002,1002,29,female,True
495,102.0,25,F,down,0.7060273000006418,1.386595138128755,,experiment,emotion,1.0,,,,1518.7464382999997,1002,29,female,True
496,106.0,25,M,down,1.1175176999995529,1.6457375278939486,,experiment,emotion,1.0,,,,1521.3630042000004,1002,29,female,True
497,102.0,25,M,down,0.8172099000003072,0.8000141634119726,,experiment,emotion,1.0,,,,1523.546257,1002,29,female,True
498,111.0,25,F,down,1.051922499999819,0.3356517543639913,,experiment,emotion,1.0,,,,1524.9795365,1002,29,female,True
499,115.0,25,M,down,1.181735099999969,0.910993388571439,,experiment,emotion,1.0,,,,1527.2127325,1002,29,female,True
500,106.0,25,F,down,0.945445800000016,1.016177829250298,,experiment,emotion,1.0,,,,1529.6960119000005,1002,29,female,True
501,115.0,25,M,up,0.5096247999999832,1.996192995391004,,experiment,emotion,1.0,,,,1532.8958872000003,1002,29,female,True
502,111.0,25,M,up,0.821310899999844,1.648859777805963,,experiment,emotion,1.0,,,,1535.3291535999997,1002,29,female,True
503,0.1308443431162611,25,up,up,0.5635796999995364,0.5717762652888159,,experiment,cRDM,2.0,,,,1548.6119184999998,1002,29,female,True
504,0.1308443431162611,25,up,up,0.5109652999999525,1.6408856350884164,,experiment,cRDM,2.0,,,,1551.0784979,1002,29,female,True
505,0.1308443431162611,25,down,down,0.7846989999998186,1.102943553855166,,experiment,cRDM,2.0,,,,1552.9617580000004,1002,29,female,True
506,0.1308443431162611,25,down,up,0.5968110999992859,0.7543240484736656,,experiment,cRDM,2.0,,,,1554.7616740000003,1002,29,female,True
507,0.1308443431162611,25,up,up,0.5235032000000501,1.1314759027066996,,experiment,cRDM,2.0,,,,1556.7449623000002,1002,29,female,True
508,0.1308443431162611,25,down,down,0.8082281999995757,1.4636476626920054,,experiment,cRDM,2.0,,,,1558.9782101,1002,29,female,True
509,0.1308443431162611,25,up,up,0.5853402000002461,1.2160643819178352,,experiment,cRDM,2.0,,,,1561.2781180000002,1002,29,female,True
510,0.1308443431162611,25,up,up,0.6730913000001237,1.6799418320095845,,experiment,cRDM,2.0,,,,1563.8113648999995,1002,29,female,True
511,0.1308443431162611,25,down,down,0.6298378999999841,0.3063461482951624,,experiment,cRDM,2.0,,,,1565.0446541,1002,29,female,True
512,0.1308443431162611,25,down,down,0.5298646000001099,1.3959923652085977,,experiment,cRDM,2.0,,,,1567.3445921000002,1002,29,female,True
513,0.1308443431162611,25,down,down,0.7126553999996759,1.4503026908881806,,experiment,cRDM,2.0,,,,1569.5778016000004,1002,29,female,True
514,0.1308443431162611,25,down,down,0.5254790999997567,1.749291039183858,,experiment,cRDM,2.0,,,,1572.3110404999998,1002,29,female,True
515,0.1308443431162611,25,down,down,0.586480500000107,1.16180348324625,,experiment,cRDM,2.0,,,,1574.2609786000005,1002,29,female,True
516,0.1308443431162611,25,down,up,0.7421981999996206,0.5762589922850923,,experiment,cRDM,2.0,,,,1575.6942547,1002,29,female,True
517,0.1308443431162611,25,up,up,0.6046077000000878,0.8778123461873784,,experiment,cRDM,2.0,,,,1577.5608432,1002,29,female,True
518,0.1308443431162611,25,up,up,0.683984799999962,1.191389883192832,,experiment,cRDM,2.0,,,,1579.627477,1002,29,female,True
519,0.1308443431162611,25,up,up,0.6737680000005639,0.7377155684884318,,experiment,cRDM,2.0,,,,1581.3106914999998,1002,29,female,True
520,0.1308443431162611,25,up,down,0.909517699999924,1.3883878386485276,,experiment,cRDM,2.0,,,,1583.6439554,1002,29,female,True
521,0.1308443431162611,25,down,down,0.580269799999769,1.7676583889101851,,experiment,cRDM,2.0,,,,1586.5771806000002,1002,29,female,True
522,0.1308443431162611,25,up,up,1.0143263999998453,0.8118591644075897,,experiment,cRDM,2.0,,,,1588.2271631000003,1002,29,female,True
523,0.1308443431162611,25,up,up,0.6340666999994937,0.4620703527864307,,experiment,cRDM,2.0,,,,1589.9603911000004,1002,29,female,True
524,0.1308443431162611,25,down,down,0.6394247999996878,0.3260128221069945,,experiment,cRDM,2.0,,,,1591.1769999999997,1002,29,female,True
525,0.1308443431162611,25,up,up,0.6998264000003473,0.6591315041820955,,experiment,cRDM,2.0,,,,1592.7436559999996,1002,29,female,True
526,0.1308443431162611,25,down,down,0.6356249000000389,1.1293341954100538,,experiment,cRDM,2.0,,,,1594.8268965999996,1002,29,female,True
527,0.1308443431162611,25,down,down,1.0466710999999125,1.7726092020158886,,experiment,cRDM,2.0,,,,1597.4767760000004,1002,29,female,True
528,0.1308443431162611,25,up,up,0.6364702999999281,1.571706653414911,,experiment,cRDM,2.0,,,,1600.3599796999997,1002,29,female,True
529,0.1308443431162611,25,up,up,0.6701806000000943,1.3313086620802628,,experiment,cRDM,2.0,,,,1602.5932644000004,1002,29,female,True
530,0.1308443431162611,25,down,down,0.6949821999996857,1.7647077684065118,,experiment,cRDM,2.0,,,,1605.2765087999996,1002,29,female,True
531,0.1308443431162611,25,up,up,0.6217793000005258,1.3331363938450114,,experiment,cRDM,2.0,,,,1607.5597364000005,1002,29,female,True
532,0.1308443431162611,25,down,down,0.6438056999995752,1.2144525186043134,,experiment,cRDM,2.0,,,,1609.6596559,1002,29,female,True
533,0.1308443431162611,25,down,down,0.6032172000004721,1.5488593531086745,,experiment,cRDM,2.0,,,,1612.1262325999996,1002,29,female,True
534,0.1308443431162611,25,down,down,0.4815987000001769,1.1181130710541327,,experiment,cRDM,2.0,,,,1614.0928292999995,1002,29,female,True
535,0.1308443431162611,25,up,up,1.027657999999974,0.6110289461866807,,experiment,cRDM,2.0,,,,1615.4428082000004,1002,29,female,True
536,0.1308443431162611,25,up,down,0.9773918999999296,0.5038562151296624,,experiment,cRDM,2.0,,,,1617.2260575,1002,29,female,True
537,0.1308443431162611,25,up,up,0.5918161999998119,1.765176449803319,,experiment,cRDM,2.0,,,,1620.2426246000005,1002,29,female,True
538,0.1308443431162611,25,down,down,1.1299297000005026,1.7930538545115295,,experiment,cRDM,2.0,,,,1622.8925078000002,1002,29,female,True
539,0.1308443431162611,25,down,down,0.6403902000001835,1.022125241958365,,experiment,cRDM,2.0,,,,1625.3090616,1002,29,female,True
540,0.1308443431162611,25,up,up,0.4170770999999149,1.0156153422937677,,experiment,cRDM,2.0,,,,1627.2256725999996,1002,29,female,True
541,0.1308443431162611,25,down,down,0.5931959999998071,1.7951450445001222,,experiment,cRDM,2.0,,,,1629.6922426,1002,29,female,True
542,0.1308443431162611,25,up,up,0.8202305000004344,1.302674923231585,,experiment,cRDM,2.0,,,,1631.8422075,1002,29,female,True
543,0.1308443431162611,25,up,up,0.417025000000649,1.0288916998658808,,experiment,cRDM,2.0,,,,1633.9587528000002,1002,29,female,True
544,0.1308443431162611,25,up,down,1.28543449999961,0.951934174443292,,experiment,cRDM,2.0,,,,1635.5920130000004,1002,29,female,True
545,0.1308443431162611,25,down,down,0.7164498000001913,0.4169699986212731,,experiment,cRDM,2.0,,,,1637.5419994000003,1002,29,female,True
546,0.1308443431162611,25,down,down,0.5989385000002585,0.604473169046256,,experiment,cRDM,2.0,,,,1639.1085359999995,1002,29,female,True
547,0.1308443431162611,25,up,up,0.7146180999998251,0.3116985919163245,,experiment,cRDM,2.0,,,,1640.2918542999996,1002,29,female,True
548,0.1308443431162611,25,down,down,1.6926717000005738,0.6257039929440293,,experiment,cRDM,2.0,,,,1641.8917774,1002,29,female,True
549,0.1308443431162611,25,down,up,1.0047416000006706,1.6079246019216509,,experiment,cRDM,2.0,,,,1645.4416979999996,1002,29,female,True
550,0.1308443431162611,25,up,down,0.9122459999998682,1.3980861598435084,,experiment,cRDM,2.0,,,,1648.1081995000004,1002,29,female,True
551,0.1308443431162611,25,up,down,0.8862784000002648,1.1568806980956308,,experiment,cRDM,2.0,,,,1650.4581592000004,1002,29,female,True
552,0.1308443431162611,25,down,up,1.5297610999996325,1.2048598025812196,,experiment,cRDM,2.0,,,,1652.8247103000003,1002,29,female,True
553,0.1308443431162611,25,up,up,0.5255112000004374,1.6944583911555366,,experiment,cRDM,2.0,,,,1656.3079312999998,1002,29,female,True
554,0.1308443431162611,25,down,down,1.3348311000008837,0.4289046116722174,,experiment,cRDM,2.0,,,,1657.5246069000004,1002,29,female,True
555,0.1308443431162611,25,down,up,1.1186741999999867,1.5881785859695845,,experiment,cRDM,2.0,,,,1660.7077482000004,1002,29,female,True
556,0.1308443431162611,25,down,down,0.7685443999998824,1.9177391586394668,,experiment,cRDM,2.0,,,,1664.0079428999998,1002,29,female,True
557,0.1308443431162611,25,up,up,0.6536057000002984,0.5618738965947156,,experiment,cRDM,2.0,,,,1665.5908956000003,1002,29,female,True
558,0.1308443431162611,25,up,up,0.6972372999998697,0.8793030412018155,,experiment,cRDM,2.0,,,,1667.3741836,1002,29,female,True
559,0.1308443431162611,25,down,down,0.6973873999995703,1.2865297034049503,,experiment,cRDM,2.0,,,,1669.6241013999995,1002,29,female,True
560,0.1308443431162611,25,down,up,0.6503953000001275,1.4362826072306254,,experiment,cRDM,2.0,,,,1672.0240396,1002,29,female,True
561,0.1308443431162611,25,up,down,1.0571731,0.7621852958090063,,experiment,cRDM,2.0,,,,1673.7072684000004,1002,29,female,True
562,0.1308443431162611,25,up,up,0.6065316000003804,0.8856541041144068,,experiment,cRDM,2.0,,,,1675.9239021000003,1002,29,female,True
563,0.1308443431162611,25,up,down,1.0679693000001862,0.8462336609783458,,experiment,cRDM,2.0,,,,1677.6404689,1002,29,female,True
564,0.1308443431162611,25,up,up,0.73913309999989,1.575150538004077,,experiment,cRDM,2.0,,,,1680.5403063000003,1002,29,female,True
565,0.1308443431162611,25,up,up,0.4648029999998471,1.1332060033848372,,experiment,cRDM,2.0,,,,1682.6736164000004,1002,29,female,True
566,0.1308443431162611,25,down,down,1.029269299999214,0.5295882803253902,,experiment,cRDM,2.0,,,,1683.9402281000002,1002,29,female,True
567,0.1308443431162611,25,down,up,0.4952680000005784,0.3133738286634563,,experiment,cRDM,2.0,,,,1685.5401505,1002,29,female,True
568,0.1308443431162611,25,up,up,0.5809344999997847,0.6255386273056427,,experiment,cRDM,2.0,,,,1686.9234987,1002,29,female,True
569,0.1308443431162611,25,down,down,0.7717449000001579,1.2427095274963404,,experiment,cRDM,2.0,,,,1689.0066770000003,1002,29,female,True
570,0.1308443431162611,25,down,down,0.7105258000001413,1.7629638799617162,,experiment,cRDM,2.0,,,,1691.7899036999995,1002,29,female,True
571,0.1308443431162611,25,down,down,0.6879822999999305,1.5361106891663228,,experiment,cRDM,2.0,,,,1694.3065238,1002,29,female,True
572,0.1308443431162611,25,up,up,0.9510553000000072,1.938002860159204,,experiment,cRDM,2.0,,,,1697.2064051999996,1002,29,female,True
573,0.1308443431162611,25,down,down,0.6111227000001236,1.4355042167384475,,experiment,cRDM,2.0,,,,1699.8563212,1002,29,female,True
574,0.1308443431162611,25,down,down,0.6062375000001339,0.4925992770167197,,experiment,cRDM,2.0,,,,1701.2062690000002,1002,29,female,True
575,0.1308443431162611,25,down,down,0.430539800000588,0.3310107752240089,,experiment,cRDM,2.0,,,,1702.4229161000003,1002,29,female,True
576,0.1308443431162611,25,up,up,0.6456418999996458,1.0111414525658065,,experiment,cRDM,2.0,,,,1704.1228567999997,1002,29,female,True
577,0.1308443431162611,25,up,down,0.6944066999994902,1.83562831131765,,experiment,cRDM,2.0,,,,1706.8560239999997,1002,29,female,True
578,0.1308443431162611,25,down,down,0.7737359000002471,0.5091307352690209,,experiment,cRDM,2.0,,,,1708.3226734,1002,29,female,True
579,0.1308443431162611,25,up,down,0.6208323999999266,1.1783195013378571,,experiment,cRDM,2.0,,,,1710.5225904,1002,29,female,True
580,0.1308443431162611,25,down,up,0.6562635999998747,1.0296852745486986,,experiment,cRDM,2.0,,,,1712.4391704,1002,29,female,True
581,0.1308443431162611,25,up,up,0.7187106999999742,0.9999754471892396,,experiment,cRDM,2.0,,,,1714.3557544000005,1002,29,female,True
582,0.1308443431162611,25,up,up,1.0180174000006446,0.7832341469992433,,experiment,cRDM,2.0,,,,1716.1224048000004,1002,29,female,True
583,115.0,25,M,down,1.3300091000000975,0.4959143716596004,,experiment,emotion,2.0,,,,1723.7054608999997,1002,29,female,True
584,111.0,25,M,down,0.8463833999994677,1.5480316618472385,,experiment,emotion,2.0,,,,1726.8720396999995,1002,29,female,True
585,115.0,25,F,down,0.8798139000000447,1.361650098407043,,experiment,emotion,2.0,,,,1729.3386108000004,1002,29,female,True
586,102.0,25,F,down,0.6231935000005251,0.4495574727432405,,experiment,emotion,2.0,,,,1730.9552240000005,1002,29,female,True
587,106.0,25,M,down,0.8462742000001526,0.812257790086611,,experiment,emotion,2.0,,,,1732.6551495000003,1002,29,female,True
588,111.0,25,F,down,1.2634913000001688,1.4236042876928994,,experiment,emotion,2.0,,,,1735.2049586000005,1002,29,female,True
589,106.0,25,M,down,0.701799000000392,1.6874181744192909,,experiment,emotion,2.0,,,,1738.4216217000003,1002,29,female,True
590,102.0,25,M,down,0.7762349999993603,0.591733962264527,,experiment,emotion,2.0,,,,1739.9881893000002,1002,29,female,True
591,102.0,25,F,up,0.7129994999995688,0.8880045395549696,,experiment,emotion,2.0,,,,1741.9214095999996,1002,29,female,True
592,115.0,25,F,up,0.4002079000001686,0.4909444896506099,,experiment,emotion,2.0,,,,1743.4214229,1002,29,female,True
593,111.0,25,F,up,0.4944297000001825,0.8441415167777571,,experiment,emotion,2.0,,,,1744.9380233000002,1002,29,female,True
594,106.0,25,F,down,0.8387395999998262,0.8960138309673742,,experiment,emotion,2.0,,,,1746.6046331999996,1002,29,female,True
595,115.0,25,F,down,0.6025055000000066,0.4145699937709914,,experiment,emotion,2.0,,,,1748.1379150000002,1002,29,female,True
596,102.0,25,F,down,0.4915940000000773,1.470314907495754,,experiment,emotion,2.0,,,,1750.4878723000002,1002,29,female,True
597,106.0,25,M,down,0.5193871000001309,1.4583757091963805,,experiment,emotion,2.0,,,,1752.7210830000004,1002,29,female,True
598,111.0,25,M,down,0.7861963000004835,1.4825436944235617,,experiment,emotion,2.0,,,,1755.0042254,1002,29,female,True
599,102.0,25,M,down,0.501840799999627,1.2640599389248308,,experiment,emotion,2.0,,,,1757.3375781000004,1002,29,female,True
600,111.0,25,M,up,0.5056445999998687,1.50745436692624,,experiment,emotion,2.0,,,,1759.6208189999998,1002,29,female,True
601,111.0,25,F,up,0.6093378999994457,1.5211923933675178,,experiment,emotion,2.0,,,,1761.9040268,1002,29,female,True
602,115.0,25,M,down,0.8538260999994236,1.7259979480530887,,experiment,emotion,2.0,,,,1764.5206552,1002,29,female,True
603,102.0,25,M,down,0.8852256000000125,1.6593467951954195,,experiment,emotion,2.0,,,,1767.2871919999998,1002,29,female,True
604,106.0,25,F,down,0.572660700000597,0.4026746417002662,,experiment,emotion,2.0,,,,1768.8538232,1002,29,female,True
605,115.0,25,M,down,0.6903247000000192,1.0335988006329395,,experiment,emotion,2.0,,,,1770.7370913000004,1002,29,female,True
606,106.0,25,F,down,0.6937791999998808,0.4108501080750626,,experiment,emotion,2.0,,,,1772.1036339000002,1002,29,female,True
607,106.0,25,F,up,1.2311291999994864,0.8991636169930497,,experiment,emotion,2.0,,,,1773.9702882,1002,29,female,True
608,111.0,25,M,up,0.4425916999998662,0.6603614313052667,,experiment,emotion,2.0,,,,1776.1368555,1002,29,female,True
609,115.0,25,M,up,0.8200013000005129,1.94460623819038,,experiment,emotion,2.0,,,,1778.803436,1002,29,female,True
610,102.0,25,F,up,0.9580684000002292,1.6902648988577462,,experiment,emotion,2.0,,,,1781.6033341000002,1002,29,female,True
611,111.0,25,M,up,0.572806799999853,0.6685199635124173,,experiment,emotion,2.0,,,,1783.4866094,1002,29,female,True
612,102.0,25,F,up,0.4555144000005384,0.638307850584883,,experiment,emotion,2.0,,,,1784.9698801000004,1002,29,female,True
613,106.0,25,F,up,0.6926418000002741,1.46593120885981,,experiment,emotion,2.0,,,,1787.1698054999997,1002,29,female,True
614,115.0,25,F,up,0.5550234000002092,1.000108112470103,,experiment,emotion,2.0,,,,1789.136394,1002,29,female,True
615,111.0,25,M,up,0.4497051999996984,0.6687787798731804,,experiment,emotion,2.0,,,,1790.6197082999995,1002,29,female,True
616,102.0,25,M,down,1.3544968999995035,0.6658690879147819,,experiment,emotion,2.0,,,,1792.0029309,1002,29,female,True
617,106.0,25,M,down,0.561623999999938,1.1964048940865135,,experiment,emotion,2.0,,,,1794.8028249999998,1002,29,female,True
618,106.0,25,F,down,0.4869306000000506,0.5742292312336635,,experiment,emotion,2.0,,,,1796.2194775999997,1002,29,female,True
619,115.0,25,F,up,1.0340108000000328,0.988351467592441,,experiment,emotion,2.0,,,,1797.9694,1002,29,female,True
620,111.0,25,M,up,0.8244185000003199,0.4150786778046154,,experiment,emotion,2.0,,,,1799.6859880000002,1002,29,female,True
621,115.0,25,F,up,1.1054683000002117,1.1524084121070102,,experiment,emotion,2.0,,,,1801.9359259000005,1002,29,female,True
622,102.0,25,M,down,0.6736391000004005,1.7072412273016755,,experiment,emotion,2.0,,,,1805.0358233,1002,29,female,True
623,106.0,25,M,down,0.5656529999996565,0.3501304344849549,,experiment,emotion,2.0,,,,1806.3357551,1002,29,female,True
624,102.0,25,M,down,0.4664429999993444,0.3741111658149018,,experiment,emotion,2.0,,,,1807.5690304,1002,29,female,True
625,102.0,25,F,down,0.9334238999999798,1.168943305420961,,experiment,emotion,2.0,,,,1809.4689675,1002,29,female,True
626,115.0,25,F,down,1.3441775999999663,1.08237360220363,,experiment,emotion,2.0,,,,1811.7522231000005,1002,29,female,True
627,111.0,25,M,down,0.6176630999998451,1.687232636115134,,experiment,emotion,2.0,,,,1815.068751,1002,29,female,True
628,106.0,25,F,down,0.5450187999995251,0.6820742954698418,,experiment,emotion,2.0,,,,1816.6353879,1002,29,female,True
629,111.0,25,F,up,0.520400299999892,0.4138527134840521,,experiment,emotion,2.0,,,,1817.8520034000005,1002,29,female,True
630,115.0,25,M,up,1.0451753999996072,1.0349908949841429,,experiment,emotion,2.0,,,,1819.6852296,1002,29,female,True
631,106.0,25,M,down,0.7685526999994181,0.8524042676125889,,experiment,emotion,2.0,,,,1821.8518526,1002,29,female,True
632,115.0,25,F,up,0.7649886999997761,0.9323772042804492,,experiment,emotion,2.0,,,,1823.8184437,1002,29,female,True
633,111.0,25,M,down,0.6510214999998425,0.924937327767814,,experiment,emotion,2.0,,,,1825.7683805,1002,29,female,True
634,102.0,25,F,down,0.7778069999994841,1.9519652068175957,,experiment,emotion,2.0,,,,1828.6515998000004,1002,29,female,True
635,111.0,25,F,down,0.8418431000000055,0.3185259561948225,,experiment,emotion,2.0,,,,1830.0015700000004,1002,29,female,True
636,106.0,25,F,down,0.8954395000000659,1.994723354824021,,experiment,emotion,2.0,,,,1833.1180283000003,1002,29,female,True
637,115.0,25,M,up,0.8504706000003353,1.8332640695377056,,experiment,emotion,2.0,,,,1836.1179638000003,1002,29,female,True
638,102.0,25,M,down,0.6342440000007628,1.751052748370949,,experiment,emotion,2.0,,,,1839.0012242000005,1002,29,female,True
639,111.0,25,F,up,0.5915708000002269,0.8680272274185374,,experiment,emotion,2.0,,,,1840.767831,1002,29,female,True
640,111.0,25,F,up,1.0793471999995743,1.1648394071281605,,experiment,emotion,2.0,,,,1842.8010558,1002,29,female,True
641,102.0,25,M,down,0.7304756999992605,1.944152536229105,,experiment,emotion,2.0,,,,1846.1009253,1002,29,female,True
642,115.0,25,M,up,0.8065032000004067,0.8486515746871437,,experiment,emotion,2.0,,,,1847.9508764,1002,29,female,True
643,115.0,25,M,up,1.1752764000002571,1.825636067722309,,experiment,emotion,2.0,,,,1850.834126,1002,29,female,True
644,106.0,25,M,up,0.6577293999998801,0.8041868675042518,,experiment,emotion,2.0,,,,1853.1006701,1002,29,female,True
645,106.0,25,M,down,0.6338341999999102,1.9191637241192108,,experiment,emotion,2.0,,,,1855.9505936,1002,29,female,True
646,102.0,25,F,up,0.8149534000003769,0.752441410757055,,experiment,emotion,2.0,,,,1857.6004486,1002,29,female,True
647,106.0,25,F,down,0.8180683000000499,1.619041741252958,,experiment,emotion,2.0,,,,1860.300367,1002,29,female,True
648,115.0,25,M,up,1.2577350999999908,1.7299015097902368,,experiment,emotion,2.0,,,,1863.1336524,1002,29,female,True
649,111.0,25,F,up,0.9332056999992346,1.8874945297233847,,experiment,emotion,2.0,,,,1866.5501909000004,1002,29,female,True
650,102.0,25,F,down,0.7623100000000704,1.067164343470255,,experiment,emotion,2.0,,,,1868.8500915000004,1002,29,female,True
651,102.0,25,F,down,1.1719780000003084,0.9495023566567068,,experiment,emotion,2.0,,,,1870.8333796,1002,29,female,True
652,111.0,25,M,down,0.5911295000005339,0.8646342554653004,,experiment,emotion,2.0,,,,1873.1332919,1002,29,female,True
653,106.0,25,F,up,0.8595439000000624,1.9015141615412423,,experiment,emotion,2.0,,,,1875.8998582000004,1002,29,female,True
654,115.0,25,F,up,0.7189014000005045,0.3395711356161214,,experiment,emotion,2.0,,,,1877.3664471,1002,29,female,True
655,102.0,25,F,down,0.6488422000002174,0.6369462980311899,,experiment,emotion,2.0,,,,1878.9996628,1002,29,female,True
656,106.0,25,M,,,1.9987825797273333,,experiment,emotion,2.0,,,,1881.9162880000003,1002,29,female,True
657,102.0,25,M,down,0.6872192000000723,0.7057723060579721,,experiment,emotion,2.0,,,,1885.3161726,1002,29,female,True
658,111.0,25,F,up,1.0203096000004734,1.8804804940875253,,experiment,emotion,2.0,,,,1888.1660647,1002,29,female,True
659,115.0,25,M,up,1.02342039999985,1.0558857391373428,,experiment,emotion,2.0,,,,1890.5159763,1002,29,female,True
660,106.0,25,F,down,0.923895299999458,1.823861903628644,,experiment,emotion,2.0,,,,1893.6325298,1002,29,female,True
661,115.0,25,M,down,0.8429695000004358,0.3534787432546385,,experiment,emotion,2.0,,,,1895.1824463000005,1002,29,female,True
662,111.0,25,M,down,0.6180121999996118,1.0309155879419645,,experiment,emotion,2.0,,,,1897.3323855,1002,29,female,True
663,0.1308443431162611,25,up,up,0.5684188999994149,1.5607367840569943,,experiment,cRDM,3.0,,,,1924.0479911,1002,29,female,True
664,0.1308443431162611,25,up,up,1.4404436000004353,0.4261331356921767,,experiment,cRDM,3.0,,,,1925.2979465,1002,29,female,True
665,0.1308443431162611,25,down,down,0.5045630999993591,1.337544365327051,,experiment,cRDM,3.0,,,,1928.3478235,1002,29,female,True
666,0.1308443431162611,25,down,down,0.5152917999994315,0.811362749249007,,experiment,cRDM,3.0,,,,1929.9311132000005,1002,29,female,True
667,0.1308443431162611,25,up,up,0.4269978000002083,1.3674786576849047,,experiment,cRDM,3.0,,,,1932.0643571,1002,29,female,True
668,0.1308443431162611,25,down,down,0.6477551999996649,1.09082993542641,,experiment,cRDM,3.0,,,,1933.8476283,1002,29,female,True
669,0.1308443431162611,25,up,up,0.5815124000000651,0.81252239065403,,experiment,cRDM,3.0,,,,1935.5808768,1002,29,female,True
670,0.1308443431162611,25,up,up,0.8881667000005109,1.87902119904969,,experiment,cRDM,3.0,,,,1938.3141707000004,1002,29,female,True
671,0.1308443431162611,25,down,down,0.7267286000005697,1.6667749361432027,,experiment,cRDM,3.0,,,,1941.1306967,1002,29,female,True
672,0.1308443431162611,25,down,down,0.5975076000004265,1.147969524152239,,experiment,cRDM,3.0,,,,1943.2639383,1002,29,female,True
673,0.1308443431162611,25,down,down,0.4931635000002643,0.8271484642575995,,experiment,cRDM,3.0,,,,1944.9472174,1002,29,female,True
674,0.1308443431162611,25,down,down,0.6528934999996636,0.9250368111558926,,experiment,cRDM,3.0,,,,1946.6304927,1002,29,female,True
675,0.1308443431162611,25,down,down,0.5313078999997742,0.943398027050948,,experiment,cRDM,3.0,,,,1948.4970620000004,1002,29,female,True
676,0.1308443431162611,25,down,down,0.6763889000003473,1.1116800730438248,,experiment,cRDM,3.0,,,,1950.3970029,1002,29,female,True
677,0.1308443431162611,25,up,up,0.7514560999998139,0.6063329246396139,,experiment,cRDM,3.0,,,,1951.9469310000004,1002,29,female,True
678,0.1308443431162611,25,up,up,0.6065238000001045,1.7800297329203565,,experiment,cRDM,3.0,,,,1954.7468574000004,1002,29,female,True
679,0.1308443431162611,25,up,up,0.8366366999998718,1.72338841419209,,experiment,cRDM,3.0,,,,1957.3467415000005,1002,29,female,True
680,0.1308443431162611,25,up,up,0.6737146999994366,0.4996747725975584,,experiment,cRDM,3.0,,,,1958.946694,1002,29,female,True
681,0.1308443431162611,25,down,down,0.7440950000000157,0.7806453707649214,,experiment,cRDM,3.0,,,,1960.6632843,1002,29,female,True
682,0.1308443431162611,25,up,up,0.6458269999993718,1.6194693003871348,,experiment,cRDM,3.0,,,,1963.2965513,1002,29,female,True
683,0.1308443431162611,25,up,up,0.6382509999993999,1.798152663479806,,experiment,cRDM,3.0,,,,1966.0131295,1002,29,female,True
684,0.1308443431162611,25,down,down,0.8469887999999628,0.5840643218758801,,experiment,cRDM,3.0,,,,1967.4963886,1002,29,female,True
685,0.1308443431162611,25,up,up,0.7211237000001347,1.8839137570357816,,experiment,cRDM,3.0,,,,1970.4962767,1002,29,female,True
686,0.1308443431162611,25,down,up,1.1399092999999991,1.9661506642217617,,experiment,cRDM,3.0,,,,1973.4294894000004,1002,29,female,True
687,0.1308443431162611,25,down,up,0.9142482999995992,1.2596966489484032,,experiment,cRDM,3.0,,,,1976.0960826,1002,29,female,True
688,0.1308443431162611,25,up,down,2.2960738000001584,1.207645534245099,,experiment,cRDM,3.0,,,,1978.479297,1002,29,female,True
689,0.1308443431162611,25,up,up,0.7262201000003188,1.5926455012664609,,experiment,cRDM,3.0,,,,1982.6291578,1002,29,female,True
690,0.1308443431162611,25,down,up,0.701890800000001,0.3891127984207129,,experiment,cRDM,3.0,,,,1984.0124674,1002,29,female,True
691,0.1308443431162611,25,up,down,1.1163526000000277,0.4093415705694679,,experiment,cRDM,3.0,,,,1985.3790256,1002,29,female,True
692,0.1308443431162611,25,down,down,0.9707798999997976,1.7549227837632566,,experiment,cRDM,3.0,,,,1988.4956022,1002,29,female,True
693,0.1308443431162611,25,down,down,0.7005272000005789,1.0972020078076412,,experiment,cRDM,3.0,,,,1990.8288419,1002,29,female,True
694,0.1308443431162611,25,down,down,0.6582860000007713,0.9242132705880872,,experiment,cRDM,3.0,,,,1992.7121180000004,1002,29,female,True
695,0.1308443431162611,25,up,up,0.6980445999997755,1.422642807758568,,experiment,cRDM,3.0,,,,1995.045364,1002,29,female,True
696,0.1308443431162611,25,up,down,0.7217573000007178,0.7901401145029843,,experiment,cRDM,3.0,,,,1996.7786136000004,1002,29,female,True
697,0.1308443431162611,25,up,up,0.6801757000002908,1.0788523633844105,,experiment,cRDM,3.0,,,,1998.8451981,1002,29,female,True
698,0.1308443431162611,25,down,down,0.7279006000007939,1.4473867245826626,,experiment,cRDM,3.0,,,,2001.2284756,1002,29,female,True
699,0.1308443431162611,25,down,down,1.1900065999998333,1.2998469657433942,,experiment,cRDM,3.0,,,,2003.5284347,1002,29,female,True
700,0.1308443431162611,25,up,down,0.5860534000003099,0.4966977392242335,,experiment,cRDM,3.0,,,,2005.4783168000004,1002,29,female,True
701,0.1308443431162611,25,down,down,0.6881421999996746,1.2076143928640124,,experiment,cRDM,3.0,,,,2007.5282276,1002,29,female,True
702,0.1308443431162611,25,up,down,0.7059073999998873,1.1199584010452248,,experiment,cRDM,3.0,,,,2009.6114786,1002,29,female,True
703,0.1308443431162611,25,up,up,0.6136784000000262,1.4746124845319435,,experiment,cRDM,3.0,,,,2012.0447029,1002,29,female,True
704,0.1308443431162611,25,up,up,0.6730320000006031,0.5890956789010974,,experiment,cRDM,3.0,,,,2013.5113391000004,1002,29,female,True
705,0.1308443431162611,25,down,down,0.5764971999997215,1.8809258567221463,,experiment,cRDM,3.0,,,,2016.327893,1002,29,female,True
706,0.1308443431162611,25,down,down,0.6775552000008247,1.956727753005622,,experiment,cRDM,3.0,,,,2019.1278012,1002,29,female,True
707,0.1308443431162611,25,up,up,1.511642100000245,1.678392988675245,,experiment,cRDM,3.0,,,,2021.7277101,1002,29,female,True
708,0.1308443431162611,25,down,down,0.5898293000000194,1.979315492384402,,experiment,cRDM,3.0,,,,2025.4775359000005,1002,29,female,True
709,0.1308443431162611,25,down,down,0.5795570999998745,1.4814460770581013,,experiment,cRDM,3.0,,,,2027.8108121000005,1002,29,female,True
710,0.1308443431162611,25,up,up,1.029014100000495,1.5231704752635933,,experiment,cRDM,3.0,,,,2030.1773916,1002,29,female,True
711,0.1308443431162611,25,up,down,0.5807277999992948,0.8528037589765545,,experiment,cRDM,3.0,,,,2032.3106309000004,1002,29,female,True
712,0.1308443431162611,25,down,down,0.537546100000327,1.2358261427093205,,experiment,cRDM,3.0,,,,2034.3938639,1002,29,female,True
713,0.1308443431162611,25,up,down,0.4442229000005682,0.4489015164463587,,experiment,cRDM,3.0,,,,2035.627178,1002,29,female,True
714,0.1308443431162611,25,down,down,1.0019319000002724,0.438958360338827,,experiment,cRDM,3.0,,,,2036.7604771,1002,29,female,True
715,0.1308443431162611,25,down,up,1.0233198999994784,1.505049613748678,,experiment,cRDM,3.0,,,,2039.5270436,1002,29,female,True
716,0.1308443431162611,25,down,down,0.7324257000000216,0.9704416397896044,,experiment,cRDM,3.0,,,,2041.7769367,1002,29,female,True
717,0.1308443431162611,25,up,up,0.6171623999998701,0.8818402196016746,,experiment,cRDM,3.0,,,,2043.6602294000004,1002,29,female,True
718,0.1308443431162611,25,up,up,0.6046180000003005,1.9448814500292388,,experiment,cRDM,3.0,,,,2046.4767682,1002,29,female,True
719,0.1308443431162611,25,down,down,0.7209963999994216,1.4989126119262053,,experiment,cRDM,3.0,,,,2048.8433640000003,1002,29,female,True
720,0.1308443431162611,25,down,up,0.96941919999972,1.680216885795531,,experiment,cRDM,3.0,,,,2051.5099677,1002,29,female,True
721,0.1308443431162611,25,up,up,0.6282257000002573,0.4524386003588425,,experiment,cRDM,3.0,,,,2053.1931916000003,1002,29,female,True
722,0.1308443431162611,25,up,up,0.6645423999998457,1.2200214001938077,,experiment,cRDM,3.0,,,,2055.309822,1002,29,female,True
723,0.1308443431162611,25,up,up,0.8093421999992643,1.6535077712898818,,experiment,cRDM,3.0,,,,2057.8930226,1002,29,female,True
724,0.1308443431162611,25,up,up,0.5676795999997921,1.6449089836809496,,experiment,cRDM,3.0,,,,2060.609632,1002,29,female,True
725,0.1308443431162611,25,up,up,1.006202999999914,1.9806742261864545,,experiment,cRDM,3.0,,,,2063.4261531,1002,29,female,True
726,0.1308443431162611,25,down,up,0.6335957000001144,0.5521982708205915,,experiment,cRDM,3.0,,,,2065.2427473,1002,29,female,True
727,0.1308443431162611,25,down,down,0.5933472999995502,0.4191685565723095,,experiment,cRDM,3.0,,,,2066.5760167,1002,29,female,True
728,0.1308443431162611,25,up,up,0.5976944000003641,0.4163840568228025,,experiment,cRDM,3.0,,,,2067.8426565,1002,29,female,True
