,stimLvl,stimTime,rand,response,rt,precedingITI,trialNumber,trialType,stimuli,block,estIntens,estThres,estSlope,trialStart,subject,age,gender,headRest
0,150.0,100,F,,,0.4780732478647804,,introTrial,emotion,,,,,291.91017230000216,1015,28,male,True
1,0.9,100,down,,,0.8443382892752345,,introTrial,cRDM,,,,,296.6933867000007,1015,28,male,True
2,0.9,25,up,up,0.8853041000002122,1.952611428334068,,tutorial,cRDM,,,,,334.0419613000013,1015,28,male,True
3,0.9,25,down,down,0.7960631999994803,1.26265584272241,,tutorial,cRDM,,,,,336.4752055999997,1015,28,male,True
4,0.9,25,down,down,0.9544900999972016,0.9413652624401572,,tutorial,cRDM,,,,,338.49179000000004,1015,28,male,True
5,0.9,25,up,up,0.5821901999988768,0.5547945954177271,,tutorial,cRDM,,,,,340.2750765000019,1015,28,male,True
6,0.9,25,up,up,0.6872332999992068,0.9858359405702106,,tutorial,cRDM,,,,,342.1250103999992,1015,28,male,True
7,0.9,25,down,down,0.7246228000003612,0.9026791283843908,,tutorial,cRDM,,,,,343.99162050000086,1015,28,male,True
8,0.9,25,down,up,0.5284396000024572,1.7391948996236588,,tutorial,cRDM,,,,,346.7248380000019,1015,28,male,True
9,0.9,25,up,up,0.766853600001923,1.524569060515392,,tutorial,cRDM,,,,,349.04140779999943,1015,28,male,True
10,0.9,25,down,down,0.5949080999998841,0.4458103765250862,,tutorial,cRDM,,,,,350.5413779000009,1015,28,male,True
11,0.9,25,up,up,0.7059827000011865,0.5288573708992452,,tutorial,cRDM,,,,,351.9412931000006,1015,28,male,True
12,200.0,25,M,up,0.5935503000000608,0.7823932136713143,,tutorial,emotion,,,,,385.5067464999993,1015,28,male,True
13,200.0,25,M,up,0.4492696000015712,0.3682913382631966,,tutorial,emotion,,,,,386.7400362000008,1015,28,male,True
14,200.0,25,F,up,0.3835008999994898,0.7348900854193422,,tutorial,emotion,,,,,388.2233077000019,1015,28,male,True
15,0.0,25,F,down,0.531066200001078,1.9611775356282308,,tutorial,emotion,,,,,390.9232101000016,1015,28,male,True
16,0.0,25,M,down,0.4438625000002503,1.75238977036802,,tutorial,emotion,,,,,393.5064430999992,1015,28,male,True
17,200.0,25,F,up,0.5319576000001689,1.1189598839608124,,tutorial,emotion,,,,,395.356377600001,1015,28,male,True
18,0.0,25,M,down,0.6583146000011766,1.2438141348531986,,tutorial,emotion,,,,,397.4229699999996,1015,28,male,True
19,200.0,25,M,up,0.4650202000011632,1.2027566029872006,,tutorial,emotion,,,,,399.5562403000004,1015,28,male,True
20,0.0,25,F,down,0.6990881999990961,1.888207417881825,,tutorial,emotion,,,,,402.1894104999992,1015,28,male,True
21,0.0,25,F,up,0.445878200000152,0.7602677179183117,,tutorial,emotion,,,,,403.9393955000014,1015,28,male,True
22,0.29,25,up,up,0.6841328000009526,1.6770762745304866,,psi_staircase_training,cRDM,,0.25,0.2569312402994632,0.105,419.42215560000113,1015,28,male,True
23,0.25,25,up,down,1.2444864999997662,0.9056936677650648,,psi_staircase_training,cRDM,,0.2191026665318312,0.2260132002683492,0.1046863203387393,421.2887959,1015,28,male,True
24,0.36,25,down,down,1.2145749000010255,0.5294920426995937,,psi_staircase_training,cRDM,,0.3202997408361979,0.3276103223604739,0.1107465658214764,423.3386903999999,1015,28,male,True
25,0.33,25,down,up,0.7107117000014114,1.7945550110303263,,psi_staircase_training,cRDM,,0.2990372097977385,0.3064139828071687,0.1117492876491608,426.6385690999996,1015,28,male,True
26,0.4,25,up,up,0.6431010999986029,1.600620207039401,,psi_staircase_training,cRDM,,0.3699276726653445,0.3772964946370089,0.1116288389373366,429.2051434000023,1015,28,male,True
27,0.39,25,down,down,0.6766542999976082,1.8674349868834412,,psi_staircase_training,cRDM,,0.3553670464059001,0.3628259524843164,0.1129935054039829,431.9716810000027,1015,28,male,True
28,0.38,25,up,up,0.5119518999999855,1.023883322147212,,psi_staircase_training,cRDM,,0.341530191272383,0.3489728411533976,0.1127472434575731,433.9383001000024,1015,28,male,True
29,0.38,25,down,down,2.06272700000045,1.3050519796143694,,psi_staircase_training,cRDM,,0.3285547585316162,0.3359124235591759,0.1114598245791008,436.02155400000265,1015,28,male,True
30,0.36,25,down,up,1.2752256999992824,0.6497048437243902,,psi_staircase_training,cRDM,,0.3173625158059068,0.3245406052546637,0.1087394693526702,438.9880107000026,1015,28,male,True
31,0.4,25,up,up,0.7909341999984463,1.186438876807913,,psi_staircase_training,cRDM,,0.3641098089922938,0.3715037249243027,0.1120089824213787,441.72134860000006,1015,28,male,True
32,0.4,25,down,down,0.8779518000010285,0.4832256860955827,,psi_staircase_training,cRDM,,0.3550630956441811,0.3622318509930378,0.1085980689038066,443.2712735999994,1015,28,male,True
33,0.4,25,down,up,0.8436820999995689,1.4257993759559888,,psi_staircase_training,cRDM,,0.34747113732529,0.3543399052336446,0.1040536179986548,445.8545301000013,1015,28,male,True
34,0.42,25,down,down,0.9011377999995602,0.391841419400518,,psi_staircase_training,cRDM,,0.3821990894317438,0.391001134318606,0.1333404518080401,447.3711398000014,1015,28,male,True
35,0.42,25,up,down,1.2982592000007571,1.136019941433278,,psi_staircase_training,cRDM,,0.3735026428822082,0.3822799729411637,0.1329660517269461,449.68798660000175,1015,28,male,True
36,0.45,25,up,up,1.530994799999462,1.2861427272343493,,psi_staircase_training,cRDM,,0.4055660575475861,0.4147808788226658,0.1395935203629134,452.5542889000026,1015,28,male,True
37,0.45,25,down,down,0.8084424000007857,1.3533801093910616,,psi_staircase_training,cRDM,,0.3986898629999622,0.4079652547795157,0.1405110910566082,455.7208391999993,1015,28,male,True
38,0.41,25,down,up,0.9348417000001064,0.5369900619611865,,psi_staircase_training,cRDM,,0.3922495846765644,0.4015126323482929,0.1403240925879898,457.3374437999992,1015,28,male,True
39,0.46,25,up,up,0.907913799997914,0.6236087735780207,,psi_staircase_training,cRDM,,0.4160890913651945,0.4248210632835358,0.1322789301500394,459.1707064000002,1015,28,male,True
40,0.46,25,up,up,0.9929540999983146,0.3827987780633822,,psi_staircase_training,cRDM,,0.4113581939431001,0.4199861388456701,0.1307030452890244,460.73732240000027,1015,28,male,True
41,0.46,25,up,up,0.9017550999997184,1.672899444821298,,psi_staircase_training,cRDM,,0.40706419774279,0.415528138806383,0.1282185832954157,463.6705318000022,1015,28,male,True
42,0.46,25,up,up,0.7572005000001809,1.7262650097058263,,psi_staircase_training,cRDM,,0.4032078954818255,0.4114614603600198,0.1250316357200178,466.587019300001,1015,28,male,True
43,0.4,25,down,down,0.6819557999988319,0.5963078462244795,,psi_staircase_training,cRDM,,0.3997936797175683,0.4078013991442771,0.1213073711886083,468.2203786999999,1015,28,male,True
44,0.4,25,down,up,1.013940899996669,0.3924994201429443,,psi_staircase_training,cRDM,,0.3918841229616732,0.4004413567963454,0.1296318571887,469.57029850000254,1015,28,male,True
45,0.47,25,down,up,1.5980716999983997,0.7962729531202979,,psi_staircase_training,cRDM,,0.4118993719850237,0.4193743641788527,0.1132371908116966,471.67024460000175,1015,28,male,True
46,0.47,25,up,up,0.8261366000006092,0.3338777378834606,,psi_staircase_training,cRDM,,0.4247324152547855,0.4342591676170028,0.1443189032286582,473.8701513000015,1015,28,male,True
47,0.47,25,up,up,0.8228381000008085,0.4439151568903641,,psi_staircase_training,cRDM,,0.4210015322695832,0.43044620271745,0.1430754604053781,475.4034444000026,1015,28,male,True
48,0.47,25,down,down,1.1376660000023548,0.7878876766053224,,psi_staircase_training,cRDM,,0.4174281828777894,0.4267564738943947,0.1413124512245531,477.28662070000064,1015,28,male,True
49,0.47,25,down,down,1.3773142999998529,1.7791442113980152,,psi_staircase_training,cRDM,,0.4140267070791,0.4232089791267382,0.1391004384996829,480.46994110000014,1015,28,male,True
50,0.47,25,up,up,0.7377632999996422,1.615722875110848,,psi_staircase_training,cRDM,,0.4108181822959205,0.4198282213515705,0.136491314680939,483.7364899000022,1015,28,male,True
51,0.47,25,up,up,0.7692447999979777,1.196089266181099,,psi_staircase_training,cRDM,,0.4078274615082104,0.4166417567244309,0.1335260296450581,485.9530397000017,1015,28,male,True
52,100.0,25,M,down,1.73992139999973,1.783438918127922,,psi_staircase_training,emotion,,100.0,100.0,25.00050000000001,505.7523172000001,1015,28,male,True
53,145.0,25,M,up,1.0020678000000771,1.3136170074897546,,psi_staircase_training,emotion,,145.25719053245996,145.25719053245996,25.00050000000028,509.1521973000017,1015,28,male,True
54,121.0,25,F,up,0.8698563999969338,1.2196407704346353,,psi_staircase_training,emotion,,120.36392901436103,120.36392901436103,25.71326925488699,511.73543880000216,1015,28,male,True
55,97.0,25,F,up,0.8729377000017848,1.7687199265867144,,psi_staircase_training,emotion,,102.3887610608496,102.3887610608496,26.14633372628729,514.7353547999992,1015,28,male,True
56,73.0,25,M,down,0.9212991999993392,0.4298937429150696,,psi_staircase_training,emotion,,82.84358992132628,82.84358992132628,31.43229144782805,516.4019550000012,1015,28,male,True
57,84.0,25,F,down,0.8777100000006612,0.8249353057027684,,psi_staircase_training,emotion,,94.9613577591715,94.9613577591715,29.694064005486624,518.5185411999992,1015,28,male,True
58,112.0,25,M,up,1.8348456000021545,1.5161400204061986,,psi_staircase_training,emotion,,101.8384874441451,101.8384874441451,27.87588470540148,521.2684351000025,1015,28,male,True
59,84.0,25,F,down,0.8354529999996885,0.8373225645673303,,psi_staircase_training,emotion,,96.52149301196152,96.52149301196152,26.167505567849595,524.2848343000005,1015,28,male,True
60,112.0,25,F,down,1.0821991999982856,1.8168442008195127,,psi_staircase_training,emotion,,100.4399405768832,100.4399405768832,24.06105184598652,527.2680868000025,1015,28,male,True
61,126.0,25,M,up,1.3807750999985728,0.969338117390043,,psi_staircase_training,emotion,,108.0801610619109,108.0801610619109,29.041294677715943,529.6847944000001,1015,28,male,True
62,124.0,25,F,up,1.2539575999981023,1.950215136232775,,psi_staircase_training,emotion,,105.08896926771185,105.08896926771185,27.33117995363581,533.4013180000002,1015,28,male,True
63,86.0,25,F,down,0.8043612000001303,1.1859250979265794,,psi_staircase_training,emotion,,102.87868822781492,102.87868822781492,25.805267019112872,536.2178784999996,1015,28,male,True
64,123.0,25,F,up,0.8971464000023843,0.5911087319895818,,psi_staircase_training,emotion,,105.05490575820892,105.05490575820892,24.098324117648808,538.0011574000018,1015,28,male,True
65,87.0,25,M,down,0.8605433000011544,0.5970744783608639,,psi_staircase_training,emotion,,103.44958261412408,103.44958261412408,22.56225274293317,539.8677467000016,1015,28,male,True
66,121.0,25,M,up,1.673266199999489,1.4522670239671955,,psi_staircase_training,emotion,,105.04140753129036,105.04140753129036,20.93499630065948,542.5509677000009,1015,28,male,True
67,90.0,25,F,down,0.8733496999993804,0.7599366907816059,,psi_staircase_training,emotion,,103.80075420188804,103.80075420188804,19.497438487041144,545.3508952000011,1015,28,male,True
68,92.0,25,F,down,1.0841762999989442,1.639473634066217,,psi_staircase_training,emotion,,105.1127863278682,105.1127863278682,18.029343602120697,548.2341062000014,1015,28,male,True
69,119.0,25,M,up,0.964950500001578,1.378500761886568,,psi_staircase_training,emotion,,106.18558110903024,106.18558110903024,16.777412019767038,551.0673224999991,1015,28,male,True
70,107.0,25,M,down,0.8104794999999285,0.6020468397324021,,psi_staircase_training,emotion,,105.19325297460615,105.19325297460615,15.51125433040679,552.9838223000006,1015,28,male,True
71,105.0,25,M,down,1.6230925999989267,0.6008441916455007,,psi_staircase_training,emotion,,107.46837842830112,107.46837842830112,15.71136209149604,554.767186000001,1015,28,male,True
72,106.0,25,M,down,1.4452438000007533,1.6231535933919097,,psi_staircase_training,emotion,,109.0687684379773,109.0687684379773,15.006065882492775,558.3840068000027,1015,28,male,True
73,106.0,25,F,up,1.5893711999997322,1.3206704254782002,,psi_staircase_training,emotion,,110.45740324016906,110.45740324016906,14.166431496102032,561.4838913000021,1015,28,male,True
74,123.0,25,F,up,0.8840681000001496,1.3520958615809024,,psi_staircase_training,emotion,,108.40183342076804,108.40183342076804,16.12504542251224,564.8001659000001,1015,28,male,True
75,122.0,25,F,up,0.8812054000009084,1.732757498693562,,psi_staircase_training,emotion,,107.79005417931204,107.79005417931204,14.955729274151452,567.8000714000009,1015,28,male,True
76,95.0,25,M,down,0.8052870000028634,1.1896989605733783,,psi_staircase_training,emotion,,107.31712600359587,107.31712600359587,13.975806538168984,570.2499559000025,1015,28,male,True
77,97.0,25,M,up,1.208329799999774,0.9418541342898206,,psi_staircase_training,emotion,,107.83240592079396,107.83240592079396,13.076753774447353,572.3499068000019,1015,28,male,True
78,123.0,25,F,up,0.7780821999986074,0.353497802332509,,psi_staircase_training,emotion,,105.8472718060288,105.8472718060288,16.327817658378002,574.2331534000004,1015,28,male,True
79,90.0,25,F,down,1.062474000002112,0.3095001393381169,,psi_staircase_training,emotion,,105.4635756851633,105.4635756851633,15.463956750416225,575.6997783000006,1015,28,male,True
80,121.0,25,M,up,0.8025906000002578,0.4296341499389798,,psi_staircase_training,emotion,,105.87322182188144,105.87322182188144,14.64783793871845,577.549705100002,1015,28,male,True
81,91.0,25,M,down,1.0890705999991042,1.8383601158963785,,psi_staircase_training,emotion,,105.52537006083554,105.52537006083554,13.942807874281009,580.5662407000018,1015,28,male,True
82,0.29,25,up,up,0.7853606999997282,1.0742116290976331,,psi_staircase,cRDM,,0.25,0.2569312402994632,0.105,599.5988937000002,1015,28,male,True
83,0.25,25,up,up,0.8757691999999224,1.0667695948563385,,psi_staircase,cRDM,,0.2191026665318312,0.2260132002683492,0.1046863203387393,601.7154871000021,1015,28,male,True
84,0.21,25,down,down,0.7095764999976382,0.738027403875288,,psi_staircase,cRDM,,0.1900540959403307,0.1968497961554001,0.1029467298424999,603.5987354999997,1015,28,male,True
85,0.18,25,down,up,1.157626700001856,1.3745417781434024,,psi_staircase,cRDM,,0.1635257589279754,0.1701521334256793,0.1003816477568649,605.9486541000006,1015,28,male,True
86,0.28,25,up,up,1.105415599999105,1.9318751257097777,,psi_staircase,cRDM,,0.2462894156509761,0.253676874431043,0.111911164292932,609.2818905000022,1015,28,male,True
87,0.26,25,down,down,0.8848552000017662,0.3163440688921177,,psi_staircase,cRDM,,0.224020924517144,0.2312720210897802,0.1098454399547734,610.9653894000003,1015,28,male,True
88,0.23,25,up,up,0.8735735000009299,1.6296386753272016,,psi_staircase,cRDM,,0.2047781477371871,0.211824604656558,0.106745393979666,613.7317188000015,1015,28,male,True
89,0.23,25,down,down,0.6930029000031936,1.7290209031577857,,psi_staircase,cRDM,,0.1874201716315257,0.1943184465858974,0.1045006144520947,616.5982958000022,1015,28,male,True
90,0.21,25,down,down,1.063390100000106,1.3509680489196634,,psi_staircase,cRDM,,0.1734597158637905,0.1801271287888497,0.1010033308447589,618.9148642,1015,28,male,True
91,0.17,25,up,up,0.8658335000000079,0.9903670918700658,,psi_staircase,cRDM,,0.1604596670362223,0.167027966793554,0.0995018849040958,621.2314557999998,1015,28,male,True
92,0.17,25,down,down,0.8668691999992006,0.9084598605334028,,psi_staircase,cRDM,,0.1444495168362478,0.1514653128703286,0.1062809182413607,623.2813951999997,1015,28,male,True
93,0.16,25,down,up,1.6049922999991395,1.119513899963127,,psi_staircase,cRDM,,0.129450188150751,0.1367437410700543,0.1104886028242535,625.531270800002,1015,28,male,True
94,0.22,25,down,down,1.087742600000638,1.86972124757568,,psi_staircase,cRDM,,0.17396020279296,0.1807572427427678,0.1029670252213135,629.2645493000018,1015,28,male,True
95,0.19,25,up,up,0.7825426999988849,0.822918421379264,,psi_staircase,cRDM,,0.1655563016517874,0.1720733007365464,0.0987247410759487,631.4477191000005,1015,28,male,True
96,0.16,25,up,down,1.0436097999991034,0.5030252551110307,,psi_staircase,cRDM,,0.1551367065662806,0.1618351803618357,0.1014738658805038,632.9976731999996,1015,28,male,True
97,0.21,25,down,down,1.0148047000002407,0.772862717512486,,psi_staircase,cRDM,,0.1831368750779238,0.1883987685763001,0.0797113926885918,635.0645433999998,1015,28,male,True
98,0.2,25,down,down,1.1483569000010905,0.5334283870954089,,psi_staircase,cRDM,,0.1770190652145069,0.1819529866816313,0.074743008706275,636.8809145000014,1015,28,male,True
99,0.2,25,up,up,0.8218301000015344,0.5076913570700426,,psi_staircase,cRDM,,0.1714801184252141,0.1762157835449894,0.0717396621806505,638.7974663999994,1015,28,male,True
100,0.19,25,up,down,1.145908700000291,1.80635372673661,,psi_staircase,cRDM,,0.1672692845887794,0.171773963223013,0.0682404932103077,641.6973543000022,1015,28,male,True
101,0.22,25,up,up,1.2670557000019471,1.890269148003302,,psi_staircase,cRDM,,0.1861965492535818,0.1908221936482352,0.0700729797921182,644.9972309000004,1015,28,male,True
102,0.22,25,up,up,1.2051927000029536,1.2671449878259031,,psi_staircase,cRDM,,0.1828619368104599,0.187066033358913,0.063687034140449,647.7971299000019,1015,28,male,True
103,0.21,25,down,down,1.120869100002892,0.5246735096437076,,psi_staircase,cRDM,,0.180727290618624,0.1845434379523511,0.0578100675679032,649.7804198000013,1015,28,male,True
104,0.2,25,down,down,0.9986637000001792,1.0578372151001525,,psi_staircase,cRDM,,0.1788129306372486,0.1823362300744723,0.0533737722146406,652.2136314000018,1015,28,male,True
105,0.19,25,down,down,0.7323972000012873,1.629893939209189,,psi_staircase,cRDM,,0.1761880773966453,0.1796011375337841,0.0517037786768586,655.0968792999993,1015,28,male,True
106,0.18,25,up,up,0.8800983000000997,1.769998448784883,,psi_staircase,cRDM,,0.1719824267015436,0.175562602867503,0.0542353866240718,657.8801138000017,1015,28,male,True
107,0.17,25,up,down,1.7679067999997642,0.4919165161501715,,psi_staircase,cRDM,,0.165663295858261,0.1697424814924639,0.0617947831969516,659.5133616000021,1015,28,male,True
108,0.19,25,down,down,0.8316765999989002,0.5005190400100092,,psi_staircase,cRDM,,0.1805676817030133,0.1832533378589848,0.0406844784185074,662.0465867000021,1015,28,male,True
109,0.19,25,down,down,0.82142009999734,1.728711887569134,,psi_staircase,cRDM,,0.1777303548581057,0.1804714488705742,0.0415242956345747,664.8798678000021,1015,28,male,True
110,0.19,25,up,up,0.7035222999984398,1.5206348267158127,,psi_staircase,cRDM,,0.175187139593733,0.1779549292484808,0.041928702684139,667.4797577000027,1015,28,male,True
111,0.19,25,up,up,0.9476103000015428,1.036478282160236,,psi_staircase,cRDM,,0.1729634927443676,0.1757319154297177,0.041938292340589,669.479686900002,1015,28,male,True
112,0.19,25,down,down,1.0966666000022087,1.69637146068857,,psi_staircase,cRDM,,0.1710622430606358,0.1738088769085892,0.0416082175159104,672.3796007000019,1015,28,male,True
113,0.18,25,up,up,0.7514572000000044,1.2742319111234013,,psi_staircase,cRDM,,0.1694702554674682,0.1721766762984398,0.0409990384078911,675.0128096000008,1015,28,male,True
114,0.16,25,down,down,0.9155869000023812,1.587521361347251,,psi_staircase,cRDM,,0.1659117188524974,0.1688520674753386,0.0445427646509714,677.6127039999992,1015,28,male,True
115,0.16,25,up,up,1.0300444999993488,1.3395376352420445,,psi_staircase,cRDM,,0.1587688482766191,0.1624867538879492,0.056321822981652,680.1292785000005,1015,28,male,True
116,0.16,25,down,down,0.777625499998976,1.6438172440909076,,psi_staircase,cRDM,,0.150052793340539,0.1546658020911397,0.0698815648983606,683.0626360999995,1015,28,male,True
117,0.15,25,up,up,0.7271398999982921,1.5884472934128522,,psi_staircase,cRDM,,0.1402192688675499,0.1457790070301368,0.0842233830959275,685.6791392000014,1015,28,male,True
118,0.15,25,down,up,1.0731067999986408,0.9933188668321192,,psi_staircase,cRDM,,0.1295075483505984,0.1360497123020546,0.0991059587064231,687.6621836000013,1015,28,male,True
119,0.16,25,up,up,1.1007073000000671,1.256184752751404,,psi_staircase,cRDM,,0.1529847201931223,0.1575626858992016,0.0693507046892527,690.245578500002,1015,28,male,True
120,0.15,25,up,down,0.9787875000001804,0.6234038409443141,,psi_staircase,cRDM,,0.144201008464257,0.1496923667975608,0.0831875104721952,692.2455030000019,1015,28,male,True
121,0.16,25,down,down,0.7631744999998773,1.1191800150753044,,psi_staircase,cRDM,,0.162353148265297,0.1660316949951242,0.0557255830044966,694.6120762999999,1015,28,male,True
122,0.16,25,down,up,1.342957999997452,1.9101151257197797,,psi_staircase,cRDM,,0.155513187936556,0.1600058273084852,0.068058112786697,697.5453063000023,1015,28,male,True
123,0.18,25,down,down,1.4314320999983463,0.9608115232276312,,psi_staircase,cRDM,,0.169185866301088,0.1721569927517902,0.0450090119293501,700.1118637,1015,28,male,True
124,0.18,25,up,up,1.114187099999981,1.0336617663736674,,psi_staircase,cRDM,,0.1665870644235514,0.1696820858254071,0.0468858722471383,702.8451148000022,1015,28,male,True
125,0.17,25,up,up,1.0229872000018077,0.5538714955085101,,psi_staircase,cRDM,,0.1641821536486409,0.1673691781803896,0.0482796096190064,704.7782747000019,1015,28,male,True
126,0.15,25,down,down,0.8329703000017616,0.6146119154593803,,psi_staircase,cRDM,,0.1598887398566573,0.1634999015596084,0.0547047804473361,706.6783289000014,1015,28,male,True
127,0.15,25,down,down,0.891326900000422,0.461470988672122,,psi_staircase,cRDM,,0.1533241660397616,0.1578017198285201,0.067829584245702,708.2449363000014,1015,28,male,True
128,0.15,25,down,down,0.7698343999982171,1.658427314794383,,psi_staircase,cRDM,,0.1457069407426699,0.1511212027279734,0.082019593015825,711.0614704,1015,28,male,True
129,0.15,25,up,up,0.9052374000020792,1.2184681259865575,,psi_staircase,cRDM,,0.1375146277555335,0.1438606417273535,0.0961345211321978,713.3280560999992,1015,28,male,True
130,0.15,25,up,down,1.1363134000021091,0.5201897128132029,,psi_staircase,cRDM,,0.1293257555281466,0.1365240106092866,0.1090449545629265,715.0279880000016,1015,28,male,True
131,0.15,25,up,up,1.1200521999999182,0.8350936090401149,,psi_staircase,cRDM,,0.1478575355224486,0.1533166744065448,0.0826994243547562,717.2612388000016,1015,28,male,True
132,100.0,25,M,,,1.149952069153549,,psi_staircase,emotion,,100.0,100.0,25.00050000000001,739.2604195000022,1015,28,male,True
133,100.0,25,F,down,2.393652399998245,1.149952069153549,,psi_staircase,emotion,,100.0,100.0,25.00050000000001,743.0936672000025,1015,28,male,True
134,145.0,25,M,up,0.6484240999998292,1.3669789928679956,,psi_staircase,emotion,,145.25719053245996,145.25719053245996,25.00050000000028,747.2268265000021,1015,28,male,True
135,121.0,25,F,up,0.8881999000004726,0.3422507226719278,,psi_staircase,emotion,,120.36392901436103,120.36392901436103,25.71326925488699,748.6101068999997,1015,28,male,True
136,97.0,25,F,up,1.1820138000002771,1.0364508769276617,,psi_staircase,emotion,,102.3887610608496,102.3887610608496,26.14633372628729,750.8933524999993,1015,28,male,True
137,73.0,25,M,down,0.7920511999982409,1.1960113773984973,,psi_staircase,emotion,,82.84358992132628,82.84358992132628,31.43229144782805,753.6432562000009,1015,28,male,True
138,84.0,25,F,down,1.2351409000002604,1.5948833394582222,,psi_staircase,emotion,,94.9613577591715,94.9613577591715,29.694064005486624,756.3931650000013,1015,28,male,True
139,112.0,25,M,up,0.9012720999999146,0.9371212319301716,,psi_staircase,emotion,,101.8384874441451,101.8384874441451,27.87588470540148,758.9430339999999,1015,28,male,True
140,84.0,25,F,down,0.872341399997822,0.3013217532487719,,psi_staircase,emotion,,96.52149301196152,96.52149301196152,26.167505567849595,760.476332000002,1015,28,male,True
141,112.0,25,F,up,1.1069663999987824,0.5958328901014817,,psi_staircase,emotion,,100.4399405768832,100.4399405768832,24.06105184598652,762.2762928000011,1015,28,male,True
142,86.0,25,M,down,1.0408146000008855,1.3647688609491353,,psi_staircase,emotion,,97.27117883264344,97.27117883264344,21.995508974138588,765.1094903000012,1015,28,male,True
143,109.0,25,F,down,2.3113106999990123,1.3675504643887002,,psi_staircase,emotion,,99.8380683730314,99.8380683730314,19.86449481087272,767.8759815000012,1015,28,male,True
144,122.0,25,F,up,0.8780368000007002,0.6263218884145398,,psi_staircase,emotion,,105.4383643285786,105.4383643285786,24.84197731350716,771.159259600001,1015,28,male,True
145,120.0,25,F,up,0.984719199997926,1.632093495998978,,psi_staircase,emotion,,103.38022921821836,103.38022921821836,22.923532153473783,774.0425300999996,1015,28,male,True
146,87.0,25,M,down,0.8335076000003028,0.5678711672687913,,psi_staircase,emotion,,101.87619686219128,101.87619686219128,21.234865453809064,775.9757654000023,1015,28,male,True
147,119.0,25,M,up,1.5652530000006664,0.7294374898920011,,psi_staircase,emotion,,103.41406914535943,103.41406914535943,19.464001104867027,777.909025500001,1015,28,male,True
148,90.0,25,F,down,0.6849684000007983,0.4701131851799062,,psi_staircase,emotion,,102.35248138501274,102.35248138501274,17.91999800365311,780.2922682999997,1015,28,male,True
149,107.0,25,F,up,1.0074973000009777,0.9236536124224156,,psi_staircase,emotion,,103.59820597756584,103.59820597756584,16.35481717732044,782.2588146000016,1015,28,male,True
150,89.0,25,M,down,1.0396419999997306,0.3104211042295071,,psi_staircase,emotion,,101.77206124296131,101.77206124296131,15.952108897688316,783.9586663000009,1015,28,male,True
151,115.0,25,M,up,1.6432396999989578,0.9195681133153384,,psi_staircase,emotion,,102.6299926115223,102.6299926115223,14.632363277627064,786.2920482000009,1015,28,male,True
152,92.0,25,M,down,0.927380400000402,0.5235473288483293,,psi_staircase,emotion,,101.94402894525416,101.94402894525416,13.502877289361727,788.8419362999994,1015,28,male,True
153,94.0,25,M,down,1.2750468000012916,0.78591149394418,,psi_staircase,emotion,,102.71352602172703,102.71352602172703,12.456379965247455,790.9252310000011,1015,28,male,True
154,113.0,25,F,up,0.8932190999985323,1.8980286212453037,,psi_staircase,emotion,,103.40377340561692,103.40377340561692,11.60271516745122,794.4750875000027,1015,28,male,True
155,103.0,25,F,down,1.129278799999156,1.1727188740492946,,psi_staircase,emotion,,102.81402217092398,102.81402217092398,10.755355198321244,796.9249893000015,1015,28,male,True
156,98.0,25,F,down,1.3847062999993796,1.0485665409817193,,psi_staircase,emotion,,104.16917777071023,104.16917777071023,10.754450368570764,799.4915686999993,1015,28,male,True
157,114.0,25,M,up,0.8895148000010522,1.7223128605754612,,psi_staircase,emotion,,104.81344581915778,104.81344581915778,10.0873862382636,802.9747898000023,1015,28,male,True
158,102.0,25,M,down,1.0352935000009893,0.7734493253384234,,psi_staircase,emotion,,104.4026827523446,104.4026827523446,9.387702473860882,805.0080129000016,1015,28,male,True
159,102.0,25,F,down,1.0540516000000937,1.4766639613162191,,psi_staircase,emotion,,105.23813621592184,105.23813621592184,8.94157322110639,807.8412544999992,1015,28,male,True
160,103.0,25,F,down,1.0912273000030837,1.7053172566547532,,psi_staircase,emotion,,105.92797684779364,105.92797684779364,8.428174526416445,810.9411309999996,1015,28,male,True
161,103.0,25,M,,,0.5627152023959545,,psi_staircase,emotion,,106.57794261912636,106.57794261912636,7.9209408132114945,812.9244206000003,1015,28,male,True
162,103.0,25,F,down,0.9229828999996244,0.5627152023959545,,psi_staircase,emotion,,106.57794261912636,106.57794261912636,7.9209408132114945,816.1742909000022,1015,28,male,True
163,104.0,25,M,down,1.4994162000002689,1.8290916592669704,,psi_staircase,emotion,,107.10740793964472,107.10740793964472,7.366129421137946,819.2908578999995,1015,28,male,True
164,104.0,25,F,up,2.2822077000018908,1.8362619099988364,,psi_staircase,emotion,,107.61379348702027,107.61379348702027,6.830156538261682,822.9740864000014,1015,28,male,True
165,114.0,25,M,up,0.8503961999995227,1.1173704394094128,,psi_staircase,emotion,,106.55142750669944,106.55142750669944,8.335990606251384,826.7239050999997,1015,28,male,True
166,113.0,25,F,up,1.024768100000074,0.693751278556991,,psi_staircase,emotion,,106.23469066329382,106.23469066329382,7.735235739810364,828.640477500001,1015,28,male,True
167,101.0,25,M,up,1.7172852000003331,1.7050261859568447,,psi_staircase,emotion,,105.96803699495086,105.96803699495086,7.233964454082676,831.7570176000008,1015,28,male,True
168,114.0,25,F,up,1.1920312000002014,1.9659583125428293,,psi_staircase,emotion,,105.02660894245491,105.02660894245491,8.637257934454793,835.7902400999992,1015,28,male,True
169,97.0,25,M,down,0.8864514999986568,0.3168780713908016,,psi_staircase,emotion,,104.82611828017208,104.82611828017208,8.207890008307048,837.6568336000018,1015,28,male,True
170,113.0,25,F,down,1.0058533000010357,0.8087278759579861,,psi_staircase,emotion,,105.02489846790446,105.02489846790446,7.83394061229625,839.6734361000017,1015,28,male,True
171,117.0,25,M,up,1.0375950999987251,0.8777415722923587,,psi_staircase,emotion,,106.0327722214768,106.0327722214768,9.725153671684678,841.9066798999993,1015,28,male,True
172,116.0,25,M,up,1.958685500001593,1.015652299630364,,psi_staircase,emotion,,105.84945034644636,105.84945034644636,9.291996254776764,844.3065812999994,1015,28,male,True
173,96.0,25,F,down,1.7051484000003256,1.1824825871075877,,psi_staircase,emotion,,105.68401408676095,105.68401408676095,8.919789176331138,847.8231191000013,1015,28,male,True
174,97.0,25,F,,,0.682108835710016,,psi_staircase,emotion,,105.84834341825444,105.84834341825444,8.588425713110617,850.5896905000009,1015,28,male,True
175,97.0,25,M,down,1.1311542999974336,0.682108835710016,,psi_staircase,emotion,,105.84834341825444,105.84834341825444,8.588425713110617,853.9561529999992,1015,28,male,True
176,115.0,25,F,up,1.0532180999980485,1.5848489741605565,,psi_staircase,emotion,,106.00912552000392,106.00912552000392,8.291199430679818,857.0560848000023,1015,28,male,True
177,98.0,25,M,down,1.0253594999994675,1.7161638906905736,,psi_staircase,emotion,,105.85483339932016,105.85483339932016,8.012469338650787,860.2060071000014,1015,28,male,True
178,114.0,25,M,up,1.6594630999970832,1.3443226806532158,,psi_staircase,emotion,,106.01751163703668,106.01751163703668,7.760765757906423,862.9558116000007,1015,28,male,True
179,99.0,25,F,down,1.8538291000004392,0.5812614940400542,,psi_staircase,emotion,,105.86591897421692,105.86591897421692,7.525180283084685,865.572479800001,1015,28,male,True
180,113.0,25,F,up,0.8089622000006784,1.6422005585370862,,psi_staircase,emotion,,106.0338785117885,106.0338785117885,7.306122417686151,869.422334400002,1015,28,male,True
181,99.0,25,F,down,1.313686299999972,1.7465750794336607,,psi_staircase,emotion,,105.87967883262088,105.87967883262088,7.101558755319068,872.3055821000016,1015,28,male,True
182,100.0,25,M,down,1.4261264000015217,0.9410774120801736,,psi_staircase,emotion,,106.02863317684054,106.02863317684054,6.910936370938486,874.9221505000023,1015,28,male,True
183,113.0,25,M,up,1.8483358999983464,1.302229098316058,,psi_staircase,emotion,,106.18742773694584,106.18742773694584,6.732841546426025,877.9720281000009,1015,28,male,True
184,100.0,25,M,down,1.616147100001399,1.9033269002792108,,psi_staircase,emotion,,106.05281697406656,106.05281697406656,6.562035450745273,882.0551209000005,1015,28,male,True
185,0.1403553629108005,25,down,up,0.9993571000013616,1.0859096861399655,,experiment,cRDM,0.0,,,,916.2538649000016,1015,28,male,True
186,0.1403553629108005,25,down,up,0.9854959999975108,1.1419763244912815,,experiment,cRDM,0.0,,,,918.653780200002,1015,28,male,True
187,0.1403553629108005,25,down,down,0.5914999000015086,0.891423736528328,,experiment,cRDM,0.0,,,,920.8037779000006,1015,28,male,True
188,0.1403553629108005,25,up,up,0.9522579000004044,0.6955966405246001,,experiment,cRDM,0.0,,,,922.3370544999998,1015,28,male,True
189,0.1403553629108005,25,up,up,1.835940600001777,0.4588666853226594,,experiment,cRDM,0.0,,,,924.020336900001,1015,28,male,True
190,0.1403553629108005,25,up,down,1.1163744000004954,0.5687553194360955,,experiment,cRDM,0.0,,,,926.6869014000004,1015,28,male,True
191,0.1403553629108005,25,up,down,1.3130662000003213,0.710030348812877,,experiment,cRDM,0.0,,,,928.7701988000008,1015,28,male,True
192,0.1403553629108005,25,up,up,1.1280272000003606,1.7926970636028816,,experiment,cRDM,0.0,,,,932.1532490999998,1015,28,male,True
193,0.1403553629108005,25,down,down,0.9013056000003415,1.9370891268870023,,experiment,cRDM,0.0,,,,935.4699454,1015,28,male,True
194,0.1403553629108005,25,down,down,1.641467500001454,1.135694620434731,,experiment,cRDM,0.0,,,,937.7698111999998,1015,28,male,True
195,0.1403553629108005,25,up,up,0.9385450999980094,0.5494324704309597,,experiment,cRDM,0.0,,,,940.2197503000024,1015,28,male,True
196,0.1403553629108005,25,down,down,0.8499105000009877,1.032556965434437,,experiment,cRDM,0.0,,,,942.4363426000018,1015,28,male,True
197,0.1403553629108005,25,down,down,1.0538601000007477,1.323245504243533,,experiment,cRDM,0.0,,,,944.8694157999998,1015,28,male,True
198,0.1403553629108005,25,up,up,0.7456808999995701,1.8217687762602528,,experiment,cRDM,0.0,,,,948.0027740000004,1015,28,male,True
199,0.1403553629108005,25,down,down,0.7418498000006366,0.6452245126752327,,experiment,cRDM,0.0,,,,949.6694289000006,1015,28,male,True
200,0.1403553629108005,25,down,up,0.7019875000005413,1.3475259757064628,,experiment,cRDM,0.0,,,,952.019290700002,1015,28,male,True
201,0.1403553629108005,25,up,down,0.8527272999999695,1.8807165758696576,,experiment,cRDM,0.0,,,,954.8525515,1015,28,male,True
202,0.1403553629108005,25,up,up,0.9363474999991012,0.352394530197374,,experiment,cRDM,0.0,,,,956.3191594000018,1015,28,male,True
203,0.1403553629108005,25,down,down,0.7845675999997184,1.0758726667459768,,experiment,cRDM,0.0,,,,958.5857366000018,1015,28,male,True
204,0.1403553629108005,25,up,up,0.8326171000007889,0.5701695733838608,,experiment,cRDM,0.0,,,,960.1856837000014,1015,28,male,True
205,0.1403553629108005,25,down,down,0.5954910000000382,1.2766647237552615,,experiment,cRDM,0.0,,,,962.5687873000024,1015,28,male,True
206,0.1403553629108005,25,down,up,0.6327517000027001,0.6535565611268266,,experiment,cRDM,0.0,,,,964.0855673000004,1015,28,male,True
207,0.1403553629108005,25,up,up,0.7601684000001114,1.0175025474235528,,experiment,cRDM,0.0,,,,966.0021296000014,1015,28,male,True
208,0.1403553629108005,25,down,down,0.7048620999994455,0.4114336601798411,,experiment,cRDM,0.0,,,,967.4354571000003,1015,28,male,True
209,0.1403553629108005,25,up,up,0.748905399999785,0.492328780646024,,experiment,cRDM,0.0,,,,968.8853952000028,1015,28,male,True
210,0.1403553629108005,25,up,up,0.6717096000029414,0.4252447339809265,,experiment,cRDM,0.0,,,,970.3186339000022,1015,28,male,True
211,0.1403553629108005,25,down,down,0.6746841999993194,0.4683488111558903,,experiment,cRDM,0.0,,,,971.7185959000016,1015,28,male,True
212,0.1403553629108005,25,up,up,0.6388139000009687,1.0244175116974892,,experiment,cRDM,0.0,,,,973.668462900001,1015,28,male,True
213,0.1403553629108005,25,down,down,0.6349611000005098,1.0547140767758167,,experiment,cRDM,0.0,,,,975.6184771000007,1015,28,male,True
214,0.1403553629108005,25,up,up,0.8588588999991771,0.3021866199463016,,experiment,cRDM,0.0,,,,976.8184179000018,1015,28,male,True
215,0.1403553629108005,25,up,up,0.6816428000020096,1.365602169556092,,experiment,cRDM,0.0,,,,979.3016371000012,1015,28,male,True
216,0.1403553629108005,25,down,down,0.518071600003168,1.928461579838031,,experiment,cRDM,0.0,,,,982.1682359000006,1015,28,male,True
217,0.1403553629108005,25,down,up,1.3205063999994309,1.03936303768563,,experiment,cRDM,0.0,,,,983.984794,1015,28,male,True
218,0.1403553629108005,25,down,down,0.5813401000013982,1.2003488215579037,,experiment,cRDM,0.0,,,,986.767949000001,1015,28,male,True
219,0.1403553629108005,25,down,down,0.6449962000006053,0.6849256861681712,,experiment,cRDM,0.0,,,,988.3013090999992,1015,28,male,True
220,0.1403553629108005,25,up,up,0.5353628999982902,0.9106160775324954,,experiment,cRDM,0.0,,,,990.1179045999996,1015,28,male,True
221,0.1403553629108005,25,up,up,0.6927654999999504,0.7126345913801524,,experiment,cRDM,0.0,,,,991.6345314000029,1015,28,male,True
222,0.1403553629108005,25,up,up,0.6402038999985962,1.7111278894753603,,experiment,cRDM,0.0,,,,994.301082500002,1015,28,male,True
223,0.1403553629108005,25,down,down,1.1122653000020364,0.7345395900073975,,experiment,cRDM,0.0,,,,995.9510201000012,1015,28,male,True
224,0.1403553629108005,25,up,up,0.4973755999999412,0.3287893515461445,,experiment,cRDM,0.0,,,,997.650950700001,1015,28,male,True
225,0.1403553629108005,25,down,down,0.5178151000000071,1.9513309720740477,,experiment,cRDM,0.0,,,,1000.3674523000008,1015,28,male,True
226,0.1403553629108005,25,down,down,0.6758121999992,0.966448100507706,,experiment,cRDM,0.0,,,,1002.1174748000012,1015,28,male,True
227,0.1403553629108005,25,up,up,0.4435582000005524,1.6302077380482465,,experiment,cRDM,0.0,,,,1004.7007076000008,1015,28,male,True
228,0.1403553629108005,25,down,down,0.522352600000886,1.7745306890228318,,experiment,cRDM,0.0,,,,1007.1839604000016,1015,28,male,True
229,0.1403553629108005,25,up,up,0.7031738999976369,1.809602930813578,,experiment,cRDM,0.0,,,,1009.767109700002,1015,28,male,True
230,0.1403553629108005,25,up,up,0.9138268999995488,0.3135109162197712,,experiment,cRDM,0.0,,,,1011.0504581000024,1015,28,male,True
231,0.1403553629108005,25,up,up,0.7036269000018365,1.7205645685150115,,experiment,cRDM,0.0,,,,1013.9337043000014,1015,28,male,True
232,0.1403553629108005,25,up,up,0.6202919999996084,1.012431608410287,,experiment,cRDM,0.0,,,,1015.9169699000012,1015,28,male,True
233,0.1403553629108005,25,down,down,0.5427122000000963,1.6221094230841235,,experiment,cRDM,0.0,,,,1018.4335729000012,1015,28,male,True
234,0.1403553629108005,25,down,down,0.6332962999986194,0.704973740349427,,experiment,cRDM,0.0,,,,1019.9501390000004,1015,28,male,True
235,0.1403553629108005,25,down,down,0.671140700000251,0.3622136521540228,,experiment,cRDM,0.0,,,,1021.2001074,1015,28,male,True
236,0.1403553629108005,25,down,down,0.5771970999994664,0.5265700453629869,,experiment,cRDM,0.0,,,,1022.6501024999998,1015,28,male,True
237,0.1403553629108005,25,up,up,0.5912435999998706,0.5671625128664586,,experiment,cRDM,0.0,,,,1024.0500491999992,1015,28,male,True
238,0.1403553629108005,25,up,up,0.890334100000473,1.2559827085208517,,experiment,cRDM,0.0,,,,1026.1499435000003,1015,28,male,True
239,0.1403553629108005,25,up,up,0.6747992000018712,1.810820005604748,,experiment,cRDM,0.0,,,,1029.1164825000014,1015,28,male,True
240,0.1403553629108005,25,up,up,0.5825923000011244,0.3962100488523826,,experiment,cRDM,0.0,,,,1030.4497319000002,1015,28,male,True
241,0.1403553629108005,25,down,down,0.5322269000025699,0.4025870214027425,,experiment,cRDM,0.0,,,,1031.6830757999996,1015,28,male,True
242,0.1403553629108005,25,down,down,0.6469131999983802,0.9849079876777964,,experiment,cRDM,0.0,,,,1033.466370100003,1015,28,male,True
243,0.1403553629108005,25,down,down,0.6754035000012664,1.606529434964264,,experiment,cRDM,0.0,,,,1035.9828856000022,1015,28,male,True
244,0.1403553629108005,25,up,up,0.6788369999994757,1.7232742501868523,,experiment,cRDM,0.0,,,,1038.6494493000027,1015,28,male,True
245,0.1403553629108005,25,up,up,0.6402181999983441,1.7721496779123966,,experiment,cRDM,0.0,,,,1041.366043500002,1015,28,male,True
246,0.1403553629108005,25,down,down,0.5766283999982988,1.023288816212302,,experiment,cRDM,0.0,,,,1043.2826497000024,1015,28,male,True
247,0.1403553629108005,25,up,up,0.6204472999997961,1.895856257344145,,experiment,cRDM,0.0,,,,1046.0158417999992,1015,28,male,True
248,0.1403553629108005,25,down,down,0.5555227000004379,1.9804050834473568,,experiment,cRDM,0.0,,,,1048.8657519000008,1015,28,male,True
249,0.1403553629108005,25,up,up,0.651984200001607,1.7420691690879293,,experiment,cRDM,0.0,,,,1051.4323141000025,1015,28,male,True
250,0.1403553629108005,25,up,up,0.5541035999995074,1.639931332486738,,experiment,cRDM,0.0,,,,1053.9822418000003,1015,28,male,True
251,0.1403553629108005,25,down,down,0.6421153000010236,1.7419119014760076,,experiment,cRDM,0.0,,,,1056.532132700002,1015,28,male,True
252,0.1403553629108005,25,up,up,0.5918987000004563,0.975161932100973,,experiment,cRDM,0.0,,,,1058.4153848999997,1015,28,male,True
253,0.1403553629108005,25,down,down,0.6465999000029115,1.184053334538524,,experiment,cRDM,0.0,,,,1060.4486859999995,1015,28,male,True
254,0.1403553629108005,25,down,up,1.6990154000013715,0.9129855831389432,,experiment,cRDM,0.0,,,,1062.2652710000002,1015,28,male,True
255,0.1403553629108005,25,down,down,1.5028042999983882,1.710179658413284,,experiment,cRDM,0.0,,,,1065.9485048000024,1015,28,male,True
256,0.1403553629108005,25,down,down,0.6713302999996813,0.8408681448515072,,experiment,cRDM,0.0,,,,1068.564957300001,1015,28,male,True
257,0.1403553629108005,25,up,up,0.5766890000013518,1.9799748946267608,,experiment,cRDM,0.0,,,,1071.481598000002,1015,28,male,True
258,0.1403553629108005,25,down,down,0.6667739999975311,0.8095538851719288,,experiment,cRDM,0.0,,,,1073.131515600002,1015,28,male,True
259,0.1403553629108005,25,down,down,0.8505264999985229,0.9594320536111084,,experiment,cRDM,0.0,,,,1075.0147885000006,1015,28,male,True
260,0.1403553629108005,25,down,down,0.565908100001252,1.1460229052321496,,experiment,cRDM,0.0,,,,1077.2813836000023,1015,28,male,True
261,0.1403553629108005,25,up,up,0.6119502000001376,0.5888586267385114,,experiment,cRDM,0.0,,,,1078.6813355000013,1015,28,male,True
262,0.1403553629108005,25,up,up,0.9504161000004387,0.3909042917719929,,experiment,cRDM,0.0,,,,1079.9478923000024,1015,28,male,True
263,0.1403553629108005,25,up,up,0.6425274000030186,1.086509597819988,,experiment,cRDM,0.0,,,,1082.2477596000026,1015,28,male,True
264,0.1403553629108005,25,up,up,0.7218080999991798,0.5696172121994969,,experiment,cRDM,0.0,,,,1083.7144902,1015,28,male,True
265,108.0,25,M,up,1.445014699998865,0.9920845411812806,,experiment,emotion,0.0,,,,1107.2802775000018,1015,28,male,True
266,105.0,25,M,up,1.1257879999975555,1.3909808605660972,,experiment,emotion,0.0,,,,1110.4134962000026,1015,28,male,True
267,107.0,25,F,up,1.302886599998601,0.3380666866174268,,experiment,emotion,0.0,,,,1112.1634433,1015,28,male,True
268,103.0,25,F,down,0.9446327000005112,1.415941832827773,,experiment,emotion,0.0,,,,1115.196662000002,1015,28,male,True
269,103.0,25,M,down,1.194401499997184,1.3161539003291085,,experiment,emotion,0.0,,,,1117.729891400002,1015,28,male,True
270,107.0,25,F,down,1.0164618999988306,0.3759728954794644,,experiment,emotion,0.0,,,,1119.579827900001,1015,28,male,True
271,105.0,25,M,down,0.7881534999978612,0.6922661282633329,,experiment,emotion,0.0,,,,1121.546369300002,1015,28,male,True
272,108.0,25,M,down,1.1406294999978854,0.7363388354031686,,experiment,emotion,0.0,,,,1123.3796734000025,1015,28,male,True
273,103.0,25,F,down,0.8327398000001267,1.6496684526464895,,experiment,emotion,0.0,,,,1126.429550500001,1015,28,male,True
274,107.0,25,F,down,0.7248030999980983,1.0951747041536222,,experiment,emotion,0.0,,,,1128.6294744000006,1015,28,male,True
275,107.0,25,F,down,0.6698943000010331,1.1955950400674091,,experiment,emotion,0.0,,,,1130.829397000001,1015,28,male,True
276,103.0,25,F,down,0.7674108000028355,0.5721969753187491,,experiment,emotion,0.0,,,,1132.3459159000013,1015,28,male,True
277,105.0,25,F,down,1.4667795999994269,0.6896565052884884,,experiment,emotion,0.0,,,,1134.0626549000008,1015,28,male,True
278,105.0,25,F,up,0.966740400002891,0.9565581240309402,,experiment,emotion,0.0,,,,1136.7625444000005,1015,28,male,True
279,108.0,25,M,down,0.9495878000016093,0.4207602749670327,,experiment,emotion,0.0,,,,1138.4457331000012,1015,28,male,True
280,108.0,25,M,up,1.4319138999999268,1.1514433315164727,,experiment,emotion,0.0,,,,1140.8123856999991,1015,28,male,True
281,107.0,25,M,up,1.0396497000001546,0.948117051829836,,experiment,emotion,0.0,,,,1143.4456554999997,1015,28,male,True
282,107.0,25,M,down,1.929107899999508,0.4981323273435729,,experiment,emotion,0.0,,,,1145.2622088000026,1015,28,male,True
283,103.0,25,F,down,1.013895500000217,1.1821672822807583,,experiment,emotion,0.0,,,,1148.6954275000026,1015,28,male,True
284,108.0,25,M,down,1.3371392999979437,1.964815398302972,,experiment,emotion,0.0,,,,1151.945148900002,1015,28,male,True
285,105.0,25,M,down,1.5020554999973683,1.094761621815013,,experiment,emotion,0.0,,,,1154.695234900002,1015,28,male,True
286,108.0,25,F,down,0.9785205000007408,1.253884931705446,,experiment,emotion,0.0,,,,1157.7117681000018,1015,28,male,True
287,105.0,25,M,down,0.9082549000013388,1.09039814630643,,experiment,emotion,0.0,,,,1160.045043500002,1015,28,male,True
288,103.0,25,F,down,0.8927542999990692,1.206938325449716,,experiment,emotion,0.0,,,,1162.4615938000024,1015,28,male,True
289,108.0,25,F,down,0.8745439999984228,1.3060029210753568,,experiment,emotion,0.0,,,,1164.9447631000005,1015,28,male,True
290,103.0,25,M,down,1.0508605999966676,0.6839562929651968,,experiment,emotion,0.0,,,,1166.7614341000008,1015,28,male,True
291,103.0,25,M,down,0.8792575000006764,0.3954607062203262,,experiment,emotion,0.0,,,,1168.478031900002,1015,28,male,True
292,108.0,25,F,down,1.007367999998678,0.808353420532002,,experiment,emotion,0.0,,,,1170.4279410000015,1015,28,male,True
293,107.0,25,M,down,1.136394400000427,0.3753991566232234,,experiment,emotion,0.0,,,,1172.1278834000004,1015,28,male,True
294,107.0,25,F,down,0.984957000000577,0.8990814266687703,,experiment,emotion,0.0,,,,1174.4444737000013,1015,28,male,True
295,105.0,25,F,down,1.1719196000012744,1.7550160080219213,,experiment,emotion,0.0,,,,1177.494400200001,1015,28,male,True
296,105.0,25,F,up,1.0623816000006627,1.925529367808424,,experiment,emotion,0.0,,,,1180.8609112000013,1015,28,male,True
297,107.0,25,M,up,1.8507940999988928,1.076425668927584,,experiment,emotion,0.0,,,,1183.2774924000005,1015,28,male,True
298,108.0,25,M,up,1.5972738999989815,0.6717026401213626,,experiment,emotion,0.0,,,,1186.094054000001,1015,28,male,True
299,105.0,25,M,down,1.3684100999998918,0.4872565443661169,,experiment,emotion,0.0,,,,1188.4439160000002,1015,28,male,True
300,107.0,25,F,down,1.1500926000007894,1.1975183836708392,,experiment,emotion,0.0,,,,1191.2771917000027,1015,28,male,True
301,108.0,25,F,down,1.0218363999993016,1.1508947180139375,,experiment,emotion,0.0,,,,1193.8604572000004,1015,28,male,True
302,105.0,25,M,down,1.1202708000018902,0.6266884572910792,,experiment,emotion,0.0,,,,1195.7770262000013,1015,28,male,True
303,103.0,25,F,down,1.0988405000025523,0.6559155880669681,,experiment,emotion,0.0,,,,1197.8435250000002,1015,28,male,True
304,103.0,25,M,down,1.0760541000017838,0.3882963128147586,,experiment,emotion,0.0,,,,1199.6102428000013,1015,28,male,True
305,107.0,25,M,down,0.9168300999990606,0.4817086190710611,,experiment,emotion,0.0,,,,1201.4434302000009,1015,28,male,True
306,108.0,25,M,down,1.291271099998994,1.7752795985747525,,experiment,emotion,0.0,,,,1204.4100414999994,1015,28,male,True
307,107.0,25,F,down,1.049695800000336,1.1629178755844425,,experiment,emotion,0.0,,,,1207.126604000001,1015,28,male,True
308,103.0,25,F,down,0.9977418999988004,0.3263572257526109,,experiment,emotion,0.0,,,,1208.7765519000022,1015,28,male,True
309,108.0,25,M,down,1.0964958999975352,1.267524153607076,,experiment,emotion,0.0,,,,1211.3098035000005,1015,28,male,True
310,105.0,25,F,down,0.8976127999994787,1.9386389367984835,,experiment,emotion,0.0,,,,1214.6596848000008,1015,28,male,True
311,103.0,25,F,,,0.6005857633952061,,experiment,emotion,0.0,,,,1216.4262641000023,1015,28,male,True
312,105.0,25,M,down,1.0545697000015934,1.727535852047855,,experiment,emotion,0.0,,,,1220.8427267000006,1015,28,male,True
313,105.0,25,M,down,0.933669000001828,0.5854098305732285,,experiment,emotion,0.0,,,,1222.7426278999992,1015,28,male,True
314,105.0,25,F,down,0.8783057000000554,1.1308127901148943,,experiment,emotion,0.0,,,,1225.0759443999996,1015,28,male,True
315,103.0,25,M,down,0.9307632000018202,0.3301723623252292,,experiment,emotion,0.0,,,,1226.5425165000015,1015,28,male,True
316,107.0,25,F,up,1.3135529000028328,1.949213415938848,,experiment,emotion,0.0,,,,1229.7257658000017,1015,28,male,True
317,108.0,25,F,up,0.9779291000013473,0.4349852343925068,,experiment,emotion,0.0,,,,1231.7923862999996,1015,28,male,True
318,107.0,25,F,up,0.9603891000006116,1.875660163911399,,experiment,emotion,0.0,,,,1234.9089253999991,1015,28,male,True
319,103.0,25,M,up,1.6410667999989528,1.0951495815426469,,experiment,emotion,0.0,,,,1237.242227300001,1015,28,male,True
320,108.0,25,M,up,1.3040087999979733,1.180519399120086,,experiment,emotion,0.0,,,,1240.325385600001,1015,28,male,True
321,103.0,25,F,down,1.311034500002279,1.6183014879175766,,experiment,emotion,0.0,,,,1243.5252653000025,1015,28,male,True
322,108.0,25,F,up,0.7937722999995458,1.4583493656587052,,experiment,emotion,0.0,,,,1246.5585198000008,1015,28,male,True
323,108.0,25,M,down,1.6928661999991164,1.5520798573839814,,experiment,emotion,0.0,,,,1249.158429200001,1015,28,male,True
324,105.0,25,M,down,1.7550602000010258,1.863601643862157,,experiment,emotion,0.0,,,,1253.008264600001,1015,28,male,True
325,103.0,25,M,down,1.4174755999993067,1.082753942618421,,experiment,emotion,0.0,,,,1256.124823400001,1015,28,male,True
326,105.0,25,M,down,1.598900799999683,1.664120660459378,,experiment,emotion,0.0,,,,1259.4913725000006,1015,28,male,True
327,107.0,25,M,down,1.0797243999986676,1.366205263347697,,experiment,emotion,0.0,,,,1262.7745778999997,1015,28,male,True
328,107.0,25,F,up,1.1335097000010137,1.6871323517841783,,experiment,emotion,0.0,,,,1265.8077894000016,1015,28,male,True
329,105.0,25,F,down,1.4619595000003756,1.210653941920618,,experiment,emotion,0.0,,,,1268.4243586000011,1015,28,male,True
330,103.0,25,M,up,2.12934469999891,0.7094744250597678,,experiment,emotion,0.0,,,,1270.8909593000026,1015,28,male,True
331,108.0,25,F,up,0.8254785999997694,1.1682485114638783,,experiment,emotion,0.0,,,,1274.4908185000022,1015,28,male,True
332,108.0,25,F,up,0.6542052999975567,0.9823722666282828,,experiment,emotion,0.0,,,,1276.5740888,1015,28,male,True
333,107.0,25,F,up,0.890659600001527,1.2511704822142815,,experiment,emotion,0.0,,,,1278.7406298000024,1015,28,male,True
334,103.0,25,M,,,0.6642449231657761,,experiment,emotion,0.0,,,,1280.5572648000016,1015,28,male,True
335,107.0,25,F,up,0.8022127999975055,1.9467769946530264,,experiment,emotion,0.0,,,,1285.207083100002,1015,28,male,True
336,105.0,25,F,up,0.9091360999991592,0.3362533978067121,,experiment,emotion,0.0,,,,1286.6402111999996,1015,28,male,True
337,107.0,25,F,up,0.8637299000001804,1.6152589948854188,,experiment,emotion,0.0,,,,1289.4235924999994,1015,28,male,True
338,105.0,25,M,down,0.8984302999997453,0.4062884476530964,,experiment,emotion,0.0,,,,1290.9568929000015,1015,28,male,True
339,108.0,25,M,down,0.9425269999992452,1.8398741892806427,,experiment,emotion,0.0,,,,1294.0067774000015,1015,28,male,True
340,103.0,25,F,down,0.8653568999980052,1.9435141884693432,,experiment,emotion,0.0,,,,1297.1899718000022,1015,28,male,True
341,103.0,25,M,down,0.7681888000006438,0.5562850408773915,,experiment,emotion,0.0,,,,1298.8732689000026,1015,28,male,True
342,107.0,25,F,down,0.8698129999975208,0.5529662749516628,,experiment,emotion,0.0,,,,1300.506534600001,1015,28,male,True
343,105.0,25,M,down,0.7919221000011021,1.4023522213110289,,experiment,emotion,0.0,,,,1303.0564479000022,1015,28,male,True
344,108.0,25,M,down,0.7412981000015861,1.0110064362653823,,experiment,emotion,0.0,,,,1305.1230004999998,1015,28,male,True
345,0.1403553629108005,25,up,up,0.6383100999992166,1.3195657433619383,,experiment,cRDM,1.0,,,,1332.7219970000006,1015,28,male,True
346,0.1403553629108005,25,up,up,1.1240259999976845,1.746984242138898,,experiment,cRDM,1.0,,,,1335.3552756999998,1015,28,male,True
347,0.1403553629108005,25,down,down,0.8194683000001532,0.5150973413874793,,experiment,cRDM,1.0,,,,1337.2718449000022,1015,28,male,True
348,0.1403553629108005,25,down,down,1.2055646999979217,1.4583989729383484,,experiment,cRDM,1.0,,,,1339.8217699000015,1015,28,male,True
349,0.1403553629108005,25,up,up,0.595298799999,1.4082891570593146,,experiment,cRDM,1.0,,,,1342.7049909000016,1015,28,male,True
350,0.1403553629108005,25,down,down,0.6127773000007437,1.26196548794399,,experiment,cRDM,1.0,,,,1344.821545400002,1015,28,male,True
351,0.1403553629108005,25,up,up,0.6384448000026168,0.8244871364800046,,experiment,cRDM,1.0,,,,1346.5048677000011,1015,28,male,True
352,0.1403553629108005,25,up,up,0.7081366999991587,1.879924672409737,,experiment,cRDM,1.0,,,,1349.2880791999996,1015,28,male,True
353,0.1403553629108005,25,down,down,0.6363836000018637,1.9315648138398689,,experiment,cRDM,1.0,,,,1352.1879647000023,1015,28,male,True
354,0.1403553629108005,25,down,down,1.251767199999449,1.618750660077522,,experiment,cRDM,1.0,,,,1354.7045362000026,1015,28,male,True
355,0.1403553629108005,25,down,up,0.7095938999991631,1.3813506910100486,,experiment,cRDM,1.0,,,,1357.5877808000005,1015,28,male,True
356,0.1403553629108005,25,down,down,0.7216144999983953,1.4248810425195926,,experiment,cRDM,1.0,,,,1359.9876901000025,1015,28,male,True
357,0.1403553629108005,25,down,down,0.6943118000017421,0.3020918710371286,,experiment,cRDM,1.0,,,,1361.2709988999995,1015,28,male,True
358,0.1403553629108005,25,down,down,0.8978449999995064,1.5139534930443517,,experiment,cRDM,1.0,,,,1363.7374603000026,1015,28,male,True
359,0.1403553629108005,25,up,up,0.681911300001957,1.093345398625108,,experiment,cRDM,1.0,,,,1365.987456900002,1015,28,male,True
360,0.1403553629108005,25,up,up,0.7382528999987699,1.4159334376298425,,experiment,cRDM,1.0,,,,1368.3540829000012,1015,28,male,True
361,0.1403553629108005,25,up,up,0.9676935999996203,0.5708589881428845,,experiment,cRDM,1.0,,,,1369.920628300002,1015,28,male,True
362,0.1403553629108005,25,up,up,0.7921109999988403,1.8361310279859333,,experiment,cRDM,1.0,,,,1372.9871932000024,1015,28,male,True
363,0.1403553629108005,25,down,down,0.7031817999995837,0.3436786862543711,,experiment,cRDM,1.0,,,,1374.387157000001,1015,28,male,True
364,0.1403553629108005,25,up,up,0.6538772000021709,0.810016436098113,,experiment,cRDM,1.0,,,,1376.170415799999,1015,28,male,True
365,0.1403553629108005,25,up,up,0.6939612999995006,0.5737377588600173,,experiment,cRDM,1.0,,,,1377.670378400002,1015,28,male,True
366,0.1403553629108005,25,down,down,0.6269745000026887,0.4445131969827894,,experiment,cRDM,1.0,,,,1379.070331700001,1015,28,male,True
367,0.1403553629108005,25,up,up,0.668360700001358,1.479837499214542,,experiment,cRDM,1.0,,,,1381.4369259000014,1015,28,male,True
368,0.1403553629108005,25,down,up,1.5428098000011232,1.1205497786256362,,experiment,cRDM,1.0,,,,1383.503478900002,1015,28,male,True
369,0.1403553629108005,25,down,down,0.7339084999985062,1.0495680872572024,,experiment,cRDM,1.0,,,,1386.3533752000003,1015,28,male,True
370,0.1403553629108005,25,up,up,0.7224076999991667,1.1730871356795374,,experiment,cRDM,1.0,,,,1388.5198980000025,1015,28,male,True
371,0.1403553629108005,25,up,up,0.682105899999442,1.536533320824404,,experiment,cRDM,1.0,,,,1391.0531996999998,1015,28,male,True
372,0.1403553629108005,25,down,down,0.6061845000003814,1.552771648226132,,experiment,cRDM,1.0,,,,1393.5531207999993,1015,28,male,True
373,0.1403553629108005,25,up,up,0.5336053999999422,1.501235942800924,,experiment,cRDM,1.0,,,,1395.9196852999994,1015,28,male,True
374,0.1403553629108005,25,down,down,0.4739463999976578,0.7817336335516638,,experiment,cRDM,1.0,,,,1397.4863079000024,1015,28,male,True
375,0.1403553629108005,25,down,down,0.6911132999994152,1.2544195398803897,,experiment,cRDM,1.0,,,,1399.4862281999997,1015,28,male,True
376,0.1403553629108005,25,down,down,0.5591580000000249,1.596009290166995,,experiment,cRDM,1.0,,,,1402.036175100002,1015,28,male,True
377,0.1403553629108005,25,up,up,0.5415456999980961,0.8467717743858933,,experiment,cRDM,1.0,,,,1403.7027614,1015,28,male,True
378,0.1403553629108005,25,up,up,0.601641400000517,0.6488829400193328,,experiment,cRDM,1.0,,,,1405.152726100001,1015,28,male,True
379,0.1403553629108005,25,up,up,0.5493158999997831,0.5594253761679011,,experiment,cRDM,1.0,,,,1406.5859867,1015,28,male,True
380,0.1403553629108005,25,down,down,0.5377248000004329,1.0482749004370662,,experiment,cRDM,1.0,,,,1408.4525976000004,1015,28,male,True
381,0.1403553629108005,25,down,down,0.6154998000019987,1.377219159342383,,experiment,cRDM,1.0,,,,1410.635807300001,1015,28,male,True
382,0.1403553629108005,25,up,up,1.1039195000012114,1.5300452750617974,,experiment,cRDM,1.0,,,,1413.0524186000002,1015,28,male,True
383,0.1403553629108005,25,down,down,0.5820229999990261,1.3773915670717134,,experiment,cRDM,1.0,,,,1415.8022888000014,1015,28,male,True
384,0.1403553629108005,25,up,up,0.5477535999998508,1.6295603534803575,,experiment,cRDM,1.0,,,,1418.2855498000026,1015,28,male,True
385,0.1403553629108005,25,up,up,0.5444783999992069,0.7629023996600324,,experiment,cRDM,1.0,,,,1419.8688183000013,1015,28,male,True
386,0.1403553629108005,25,up,up,0.5819396999977471,1.7589834044481418,,experiment,cRDM,1.0,,,,1422.435355199999,1015,28,male,True
387,0.1403553629108005,25,down,down,0.5442671999990125,1.7186142167634813,,experiment,cRDM,1.0,,,,1425.0020207000016,1015,28,male,True
388,0.1403553629108005,25,down,up,0.7307586000024457,1.3014447641708955,,experiment,cRDM,1.0,,,,1427.1185471000026,1015,28,male,True
389,0.1403553629108005,25,up,up,0.62144139999873,0.3517536576813929,,experiment,cRDM,1.0,,,,1428.451864900002,1015,28,male,True
390,0.1403553629108005,25,down,down,0.5978692999997293,0.4715037865595394,,experiment,cRDM,1.0,,,,1429.8184366999994,1015,28,male,True
391,0.1403553629108005,25,down,down,1.6416342000011357,1.2403386730564274,,experiment,cRDM,1.0,,,,1431.9017126,1015,28,male,True
392,0.1403553629108005,25,up,up,0.8837000999992597,0.6819840501104248,,experiment,cRDM,1.0,,,,1434.5016025000004,1015,28,male,True
393,0.1403553629108005,25,up,up,0.6977403000018967,1.1020742661193106,,experiment,cRDM,1.0,,,,1436.7515722000026,1015,28,male,True
394,0.1403553629108005,25,down,down,0.6522374999985914,1.9039323853463916,,experiment,cRDM,1.0,,,,1439.6180698999997,1015,28,male,True
395,0.1403553629108005,25,up,up,0.7239346000023943,1.305112008658257,,experiment,cRDM,1.0,,,,1441.8513783000017,1015,28,male,True
396,0.1403553629108005,25,down,down,0.6867139999994833,1.3364357166870613,,experiment,cRDM,1.0,,,,1444.1845918,1015,28,male,True
397,0.1403553629108005,25,down,down,0.6444926999974996,1.980815348562531,,experiment,cRDM,1.0,,,,1447.1178108000022,1015,28,male,True
398,0.1403553629108005,25,down,down,0.7685617999995884,0.5378479524578699,,experiment,cRDM,1.0,,,,1448.5677409000018,1015,28,male,True
399,0.1403553629108005,25,up,up,0.9739110999980768,0.6192922581169356,,experiment,cRDM,1.0,,,,1450.234392800001,1015,28,male,True
400,0.1403553629108005,25,up,up,1.1388761999987764,1.6516552669875724,,experiment,cRDM,1.0,,,,1453.1174618000005,1015,28,male,True
401,0.1403553629108005,25,down,down,0.6770008000021335,1.0958483808493424,,experiment,cRDM,1.0,,,,1455.6173928999997,1015,28,male,True
402,0.1403553629108005,25,down,down,0.6765644999977667,0.7584192760882567,,experiment,cRDM,1.0,,,,1457.3007682999996,1015,28,male,True
403,0.1403553629108005,25,up,up,0.7532761999973445,1.0506596800299368,,experiment,cRDM,1.0,,,,1459.284036600002,1015,28,male,True
404,0.1403553629108005,25,up,up,0.9741056000020762,1.812062874088905,,experiment,cRDM,1.0,,,,1462.1171869000027,1015,28,male,True
405,0.1403553629108005,25,up,up,0.9098220000014408,0.5620548815458687,,experiment,cRDM,1.0,,,,1463.900521300002,1015,28,male,True
406,0.1403553629108005,25,up,up,0.7052050000020245,1.7544823434605137,,experiment,cRDM,1.0,,,,1466.8170998999994,1015,28,male,True
407,0.1403553629108005,25,up,up,0.6649767000017164,0.7263862674390191,,experiment,cRDM,1.0,,,,1468.5003240000003,1015,28,male,True
408,0.1403553629108005,25,down,down,0.5906993999997212,0.9008464162365426,,experiment,cRDM,1.0,,,,1470.3336679000022,1015,28,male,True
409,0.1403553629108005,25,down,down,0.6264133999975456,0.4853952939824476,,experiment,cRDM,1.0,,,,1471.6669146000022,1015,28,male,True
410,0.1403553629108005,25,up,up,0.6371448000027158,1.3475186591162385,,experiment,cRDM,1.0,,,,1473.9001673999992,1015,28,male,True
411,0.1403553629108005,25,down,down,0.528552400002809,0.974766440224072,,experiment,cRDM,1.0,,,,1475.7667618000014,1015,28,male,True
412,0.1403553629108005,25,down,up,0.6776251000010234,0.8938443658614705,,experiment,cRDM,1.0,,,,1477.4666902999998,1015,28,male,True
413,0.1403553629108005,25,down,down,0.6287254000017128,1.8651322134936517,,experiment,cRDM,1.0,,,,1480.266604200002,1015,28,male,True
414,0.1403553629108005,25,up,up,0.5714593999982753,0.528148143750977,,experiment,cRDM,1.0,,,,1481.6998936000018,1015,28,male,True
415,0.1403553629108005,25,down,down,0.5792423999992025,1.8559220946446335,,experiment,cRDM,1.0,,,,1484.3831081000026,1015,28,male,True
416,0.1403553629108005,25,down,down,0.639599599999201,1.8236499313511432,,experiment,cRDM,1.0,,,,1487.049714000001,1015,28,male,True
417,0.1403553629108005,25,down,down,0.5106900999999198,0.3442734082092447,,experiment,cRDM,1.0,,,,1488.299624700001,1015,28,male,True
418,0.1403553629108005,25,up,up,0.5878101000016613,1.677842768959644,,experiment,cRDM,1.0,,,,1490.7495455999997,1015,28,male,True
419,0.1403553629108005,25,up,up,0.6652225999969232,1.2145864101493973,,experiment,cRDM,1.0,,,,1492.8161516,1015,28,male,True
420,0.1403553629108005,25,down,down,0.5929256000017631,1.1942829780999131,,experiment,cRDM,1.0,,,,1494.9494424000004,1015,28,male,True
421,0.1403553629108005,25,up,up,0.6604019999977027,1.3174258001598271,,experiment,cRDM,1.0,,,,1497.1159641000013,1015,28,male,True
422,0.1403553629108005,25,down,down,0.5158292999985861,1.840257138348003,,experiment,cRDM,1.0,,,,1499.8825365000012,1015,28,male,True
423,0.1403553629108005,25,up,up,0.6898560000008729,1.71548483180022,,experiment,cRDM,1.0,,,,1502.3824511999992,1015,28,male,True
424,0.1403553629108005,25,up,up,0.8376257000018086,1.0814922076905715,,experiment,cRDM,1.0,,,,1504.4156871000014,1015,28,male,True
425,108.0,25,M,up,1.9298090999982376,0.726645826440265,,experiment,emotion,1.0,,,,1519.0985065999994,1015,28,male,True
426,105.0,25,M,up,0.8108957000004011,0.6131938735736921,,experiment,emotion,1.0,,,,1521.9484169999996,1015,28,male,True
427,107.0,25,F,down,1.5313084999979765,1.7502429211720814,,experiment,emotion,1.0,,,,1524.8149995000022,1015,28,male,True
428,103.0,25,F,down,1.2021144999998796,0.826561448166766,,experiment,emotion,1.0,,,,1527.4482005000027,1015,28,male,True
429,103.0,25,M,down,0.9438861999988148,1.3148534270716885,,experiment,emotion,1.0,,,,1530.2314246999997,1015,28,male,True
430,107.0,25,F,down,0.9330636000013328,0.9457286089420648,,experiment,emotion,1.0,,,,1532.3813582000002,1015,28,male,True
431,105.0,25,M,down,0.9634202000015648,1.70782154540849,,experiment,emotion,1.0,,,,1535.2978976000013,1015,28,male,True
432,108.0,25,M,down,0.8198588999985077,1.11226606311311,,experiment,emotion,1.0,,,,1537.664484500001,1015,28,male,True
433,103.0,25,F,down,1.601945099999284,0.6719600687548087,,experiment,emotion,1.0,,,,1539.4143600000025,1015,28,male,True
434,107.0,25,F,down,1.0327026000013575,1.9679854257770464,,experiment,emotion,1.0,,,,1543.2476414000012,1015,28,male,True
435,107.0,25,F,down,0.8560728000011295,0.9225237662520444,,experiment,emotion,1.0,,,,1545.4642301000022,1015,28,male,True
436,103.0,25,F,down,1.0422005000000354,1.1740838263684223,,experiment,emotion,1.0,,,,1547.7641177000005,1015,28,male,True
437,105.0,25,F,down,0.7439822000014829,1.1540772631326486,,experiment,emotion,1.0,,,,1550.2473594000005,1015,28,male,True
438,105.0,25,F,down,0.8416985999974713,1.210496620242104,,experiment,emotion,1.0,,,,1552.4806138999993,1015,28,male,True
439,108.0,25,M,down,0.8264760000020033,0.6805761939904493,,experiment,emotion,1.0,,,,1554.3138645,1015,28,male,True
440,108.0,25,M,up,0.85074270000041,0.3931404100671241,,experiment,emotion,1.0,,,,1555.8138263,1015,28,male,True
441,107.0,25,M,down,1.2029589999983727,1.4523958418943117,,experiment,emotion,1.0,,,,1558.4303177000002,1015,28,male,True
442,107.0,25,M,up,1.057428299998719,1.9982969731595648,,experiment,emotion,1.0,,,,1561.8969408000012,1015,28,male,True
443,103.0,25,F,up,1.194258700001228,1.754379615224865,,experiment,emotion,1.0,,,,1565.0300951999998,1015,28,male,True
444,108.0,25,M,up,1.0386894999974174,1.659465723875402,,experiment,emotion,1.0,,,,1568.1967041000023,1015,28,male,True
445,105.0,25,M,up,0.8256752999986929,0.8100508867881568,,experiment,emotion,1.0,,,,1570.3466358000005,1015,28,male,True
446,108.0,25,F,up,1.286082800001168,0.7666815479112887,,experiment,emotion,1.0,,,,1572.2132165000005,1015,28,male,True
447,105.0,25,M,down,0.9334789000022284,0.4045949870616439,,experiment,emotion,1.0,,,,1574.1798393999998,1015,28,male,True
448,103.0,25,F,down,1.2724439000012353,1.132117341400768,,experiment,emotion,1.0,,,,1576.5128685000018,1015,28,male,True
449,108.0,25,F,down,1.152624199999991,1.019326183731727,,experiment,emotion,1.0,,,,1579.0796499999997,1015,28,male,True
450,103.0,25,M,down,0.9211224999999104,0.5073313349736872,,experiment,emotion,1.0,,,,1580.9962314000004,1015,28,male,True
451,103.0,25,M,down,1.0225454999999783,1.6343192289604038,,experiment,emotion,1.0,,,,1583.8127703000027,1015,28,male,True
452,108.0,25,F,down,0.8049272999996901,1.2263894463298195,,experiment,emotion,1.0,,,,1586.3293716000007,1015,28,male,True
453,107.0,25,M,down,0.7964165999983379,1.2049503315412162,,experiment,emotion,1.0,,,,1588.6459701999993,1015,28,male,True
454,107.0,25,F,down,0.9127919999991718,0.7607942243550236,,experiment,emotion,1.0,,,,1590.4625646000022,1015,28,male,True
455,105.0,25,F,down,1.404223200002889,1.689473031959496,,experiment,emotion,1.0,,,,1593.3791152000013,1015,28,male,True
456,105.0,25,F,down,1.2710234000005585,1.6044111125826868,,experiment,emotion,1.0,,,,1596.662322600001,1015,28,male,True
457,107.0,25,M,down,1.0618065999988175,1.04763552432263,,experiment,emotion,1.0,,,,1599.2455678000006,1015,28,male,True
458,108.0,25,M,up,1.8526508999966609,0.5372538445604342,,experiment,emotion,1.0,,,,1601.1288596000013,1015,28,male,True
459,105.0,25,M,up,1.1585911000001945,0.8266396864300198,,experiment,emotion,1.0,,,,1604.0787225000022,1015,28,male,True
460,107.0,25,F,up,1.3810518000027514,1.543877276017168,,experiment,emotion,1.0,,,,1607.0452692,1015,28,male,True
461,108.0,25,F,up,1.152194300000701,1.1903378076469344,,experiment,emotion,1.0,,,,1609.895161700002,1015,28,male,True
462,105.0,25,M,down,0.8738616000009642,0.3153529734513563,,experiment,emotion,1.0,,,,1611.6284536999992,1015,28,male,True
463,103.0,25,F,down,1.3622808000000075,0.9629820271049534,,experiment,emotion,1.0,,,,1613.7450356000008,1015,28,male,True
464,103.0,25,M,down,1.3690796000009868,1.5901597527065103,,experiment,emotion,1.0,,,,1616.9782392000016,1015,28,male,True
465,107.0,25,M,up,1.4284780000016326,0.5887655595349073,,experiment,emotion,1.0,,,,1619.1948379999994,1015,28,male,True
466,108.0,25,M,up,1.345651399999042,1.4492698834612063,,experiment,emotion,1.0,,,,1622.394714500002,1015,28,male,True
467,107.0,25,F,up,1.4856558999999834,0.4215873782948693,,experiment,emotion,1.0,,,,1624.444660600002,1015,28,male,True
468,103.0,25,F,down,0.8451160000004165,0.71076614083499,,experiment,emotion,1.0,,,,1626.911201400002,1015,28,male,True
469,108.0,25,M,,,1.5785498691117044,,experiment,emotion,1.0,,,,1629.5944581000003,1015,28,male,True
470,105.0,25,F,down,0.9956738000000768,0.6492647229990615,,experiment,emotion,1.0,,,,1632.9776493999998,1015,28,male,True
471,103.0,25,F,down,1.2840532999980496,0.3903667493051712,,experiment,emotion,1.0,,,,1634.644259200002,1015,28,male,True
472,105.0,25,M,down,0.9439610000008544,0.4349479742133119,,experiment,emotion,1.0,,,,1636.6273944000022,1015,28,male,True
473,105.0,25,M,down,1.057218699999794,1.8523935205199988,,experiment,emotion,1.0,,,,1639.6941024000007,1015,28,male,True
474,105.0,25,F,down,0.9816781000008632,1.1978043344670797,,experiment,emotion,1.0,,,,1642.2106305000016,1015,28,male,True
475,103.0,25,M,down,1.0861246999993457,1.6194445061612908,,experiment,emotion,1.0,,,,1645.0771965999993,1015,28,male,True
476,107.0,25,F,down,1.029355899998336,1.8570304907042656,,experiment,emotion,1.0,,,,1648.3269691000023,1015,28,male,True
477,108.0,25,F,down,0.9946731999989424,0.952208743542641,,experiment,emotion,1.0,,,,1650.5936674000004,1015,28,male,True
478,107.0,25,F,down,1.3701017000021238,1.99836948958924,,experiment,emotion,1.0,,,,1653.8602283,1015,28,male,True
479,103.0,25,M,down,1.2572181999967142,0.7149536149287509,,experiment,emotion,1.0,,,,1656.2101344000002,1015,28,male,True
480,108.0,25,M,up,1.1653427000019292,1.917993598160888,,experiment,emotion,1.0,,,,1659.6600247000024,1015,28,male,True
481,103.0,25,F,down,1.1070859999999811,1.505199826813033,,experiment,emotion,1.0,,,,1662.5932218000016,1015,28,male,True
482,108.0,25,F,down,1.3957951000011235,1.0710661830230186,,experiment,emotion,1.0,,,,1665.0264903999996,1015,28,male,True
483,108.0,25,M,down,0.8870833000000857,0.4186056135999862,,experiment,emotion,1.0,,,,1667.126407600001,1015,28,male,True
484,105.0,25,M,down,1.231025600001885,1.994177624793791,,experiment,emotion,1.0,,,,1670.3262966000002,1015,28,male,True
485,103.0,25,M,down,1.027775799997471,0.8336801398768041,,experiment,emotion,1.0,,,,1672.6595447,1015,28,male,True
486,105.0,25,M,down,1.0818862000014633,1.70571767782888,,experiment,emotion,1.0,,,,1675.659450700001,1015,28,male,True
487,107.0,25,M,down,0.968008899999404,1.5099170753811813,,experiment,emotion,1.0,,,,1678.559314000002,1015,28,male,True
488,107.0,25,F,down,1.0964368999993894,0.9880558417674798,,experiment,emotion,1.0,,,,1680.7759045999992,1015,28,male,True
489,105.0,25,F,down,1.6618575000029523,1.8891037102502424,,experiment,emotion,1.0,,,,1684.0424676000002,1015,28,male,True
490,103.0,25,M,down,1.1416876999974193,0.8777853311787571,,experiment,emotion,1.0,,,,1686.875685400002,1015,28,male,True
491,108.0,25,F,down,0.9467884000005142,1.9369087509232985,,experiment,emotion,1.0,,,,1690.2755450000004,1015,28,male,True
492,108.0,25,F,up,1.0579830999995463,0.8308528678373055,,experiment,emotion,1.0,,,,1692.325375100001,1015,28,male,True
493,107.0,25,F,up,0.9766531999994186,1.0541671980003624,,experiment,emotion,1.0,,,,1694.7087192,1015,28,male,True
494,103.0,25,M,up,2.106333200001245,0.988603416117052,,experiment,emotion,1.0,,,,1696.9419873000006,1015,28,male,True
495,107.0,25,F,up,1.2921669999996084,1.5110918507403484,,experiment,emotion,1.0,,,,1700.8251134999991,1015,28,male,True
496,105.0,25,F,down,1.1322366999993392,0.6640668213847549,,experiment,emotion,1.0,,,,1703.0750900999992,1015,28,male,True
497,107.0,25,F,down,1.202312700002949,1.6404548851694811,,experiment,emotion,1.0,,,,1706.1082951000026,1015,28,male,True
498,105.0,25,M,down,1.2735611999996763,1.500627689484998,,experiment,emotion,1.0,,,,1709.0748660999998,1015,28,male,True
499,108.0,25,M,down,1.003881700002239,0.9521584070169422,,experiment,emotion,1.0,,,,1711.5914515000004,1015,28,male,True
500,103.0,25,F,down,0.9646138999996764,0.8752900116914779,,experiment,emotion,1.0,,,,1713.774718100001,1015,28,male,True
501,103.0,25,M,down,0.9113724999988336,1.643221518874256,,experiment,emotion,1.0,,,,1716.6579259000027,1015,28,male,True
502,107.0,25,F,down,0.952673199997662,1.7267706158973706,,experiment,emotion,1.0,,,,1719.6076687999994,1015,28,male,True
503,105.0,25,M,up,1.2352725000018836,0.5973747952988786,,experiment,emotion,1.0,,,,1721.4410835000017,1015,28,male,True
504,108.0,25,M,up,0.9280140999981086,1.3194366224442582,,experiment,emotion,1.0,,,,1724.2742997000023,1015,28,male,True
505,0.1403553629108005,25,up,up,0.846937499998603,0.7816704283613294,,experiment,cRDM,2.0,,,,1747.5734520000003,1015,28,male,True
506,0.1403553629108005,25,up,up,0.6069810000008147,1.287012550105127,,experiment,cRDM,2.0,,,,1749.9733664000014,1015,28,male,True
507,0.1403553629108005,25,down,down,0.6450957000015478,1.828660923708153,,experiment,cRDM,2.0,,,,1752.6732764000008,1015,28,male,True
508,0.1403553629108005,25,down,down,0.912481499999558,1.3405843844635326,,experiment,cRDM,2.0,,,,1754.9398457000025,1015,28,male,True
509,0.1403553629108005,25,up,up,0.7212371999994502,0.9597017164973868,,experiment,cRDM,2.0,,,,1757.0731226999997,1015,28,male,True
510,0.1403553629108005,25,down,down,0.7482426999995369,0.3802394951364503,,experiment,cRDM,2.0,,,,1758.4230862000004,1015,28,male,True
511,0.1403553629108005,25,up,up,0.6867055000002438,1.9512409952887155,,experiment,cRDM,2.0,,,,1761.3895929000028,1015,28,male,True
512,0.1403553629108005,25,up,up,0.6840970999983256,0.9799883601235256,,experiment,cRDM,2.0,,,,1763.3062009000023,1015,28,male,True
513,0.1403553629108005,25,down,down,0.5681602000004204,0.8709979829565009,,experiment,cRDM,2.0,,,,1765.1061642999994,1015,28,male,True
514,0.1403553629108005,25,down,down,0.63991100000203,0.4111585044423248,,experiment,cRDM,2.0,,,,1766.339432299999,1015,28,male,True
515,0.1403553629108005,25,down,up,0.7413538000000699,0.3638846898785494,,experiment,cRDM,2.0,,,,1767.6059707000022,1015,28,male,True
516,0.1403553629108005,25,down,up,1.188724200001161,0.9573911248807884,,experiment,cRDM,2.0,,,,1769.5726505999992,1015,28,male,True
517,0.1403553629108005,25,down,down,0.5741357999977481,1.2620760527025454,,experiment,cRDM,2.0,,,,1772.2892132000015,1015,28,male,True
518,0.1403553629108005,25,down,down,0.629146800001763,1.120350558633887,,experiment,cRDM,2.0,,,,1774.2391860000023,1015,28,male,True
519,0.1403553629108005,25,up,up,0.5712380000004487,0.8167054469334949,,experiment,cRDM,2.0,,,,1775.9390912000017,1015,28,male,True
520,0.1403553629108005,25,up,up,0.685307699997793,0.7025893704079413,,experiment,cRDM,2.0,,,,1777.489024800001,1015,28,male,True
521,0.1403553629108005,25,up,up,0.6933901000011247,1.0026519305197812,,experiment,cRDM,2.0,,,,1779.4389625000003,1015,28,male,True
522,0.1403553629108005,25,up,up,1.1944734999997308,1.1886514202739031,,experiment,cRDM,2.0,,,,1781.5888718999995,1015,28,male,True
523,0.1403553629108005,25,down,down,0.528920200002176,1.0263374849395497,,experiment,cRDM,2.0,,,,1784.055450300002,1015,28,male,True
524,0.1403553629108005,25,up,up,0.5892685999970126,0.5240030945145198,,experiment,cRDM,2.0,,,,1785.372067100001,1015,28,male,True
525,0.1403553629108005,25,up,up,0.9156598000008672,1.901853742794224,,experiment,cRDM,2.0,,,,1788.1387015,1015,28,male,True
526,0.1403553629108005,25,down,down,0.6381303000016487,1.1303049847221065,,experiment,cRDM,2.0,,,,1790.4552105000002,1015,28,male,True
527,0.1403553629108005,25,up,up,0.5638051999994786,0.6783779731657056,,experiment,cRDM,2.0,,,,1792.0385234000023,1015,28,male,True
528,0.1403553629108005,25,down,down,0.5483100999990711,1.3911785751231067,,experiment,cRDM,2.0,,,,1794.2550714000026,1015,28,male,True
529,0.1403553629108005,25,down,down,0.610691300000326,0.9068048767615732,,experiment,cRDM,2.0,,,,1795.9717085000011,1015,28,male,True
530,0.1403553629108005,25,up,up,0.622086200000922,1.6348811926303783,,experiment,cRDM,2.0,,,,1798.488253800002,1015,28,male,True
531,0.1403553629108005,25,up,up,0.7558380999980727,1.591671319916479,,experiment,cRDM,2.0,,,,1800.9714908000024,1015,28,male,True
532,0.1403553629108005,25,down,down,0.6749119000014616,1.837181421165448,,experiment,cRDM,2.0,,,,1803.8214179000024,1015,28,male,True
533,0.1403553629108005,25,up,up,0.7119858999976714,1.6748928184588487,,experiment,cRDM,2.0,,,,1806.4213495000004,1015,28,male,True
534,0.1403553629108005,25,down,down,0.6984821999976703,0.6229206358549181,,experiment,cRDM,2.0,,,,1808.0379156000015,1015,28,male,True
535,0.1403553629108005,25,down,down,0.8489488999985042,1.1143017665560095,,experiment,cRDM,2.0,,,,1810.1043635000024,1015,28,male,True
536,0.1403553629108005,25,down,down,0.9721815999982936,0.504879332297999,,experiment,cRDM,2.0,,,,1811.7211498,1015,28,male,True
537,0.1403553629108005,25,up,up,0.6476632000012614,1.4744549311493542,,experiment,cRDM,2.0,,,,1814.4376680999997,1015,28,male,True
538,0.1403553629108005,25,up,up,0.6226845999990474,0.6379182247603623,,experiment,cRDM,2.0,,,,1815.987613600002,1015,28,male,True
539,0.1403553629108005,25,up,up,1.1784870000010417,1.9015761321115603,,experiment,cRDM,2.0,,,,1818.770851600002,1015,28,male,True
540,0.1403553629108005,25,down,down,0.6542613999990863,0.94117460869674,,experiment,cRDM,2.0,,,,1821.1540762000004,1015,28,male,True
541,0.1403553629108005,25,down,up,1.5616797000002407,1.8620644218004696,,experiment,cRDM,2.0,,,,1823.9206875000016,1015,28,male,True
542,0.1403553629108005,25,up,up,0.7021558999986155,1.6307228567789054,,experiment,cRDM,2.0,,,,1827.3871738000016,1015,28,male,True
543,0.1403553629108005,25,down,down,0.5606198999994376,1.3926859559638374,,experiment,cRDM,2.0,,,,1829.7537759000008,1015,28,male,True
544,0.1403553629108005,25,up,up,0.7116031000005023,0.9763965093901196,,experiment,cRDM,2.0,,,,1831.5537322000016,1015,28,male,True
545,0.1403553629108005,25,up,up,0.99371070000052,1.534314168446532,,experiment,cRDM,2.0,,,,1834.0536176000023,1015,28,male,True
546,0.1403553629108005,25,up,up,1.0368670000025304,0.8004654995745364,,experiment,cRDM,2.0,,,,1836.1035016999997,1015,28,male,True
547,0.1403553629108005,25,down,down,0.656563600001391,1.7773049528154965,,experiment,cRDM,2.0,,,,1839.1867717000025,1015,28,male,True
548,0.1403553629108005,25,down,down,0.6670860999984143,1.974249713359336,,experiment,cRDM,2.0,,,,1842.10325,1015,28,male,True
549,0.1403553629108005,25,up,up,0.756794799999625,1.1975609706041754,,experiment,cRDM,2.0,,,,1844.2365763000016,1015,28,male,True
550,0.1403553629108005,25,down,down,1.2315358000014385,1.9041021038574428,,experiment,cRDM,2.0,,,,1847.169800300002,1015,28,male,True
551,0.1403553629108005,25,down,down,0.8536588999995729,1.3656665710961675,,experiment,cRDM,2.0,,,,1850.0197181000003,1015,28,male,True
552,0.1403553629108005,25,up,up,0.7987197000002197,1.032255080262488,,experiment,cRDM,2.0,,,,1852.1696121999996,1015,28,male,True
553,0.1403553629108005,25,up,up,0.7175461999977415,0.5664627992286103,,experiment,cRDM,2.0,,,,1853.8027785000013,1015,28,male,True
554,0.1403553629108005,25,down,down,0.6672032999995281,1.187176540852941,,experiment,cRDM,2.0,,,,1855.9861277000016,1015,28,male,True
555,0.1403553629108005,25,up,up,0.6979737000001478,1.8543250157973217,,experiment,cRDM,2.0,,,,1858.7693610999995,1015,28,male,True
556,0.1403553629108005,25,down,down,0.6610483000004024,1.2362138408654826,,experiment,cRDM,2.0,,,,1860.9692473,1015,28,male,True
557,0.1403553629108005,25,down,down,0.9743955999983882,0.5517924808579808,,experiment,cRDM,2.0,,,,1862.4359354000007,1015,28,male,True
558,0.1403553629108005,25,down,down,0.845190799998818,1.89512911635864,,experiment,cRDM,2.0,,,,1865.5691265999997,1015,28,male,True
559,0.1403553629108005,25,up,up,0.7694427999995241,0.8488748841407296,,experiment,cRDM,2.0,,,,1867.5189248000024,1015,28,male,True
560,0.1403553629108005,25,up,up,0.7500202000010177,0.3635158893623741,,experiment,cRDM,2.0,,,,1868.9023141,1015,28,male,True
561,0.1403553629108005,25,down,down,0.7867117999994662,1.6043498800057137,,experiment,cRDM,2.0,,,,1871.5356214999997,1015,28,male,True
562,0.1403553629108005,25,down,down,0.7671397000012803,0.3611869719986155,,experiment,cRDM,2.0,,,,1872.9521989999996,1015,28,male,True
563,0.1403553629108005,25,up,up,0.7383956999983639,1.019446124326468,,experiment,cRDM,2.0,,,,1875.001940400001,1015,28,male,True
564,0.1403553629108005,25,up,up,1.127602200002002,0.5651604722023726,,experiment,cRDM,2.0,,,,1876.5687388000008,1015,28,male,True
565,0.1403553629108005,25,up,up,0.8640433000000485,1.2199061278255228,,experiment,cRDM,2.0,,,,1879.1852944999991,1015,28,male,True
566,0.1403553629108005,25,up,up,0.6528236000012839,1.8527874405342188,,experiment,cRDM,2.0,,,,1882.168512,1015,28,male,True
567,0.1403553629108005,25,up,up,0.6979026000008162,1.3745760972874224,,experiment,cRDM,2.0,,,,1884.4684362000007,1015,28,male,True
568,0.1403553629108005,25,down,down,0.7781558999995468,1.7780471054807652,,experiment,cRDM,2.0,,,,1887.2181801000008,1015,28,male,True
569,0.1403553629108005,25,down,down,1.892121099997894,1.7631197769870086,,experiment,cRDM,2.0,,,,1890.0182697000016,1015,28,male,True
570,0.1403553629108005,25,up,up,0.7018533999980718,0.9352398741122868,,experiment,cRDM,2.0,,,,1893.1014863000016,1015,28,male,True
571,0.1403553629108005,25,down,down,0.6913140999968164,0.9489169404852305,,experiment,cRDM,2.0,,,,1895.0180433000023,1015,28,male,True
572,0.1403553629108005,25,down,up,0.8556774999997288,0.3689251675927846,,experiment,cRDM,2.0,,,,1896.3346588999996,1015,28,male,True
573,0.1403553629108005,25,down,down,1.1240964999997232,1.1014712424980342,,experiment,cRDM,2.0,,,,1898.5512540000016,1015,28,male,True
574,0.1403553629108005,25,up,up,0.6915086000008159,1.964353195417824,,experiment,cRDM,2.0,,,,1901.917823300002,1015,28,male,True
575,0.1403553629108005,25,down,up,1.1374107999981788,0.432875316043514,,experiment,cRDM,2.0,,,,1903.3009315000015,1015,28,male,True
576,0.1403553629108005,25,down,down,0.8984574000023713,1.4039841719452375,,experiment,cRDM,2.0,,,,1906.1008987999996,1015,28,male,True
577,0.1403553629108005,25,down,up,1.6361282999969262,1.3702896056128688,,experiment,cRDM,2.0,,,,1908.6342091000008,1015,28,male,True
578,0.1403553629108005,25,up,up,0.7728719000006095,0.4705596766412229,,experiment,cRDM,2.0,,,,1911.0174594000016,1015,28,male,True
579,0.1403553629108005,25,up,up,0.7849529000013717,0.5218838892270242,,experiment,cRDM,2.0,,,,1912.5673984000025,1015,28,male,True
580,0.1403553629108005,25,down,down,0.738713300001109,1.6054436838884931,,experiment,cRDM,2.0,,,,1915.2006628000015,1015,28,male,True
581,0.1403553629108005,25,up,up,0.7418386000026658,0.3975764114828353,,experiment,cRDM,2.0,,,,1916.6004968000016,1015,28,male,True
582,0.1403553629108005,25,down,up,0.8758388999995077,1.34726731396658,,experiment,cRDM,2.0,,,,1918.950498900001,1015,28,male,True
583,0.1403553629108005,25,up,up,0.6392185000004247,1.9408986981862733,,experiment,cRDM,2.0,,,,1922.0171021000024,1015,28,male,True
584,0.1403553629108005,25,up,up,0.8621864999986428,1.7749127394647872,,experiment,cRDM,2.0,,,,1924.7001894000025,1015,28,male,True
585,108.0,25,M,up,1.7350667999999132,1.1298268511045206,,experiment,emotion,2.0,,,,1988.4812846999996,1015,28,male,True
586,105.0,25,M,up,1.656520200001978,0.3729516830546291,,experiment,emotion,2.0,,,,1990.8978312,1015,28,male,True
587,107.0,25,F,up,1.078234299999167,0.4647651053661127,,experiment,emotion,2.0,,,,1993.3311070000016,1015,28,male,True
588,103.0,25,F,up,0.8963872999993328,1.972263881986338,,experiment,emotion,2.0,,,,1996.6809873999991,1015,28,male,True
589,103.0,25,M,up,1.052888999998686,1.438443212695167,,experiment,emotion,2.0,,,,1999.2974888000024,1015,28,male,True
590,107.0,25,F,down,0.8902304999974149,1.7916981562987873,,experiment,emotion,2.0,,,,2002.4141103,1015,28,male,True
591,105.0,25,M,down,0.932619799998065,0.6088943920361609,,experiment,emotion,2.0,,,,2004.1807222000025,1015,28,male,True
592,108.0,25,M,down,1.0814634000016667,1.6406710602069283,,experiment,emotion,2.0,,,,2007.0639272000008,1015,28,male,True
593,103.0,25,F,down,0.895517100001598,0.8997178218344146,,experiment,emotion,2.0,,,,2009.3138626,1015,28,male,True
594,107.0,25,F,down,0.8902672999975039,1.4624836333642854,,experiment,emotion,2.0,,,,2011.9470753000023,1015,28,male,True
595,107.0,25,F,down,1.227357400002802,0.7452484660884635,,experiment,emotion,2.0,,,,2013.8470265,1015,28,male,True
596,103.0,25,F,down,0.7711224999984552,1.9860647977652583,,experiment,emotion,2.0,,,,2017.330222200002,1015,28,male,True
597,105.0,25,F,down,0.7792124000006879,1.0638786192199596,,experiment,emotion,2.0,,,,2019.4801308000024,1015,28,male,True
598,105.0,25,F,down,0.9549675999987812,1.931641497455311,,experiment,emotion,2.0,,,,2022.4633767000012,1015,28,male,True
599,108.0,25,M,down,1.1840899999988324,1.0179738499498814,,experiment,emotion,2.0,,,,2024.7632871000023,1015,28,male,True
600,108.0,25,M,down,0.9986953000006906,1.1539133843957596,,experiment,emotion,2.0,,,,2027.3797363000008,1015,28,male,True
601,107.0,25,M,down,0.7809270999969158,1.6630000457170295,,experiment,emotion,2.0,,,,2030.3464162000016,1015,28,male,True
602,107.0,25,M,down,0.7303871999974945,1.5548843236030732,,experiment,emotion,2.0,,,,2032.962983400001,1015,28,male,True
603,103.0,25,F,down,0.8434674999989511,1.8106038814184604,,experiment,emotion,2.0,,,,2035.8128811999995,1015,28,male,True
604,108.0,25,M,up,1.0165248999983303,0.8838168085343205,,experiment,emotion,2.0,,,,2037.8128183000008,1015,28,male,True
605,105.0,25,M,up,1.286626900000556,1.399377952859801,,experiment,emotion,2.0,,,,2040.5127187,1015,28,male,True
606,108.0,25,F,up,0.8527559000031033,1.5542523517975324,,experiment,emotion,2.0,,,,2043.6125966,1015,28,male,True
607,105.0,25,M,down,0.8358877999999095,1.5174613436756144,,experiment,emotion,2.0,,,,2046.2624916000025,1015,28,male,True
608,103.0,25,F,down,0.8827072999993106,1.0228761794848762,,experiment,emotion,2.0,,,,2048.3956425,1015,28,male,True
609,108.0,25,F,up,1.0656525999984297,0.302696345357241,,experiment,emotion,2.0,,,,2049.8456886999998,1015,28,male,True
610,103.0,25,M,down,0.911107700001594,1.72597997937245,,experiment,emotion,2.0,,,,2052.9122549999997,1015,28,male,True
611,103.0,25,M,down,0.9192120999978216,1.758790763285616,,experiment,emotion,2.0,,,,2055.8621334000018,1015,28,male,True
612,108.0,25,F,down,0.8896088000001328,0.4380727934147679,,experiment,emotion,2.0,,,,2057.4787383000003,1015,28,male,True
613,107.0,25,M,down,1.0922911999987264,0.6390583763798898,,experiment,emotion,2.0,,,,2059.312037,1015,28,male,True
614,107.0,25,F,down,1.0622412000011536,1.3124304595848744,,experiment,emotion,2.0,,,,2061.9951232999992,1015,28,male,True
615,105.0,25,F,up,1.3465108000018515,0.8513905305659284,,experiment,emotion,2.0,,,,2064.2118379999997,1015,28,male,True
616,105.0,25,F,down,0.7872682999986864,0.7131322920148784,,experiment,emotion,2.0,,,,2066.5450714,1015,28,male,True
617,107.0,25,M,down,0.9306458000028216,0.5658943594921725,,experiment,emotion,2.0,,,,2068.161686800002,1015,28,male,True
618,108.0,25,M,up,1.95624940000198,0.4282784192342171,,experiment,emotion,2.0,,,,2069.828287100001,1015,28,male,True
619,105.0,25,M,down,1.3658073999977205,0.3728810146224178,,experiment,emotion,2.0,,,,2072.4115377000016,1015,28,male,True
620,107.0,25,F,down,0.8885609999997541,0.5001466753217653,,experiment,emotion,2.0,,,,2074.544780700002,1015,28,male,True
621,108.0,25,F,down,1.3536346000000776,0.93693517088485,,experiment,emotion,2.0,,,,2076.6447116000018,1015,28,male,True
622,105.0,25,M,up,1.6325271999994584,1.612102068292362,,experiment,emotion,2.0,,,,2079.8779082,1015,28,male,True
623,103.0,25,F,down,1.5602271999996449,1.1066553390101617,,experiment,emotion,2.0,,,,2082.911157900002,1015,28,male,True
624,103.0,25,M,down,0.9272715000006428,1.3002031145974866,,experiment,emotion,2.0,,,,2086.0610551000027,1015,28,male,True
625,107.0,25,M,down,0.8840829000000667,0.4480977713336938,,experiment,emotion,2.0,,,,2087.744305100001,1015,28,male,True
626,108.0,25,M,down,1.4995008000005328,1.496337662944984,,experiment,emotion,2.0,,,,2090.410881100001,1015,28,male,True
627,107.0,25,F,down,0.8692681000029552,1.3540176523996432,,experiment,emotion,2.0,,,,2093.5440843,1015,28,male,True
628,103.0,25,F,down,1.0023487999969802,0.8626301008138326,,experiment,emotion,2.0,,,,2095.5440019000016,1015,28,male,True
629,108.0,25,M,down,0.8736893999994209,0.3543850499526105,,experiment,emotion,2.0,,,,2097.1606245000003,1015,28,male,True
630,105.0,25,F,down,0.772774599998229,0.782093191065499,,experiment,emotion,2.0,,,,2099.110548200002,1015,28,male,True
631,103.0,25,F,down,0.9188749999993888,1.302540382510948,,experiment,emotion,2.0,,,,2101.4604732000007,1015,28,male,True
632,105.0,25,M,down,1.7369751000005635,1.7103476885665103,,experiment,emotion,2.0,,,,2104.3603698000006,1015,28,male,True
633,105.0,25,M,up,1.328452900001139,1.4121985224298086,,experiment,emotion,2.0,,,,2107.776898,1015,28,male,True
634,105.0,25,F,down,1.705210200001602,0.4831956433462951,,experiment,emotion,2.0,,,,2109.860140200002,1015,28,male,True
635,103.0,25,M,up,1.024984299998323,1.1674591606570013,,experiment,emotion,2.0,,,,2113.043375000001,1015,28,male,True
636,107.0,25,F,up,0.7987892000019201,0.956219600036744,,experiment,emotion,2.0,,,,2115.326620700001,1015,28,male,True
637,108.0,25,F,down,1.2071268999970926,0.7280707030730802,,experiment,emotion,2.0,,,,2117.1432220999995,1015,28,male,True
638,107.0,25,F,down,1.2886101000003691,1.934622485809544,,experiment,emotion,2.0,,,,2120.559762500001,1015,28,male,True
639,103.0,25,M,down,1.0100425999989966,1.7038368004076931,,experiment,emotion,2.0,,,,2123.826309600001,1015,28,male,True
640,108.0,25,M,up,2.097804700002598,1.046594513590783,,experiment,emotion,2.0,,,,2126.1595648,1015,28,male,True
641,103.0,25,F,down,1.3066357000025164,1.4077200820844131,,experiment,emotion,2.0,,,,2129.9427400000022,1015,28,male,True
642,108.0,25,F,up,2.382077300000674,1.8927997742693097,,experiment,emotion,2.0,,,,2133.4093018999997,1015,28,male,True
643,108.0,25,M,up,0.841600899999321,0.8219357122676632,,experiment,emotion,2.0,,,,2136.8758112,1015,28,male,True
644,105.0,25,M,down,0.9932950000002164,1.2319879701621004,,experiment,emotion,2.0,,,,2139.2590794000025,1015,28,male,True
645,103.0,25,M,down,0.9956657999973686,1.0014207158851811,,experiment,emotion,2.0,,,,2141.5257045,1015,28,male,True
646,105.0,25,M,up,0.8507615000016813,1.626850716070458,,experiment,emotion,2.0,,,,2144.4255465000024,1015,28,male,True
647,107.0,25,M,down,0.9219125999989046,1.700907287938524,,experiment,emotion,2.0,,,,2147.275440199999,1015,28,male,True
648,107.0,25,F,down,1.3073263000005682,1.868902477452273,,experiment,emotion,2.0,,,,2150.342005800001,1015,28,male,True
649,105.0,25,F,down,2.253797699999268,0.6356556433838366,,experiment,emotion,2.0,,,,2152.558587800002,1015,28,male,True
650,103.0,25,M,up,1.4075999000015145,1.1140348794386568,,experiment,emotion,2.0,,,,2156.2417851000027,1015,28,male,True
651,108.0,25,F,down,0.8976629999997385,1.2606522581670492,,experiment,emotion,2.0,,,,2159.191697099999,1015,28,male,True
652,108.0,25,F,down,0.8277323999973305,0.8290701554106323,,experiment,emotion,2.0,,,,2161.1916107,1015,28,male,True
653,107.0,25,F,down,0.736179199997423,0.5712644376136082,,experiment,emotion,2.0,,,,2162.8582021,1015,28,male,True
654,103.0,25,M,down,1.2389690999989398,1.9360495400998747,,experiment,emotion,2.0,,,,2165.791438700002,1015,28,male,True
655,107.0,25,F,down,1.8447138000010452,1.8253851572357815,,experiment,emotion,2.0,,,,2169.124646600001,1015,28,male,True
656,105.0,25,F,down,1.3441239999992831,1.067819014100661,,experiment,emotion,2.0,,,,2172.3411970000016,1015,28,male,True
657,107.0,25,F,up,1.0785668000025908,0.803966817297328,,experiment,emotion,2.0,,,,2174.757787800001,1015,28,male,True
658,105.0,25,M,up,1.104352899998048,1.6249670776416816,,experiment,emotion,2.0,,,,2177.7410012,1015,28,male,True
659,108.0,25,M,up,0.8538106000014523,0.8900495918505131,,experiment,emotion,2.0,,,,2180.0575776000005,1015,28,male,True
660,103.0,25,F,down,0.8024815999997372,0.7284593854420642,,experiment,emotion,2.0,,,,2181.9408544,1015,28,male,True
661,103.0,25,M,down,1.0509211999997206,1.095317475864679,,experiment,emotion,2.0,,,,2184.1074260999994,1015,28,male,True
662,107.0,25,F,down,1.2706994000000122,1.7190925457332762,,experiment,emotion,2.0,,,,2187.1906619,1015,28,male,True
663,105.0,25,M,down,1.4661321000021417,1.3141421093824652,,experiment,emotion,2.0,,,,2190.0572382000028,1015,28,male,True
664,108.0,25,M,down,0.8312697000001208,1.3761993428332449,,experiment,emotion,2.0,,,,2193.207102200002,1015,28,male,True
665,0.1403553629108005,25,up,up,0.6935612000015681,1.661579702325011,,experiment,cRDM,3.0,,,,2219.472784900001,1015,28,male,True
666,0.1403553629108005,25,up,up,0.581635800001095,1.903693670748033,,experiment,cRDM,3.0,,,,2222.3226988999995,1015,28,male,True
667,0.1403553629108005,25,down,down,0.5884503999986919,1.487408336601763,,experiment,cRDM,3.0,,,,2224.655948200001,1015,28,male,True
668,0.1403553629108005,25,down,up,0.9694116999999096,0.6945774708940204,,experiment,cRDM,3.0,,,,2226.2059457,1015,28,male,True
669,0.1403553629108005,25,up,up,0.6472420999998576,0.8580188281455781,,experiment,cRDM,3.0,,,,2228.289112000002,1015,28,male,True
670,0.1403553629108005,25,down,down,0.6346174999998766,0.7039188070273852,,experiment,cRDM,3.0,,,,2229.9057789,1015,28,male,True
671,0.1403553629108005,25,up,up,0.6859938000015973,0.4333230995168528,,experiment,cRDM,3.0,,,,2231.2223613000024,1015,28,male,True
672,0.1403553629108005,25,up,up,0.7344086000011885,0.6620335853546293,,experiment,cRDM,3.0,,,,2232.838984000002,1015,28,male,True
673,0.1403553629108005,25,down,down,0.5791233999989345,0.5264599172337343,,experiment,cRDM,3.0,,,,2234.372255000002,1015,28,male,True
674,0.1403553629108005,25,down,down,1.0916770000003453,1.7791288712754427,,experiment,cRDM,3.0,,,,2236.9886859,1015,28,male,True
675,0.1403553629108005,25,down,up,0.5573433999998088,0.4731108885018554,,experiment,cRDM,3.0,,,,2238.822092000002,1015,28,male,True
676,0.1403553629108005,25,down,down,0.5763293000018166,0.7836991027588596,,experiment,cRDM,3.0,,,,2240.422024200001,1015,28,male,True
677,0.1403553629108005,25,down,down,0.6314069000000018,1.450313294625603,,experiment,cRDM,3.0,,,,2242.721946900001,1015,28,male,True
678,0.1403553629108005,25,down,up,1.4511879999990924,1.928721542811717,,experiment,cRDM,3.0,,,,2245.5551803000017,1015,28,male,True
679,0.1403553629108005,25,up,up,0.7400010999990627,1.2136646653113616,,experiment,cRDM,3.0,,,,2248.4883591,1015,28,male,True
680,0.1403553629108005,25,up,up,0.6341871000004176,1.3058561936540656,,experiment,cRDM,3.0,,,,2250.7881874000013,1015,28,male,True
681,0.1403553629108005,25,up,up,0.6460884999978589,1.2133447081940614,,experiment,cRDM,3.0,,,,2252.888246800001,1015,28,male,True
682,0.1403553629108005,25,up,up,0.6101940000007744,0.8830773550210154,,experiment,cRDM,3.0,,,,2254.6881624000016,1015,28,male,True
683,0.1403553629108005,25,down,down,0.8112137999996776,0.3090909420499849,,experiment,cRDM,3.0,,,,2255.8881389000016,1015,28,male,True
684,0.1403553629108005,25,up,up,0.6185132999999041,1.23579921813681,,experiment,cRDM,3.0,,,,2258.187880199999,1015,28,male,True
685,0.1403553629108005,25,up,down,1.4180291000011491,0.5056647035204244,,experiment,cRDM,3.0,,,,2259.571326699999,1015,28,male,True
686,0.1403553629108005,25,down,down,0.7865093000000343,1.034720924405982,,experiment,cRDM,3.0,,,,2262.2878513,1015,28,male,True
687,0.1403553629108005,25,up,up,0.5852058000018587,1.2357477734722484,,experiment,cRDM,3.0,,,,2264.571151,1015,28,male,True
688,0.1403553629108005,25,down,down,0.6039779999991879,1.1415513897142942,,experiment,cRDM,3.0,,,,2266.5544104,1015,28,male,True
689,0.1403553629108005,25,down,down,1.3853874000014912,1.2962291166987203,,experiment,cRDM,3.0,,,,2268.7210010000017,1015,28,male,True
690,0.1403553629108005,25,up,up,0.5940627999989374,0.8920773484065165,,experiment,cRDM,3.0,,,,2271.254296700001,1015,28,male,True
691,0.1403553629108005,25,up,up,0.7551586000008683,0.9865585782199816,,experiment,cRDM,3.0,,,,2273.104201500002,1015,28,male,True
692,0.1403553629108005,25,down,down,0.5873016000005009,1.8282088929827915,,experiment,cRDM,3.0,,,,2275.954061799999,1015,28,male,True
693,0.1403553629108005,25,up,up,0.6307181999982276,1.9216177175204556,,experiment,cRDM,3.0,,,,2278.7206179000023,1015,28,male,True
694,0.1403553629108005,25,down,down,0.777506499998708,1.8399836950987136,,experiment,cRDM,3.0,,,,2281.453860000001,1015,28,male,True
695,0.1403553629108005,25,down,down,1.1312624999991383,1.044996843991027,,experiment,cRDM,3.0,,,,2283.5371202000024,1015,28,male,True
696,0.1403553629108005,25,down,down,0.7026552999996056,1.474317875345663,,experiment,cRDM,3.0,,,,2286.4037062000025,1015,28,male,True
697,0.1403553629108005,25,up,up,0.6137443000006897,1.836795608504305,,experiment,cRDM,3.0,,,,2289.2036181000003,1015,28,male,True
698,0.1403553629108005,25,up,up,0.7428756000008434,1.9865535006984911,,experiment,cRDM,3.0,,,,2292.053515800002,1015,28,male,True
699,0.1403553629108005,25,up,up,0.6113737000014225,1.0534898798184336,,experiment,cRDM,3.0,,,,2294.1200594,1015,28,male,True
700,0.1403553629108005,25,down,down,0.560651500003587,0.501903312404136,,experiment,cRDM,3.0,,,,2295.486708100001,1015,28,male,True
701,0.1403553629108005,25,down,down,0.798086399998283,1.69011585629018,,experiment,cRDM,3.0,,,,2298.003274900002,1015,28,male,True
702,0.1403553629108005,25,up,up,0.6180260000000999,1.6350905627876366,,experiment,cRDM,3.0,,,,2300.6863446000025,1015,28,male,True
703,0.1403553629108005,25,down,down,0.6809514000015042,1.7241000126149617,,experiment,cRDM,3.0,,,,2303.2864144000014,1015,28,male,True
704,0.1403553629108005,25,up,up,0.7140091000001121,0.4143522968766314,,experiment,cRDM,3.0,,,,2304.6363574000025,1015,28,male,True
705,0.1403553629108005,25,up,up,0.7786080000005313,1.691880386855751,,experiment,cRDM,3.0,,,,2307.3029307,1015,28,male,True
706,0.1403553629108005,25,up,up,0.6972850999991351,1.551335311979217,,experiment,cRDM,3.0,,,,2309.8860723,1015,28,male,True
707,0.1403553629108005,25,down,down,0.7549488999975438,1.3821539787148294,,experiment,cRDM,3.0,,,,2312.219417100001,1015,28,male,True
708,0.1403553629108005,25,down,down,0.6500317999998515,1.8776823728783776,,experiment,cRDM,3.0,,,,2315.119299400001,1015,28,male,True
709,0.1403553629108005,25,up,up,0.6824636999990616,0.8045790486100364,,experiment,cRDM,3.0,,,,2316.8359039000024,1015,28,male,True
710,0.1403553629108005,25,down,down,0.6675120999971114,0.5042311773401174,,experiment,cRDM,3.0,,,,2318.2858756000023,1015,28,male,True
711,0.1403553629108005,25,down,down,0.9373021999999764,1.5045240969698144,,experiment,cRDM,3.0,,,,2320.7190818000017,1015,28,male,True
712,0.1403553629108005,25,up,up,0.6463841999975557,1.7958196594776232,,experiment,cRDM,3.0,,,,2323.7189719000016,1015,28,male,True
713,0.1403553629108005,25,up,up,0.7101718000012625,1.6704801556433104,,experiment,cRDM,3.0,,,,2326.302217100001,1015,28,male,True
714,0.1403553629108005,25,down,down,0.8845321000007971,0.587549580766105,,experiment,cRDM,3.0,,,,2327.868807400002,1015,28,male,True
715,0.1403553629108005,25,up,up,0.7139955999991798,1.5223140889755278,,experiment,cRDM,3.0,,,,2330.535412000001,1015,28,male,True
716,0.1403553629108005,25,down,down,0.5273899999992864,1.603259690945253,,experiment,cRDM,3.0,,,,2333.101965500002,1015,28,male,True
717,0.1403553629108005,25,down,down,0.6264769000008528,1.3608866809405245,,experiment,cRDM,3.0,,,,2335.2518673000013,1015,28,male,True
718,0.1403553629108005,25,down,down,0.5856362000013178,0.5903796469326693,,experiment,cRDM,3.0,,,,2336.751813400002,1015,28,male,True
719,0.1403553629108005,25,up,up,0.5810072999993281,1.9734017039290404,,experiment,cRDM,3.0,,,,2339.5683551,1015,28,male,True
720,0.1403553629108005,25,up,up,0.7417255000000296,1.0481956291823626,,experiment,cRDM,3.0,,,,2341.4516386,1015,28,male,True
721,0.1403553629108005,25,down,down,0.7843529000019771,0.3282134175526898,,experiment,cRDM,3.0,,,,2342.784965400002,1015,28,male,True
722,0.1403553629108005,25,down,down,0.6861929999977292,0.6441627854811696,,experiment,cRDM,3.0,,,,2344.4681684000025,1015,28,male,True
723,0.1403553629108005,25,up,up,0.6831837999998243,0.3087529449616384,,experiment,cRDM,3.0,,,,2345.718187300001,1015,28,male,True
724,0.1403553629108005,25,up,up,0.7066113999972004,0.8632900662840821,,experiment,cRDM,3.0,,,,2347.534748599999,1015,28,male,True
725,0.1403553629108005,25,up,up,0.5756304999995336,1.5843194743367608,,experiment,cRDM,3.0,,,,2350.0847191,1015,28,male,True
726,0.1403553629108005,25,up,up,0.6690925000002608,1.870191689834104,,experiment,cRDM,3.0,,,,2352.8012385,1015,28,male,True
727,0.1403553629108005,25,up,up,0.8065256999980193,0.6730161894052109,,experiment,cRDM,3.0,,,,2354.4178546000003,1015,28,male,True
728,0.1403553629108005,25,down,down,0.6116644000030647,0.5881782190696706,,experiment,cRDM,3.0,,,,2356.067694600002,1015,28,male,True
729,0.1403553629108005,25,down,down,0.661415799997485,1.1648486207178377,,experiment,cRDM,3.0,,,,2358.101066300001,1015,28,male,True
730,0.1403553629108005,25,up,up,0.5717500999999174,1.5881890456790857,,experiment,cRDM,3.0,,,,2360.617618,1015,28,male,True
731,0.1403553629108005,25,down,down,1.5754882999972324,1.954676401499879,,experiment,cRDM,3.0,,,,2363.4008742000005,1015,28,male,True
732,0.1403553629108005,25,down,up,0.6446670000004815,1.8074678025258812,,experiment,cRDM,3.0,,,,2367.0506965000022,1015,28,male,True
