,stimLvl,stimTime,rand,response,rt,precedingITI,trialNumber,trialType,stimuli,block,estIntens,estThres,estSlope,trialStart,subject,age,gender,headRest
0,0.9,100,down,,,0.6107582246054043,,introTrial,cRDM,,,,,93.23336949999792,224,25,female,True
1,150.0,100,F,,,0.6187463227555993,,introTrial,emotion,,,,,97.79977539999528,224,25,female,True
2,200.0,25,F,up,0.5841964999854099,1.1140793058097538,,tutorial,emotion,,,,,139.0982251999958,224,25,female,True
3,200.0,25,F,up,0.4169002999842632,0.7376767705213297,,tutorial,emotion,,,,,140.69816770000034,224,25,female,True
4,200.0,25,M,up,0.4659796000050846,1.367793735754522,,tutorial,emotion,,,,,142.781493699993,224,25,female,True
5,0.0,25,M,down,0.479726000019582,1.287870990548804,,tutorial,emotion,,,,,144.81476809998276,224,25,female,True
6,0.0,25,M,down,0.3835487000178545,1.2354730641601015,,tutorial,emotion,,,,,146.79800439998507,224,25,female,True
7,200.0,25,M,up,0.5219069000158925,1.5113628049835208,,tutorial,emotion,,,,,149.01461419998668,224,25,female,True
8,0.0,25,M,down,0.5629959999932908,0.6865647958897798,,tutorial,emotion,,,,,150.51453639997635,224,25,female,True
9,200.0,25,F,up,0.3834896999760531,1.888756720170916,,tutorial,emotion,,,,,153.24779159997706,224,25,female,True
10,0.0,25,F,down,0.4167248999874573,0.8789942520982563,,tutorial,emotion,,,,,154.83108589999028,224,25,female,True
11,0.0,25,F,down,0.6505417000153102,1.6016003222320048,,tutorial,emotion,,,,,157.13099479998343,224,25,female,True
12,0.9,25,up,up,0.7515956999850459,1.2761915205139145,,tutorial,cRDM,,,,,168.76386819998152,224,25,female,True
13,0.9,25,up,up,0.4819936999992933,0.904957599213813,,tutorial,cRDM,,,,,170.73050449998118,224,25,female,True
14,0.9,25,down,down,0.4963896999834105,0.34939556662349,,tutorial,cRDM,,,,,171.8471053999965,224,25,female,True
15,0.9,25,down,down,0.3005073999811429,1.9747858435088077,,tutorial,cRDM,,,,,174.5968492999964,224,25,female,True
16,0.9,25,up,up,0.4612095000047702,0.3864463461658183,,tutorial,cRDM,,,,,175.6802783999883,224,25,female,True
17,0.9,25,down,down,0.3004724999773316,1.3128237684362405,,tutorial,cRDM,,,,,177.73025490000146,224,25,female,True
18,0.9,25,up,up,0.5826499999966472,1.6207520049179192,,tutorial,cRDM,,,,,180.0468397999939,224,25,female,True
19,0.9,25,up,down,0.4002464000077452,1.522682114441196,,tutorial,cRDM,,,,,182.43005269998685,224,25,female,True
20,0.9,25,down,down,0.6149580999917816,0.6694087584677788,,tutorial,cRDM,,,,,183.7964902999811,224,25,female,True
21,0.9,25,down,down,0.4535592999891378,0.8807653841818324,,tutorial,cRDM,,,,,185.5799278999912,224,25,female,True
22,100.0,25,M,up,0.6324731000058819,1.684660526459323,,psi_staircase_training,emotion,,100.0,100.0,25.00050000000001,201.54601879999973,224,25,female,True
23,55.0,25,M,down,0.4599113999865949,1.6684496990261348,,psi_staircase_training,emotion,,54.7428094675419,54.7428094675419,25.00050000000011,204.2125892999757,224,25,female,True
24,79.0,25,F,down,0.7336402999935672,1.2253755103799089,,psi_staircase_training,emotion,,79.636070985635,79.636070985635,25.713269254886413,206.2458342999744,224,25,female,True
25,103.0,25,F,up,0.4167026999930385,0.9315238892330288,,psi_staircase_training,emotion,,97.61123893914808,97.61123893914808,26.1463337262867,208.26241119997576,224,25,female,True
26,87.0,25,M,down,0.6037999999825843,1.262857853516922,,psi_staircase_training,emotion,,85.98876744579668,85.98876744579668,23.003056417783498,210.29568270000163,224,25,female,True
27,95.0,25,F,up,0.4872309000056702,0.4295701134239497,,psi_staircase_training,emotion,,95.05640406123077,95.05640406123077,22.150603223582728,211.67923219999648,224,25,female,True
28,84.0,25,M,down,0.942582699994091,1.107856145196787,,psi_staircase_training,emotion,,88.41622646561945,88.41622646561945,20.597853251064077,213.62890199999677,224,25,female,True
29,92.0,25,F,up,0.4816912999958731,0.3991835128223103,,psi_staircase_training,emotion,,92.48012886422012,92.48012886422012,17.547034846052444,215.32883499999295,224,25,female,True
30,84.0,25,F,up,0.756324100017082,0.6601457229543488,,psi_staircase_training,emotion,,88.47501306238608,88.47501306238608,16.344870876655484,216.8121418999799,224,25,female,True
31,71.0,25,M,down,0.5894784000120126,1.4392983846887308,,psi_staircase_training,emotion,,83.10533381706729,83.10533381706729,23.858932145845728,219.36200199997984,224,25,female,True
32,73.0,25,F,up,0.7841812999977265,1.3733415950641945,,psi_staircase_training,emotion,,85.79596557166968,85.79596557166968,21.15010536825469,221.6952769999916,224,25,female,True
33,61.0,25,F,up,0.7436461999895982,0.4451224434222839,,psi_staircase_training,emotion,,80.15474558274951,80.15474558274951,28.757577148279537,223.2618493999762,224,25,female,True
34,51.0,25,F,down,0.3835286000103224,1.862861415283768,,psi_staircase_training,emotion,,73.50303241665303,73.50303241665303,34.27232056253384,226.22841439998592,224,25,female,True
35,52.0,25,M,down,0.8077527999994345,0.8398354078196479,,psi_staircase_training,emotion,,75.89090889538755,75.89090889538755,33.03512630763931,227.8117043999955,224,25,female,True
36,53.0,25,M,down,1.0578591000230515,1.6948118642756502,,psi_staircase_training,emotion,,77.80587695602236,77.80587695602236,31.860547035260968,230.661587199982,224,25,female,True
37,104.0,25,F,up,0.5783731999981683,0.6091437205638573,,psi_staircase_training,emotion,,79.36543082643266,79.36543082643266,30.74674375650416,232.6780797999818,224,25,female,True
38,53.0,25,F,down,0.7337280999927316,1.770409878042324,,psi_staircase_training,emotion,,77.90996786305531,77.90996786305531,29.537872262677386,235.3447707000014,224,25,female,True
39,104.0,25,M,up,0.5402037000167184,1.9750115704653768,,psi_staircase_training,emotion,,79.1420593367369,79.1420593367369,28.381302761020475,238.37825159999196,224,25,female,True
40,54.0,25,M,down,0.5752251999801956,1.9236245542081152,,psi_staircase_training,emotion,,78.00093945121166,78.00093945121166,27.17288671242317,241.21121319997476,224,25,female,True
41,103.0,25,M,up,0.4166837999946438,1.1295268659394022,,psi_staircase_training,emotion,,79.01193256684276,79.01193256684276,26.02020145410521,243.26112099998863,224,25,female,True
42,56.0,25,M,down,0.7891067999880761,1.9059433791281453,,psi_staircase_training,emotion,,78.08522927941482,78.08522927941482,24.85392316438397,245.94437579999797,224,25,female,True
43,101.0,25,F,up,0.5066108999890275,1.8371954243254216,,psi_staircase_training,emotion,,78.95695280529814,78.95695280529814,23.74297385254196,248.9109235999931,224,25,female,True
44,57.0,25,F,down,0.5283016999892425,1.672680918660106,,psi_staircase_training,emotion,,78.16817770310948,78.16817770310948,22.64816819661969,251.44416999997335,224,25,female,True
45,100.0,25,F,up,0.4914309000014327,1.2216974514382877,,psi_staircase_training,emotion,,78.89797356552877,78.89797356552877,21.62896171053832,253.54407879998325,224,25,female,True
46,60.0,25,M,down,0.6618192000023555,1.3194193261971563,,psi_staircase_training,emotion,,78.24911751647544,78.24911751647544,20.652806121500635,255.7106797999877,224,25,female,True
47,98.0,25,M,up,0.7083153999992646,1.461196730524872,,psi_staircase_training,emotion,,78.94184914146985,78.94184914146985,19.726214133789664,258.1771679999947,224,25,female,True
48,62.0,25,F,down,1.022029300016584,0.7355970055742383,,psi_staircase_training,emotion,,78.36850764557832,78.36850764557832,18.865720019346025,259.9774511999858,224,25,female,True
49,64.0,25,F,down,0.7503062000032514,0.4763363915935972,,psi_staircase_training,emotion,,79.01155901753957,79.01155901753957,18.047073485438023,261.8271423999977,224,25,female,True
50,96.0,25,M,up,0.5314589999907184,1.29990884225164,,psi_staircase_training,emotion,,79.62443996029596,79.62443996029596,17.307940811608372,264.2270426999894,224,25,female,True
51,67.0,25,M,up,0.5028290000045672,0.591532380391951,,psi_staircase_training,emotion,,79.10588928363006,79.10588928363006,16.58282967820463,265.6936462999729,224,25,female,True
52,0.29,25,up,up,0.6414802999934182,1.517533129254371,,psi_staircase_training,cRDM,,0.25,0.2569312402994632,0.105,273.9599954999867,224,25,female,True
53,0.25,25,up,up,0.9525696999917272,1.9887437202259444,,psi_staircase_training,cRDM,,0.2191026665318312,0.2260132002683492,0.1046863203387393,276.85988889998407,224,25,female,True
54,0.21,25,down,down,0.5530507999937981,0.4831381271475282,,psi_staircase_training,cRDM,,0.1900540959403307,0.1968497961554001,0.1029467298424999,278.5764031999861,224,25,female,True
55,0.18,25,down,down,0.7512871000217274,0.5805846519443333,,psi_staircase_training,cRDM,,0.1635257589279754,0.1701521334256793,0.1003816477568649,279.99314409997896,224,25,female,True
56,0.15,25,up,up,0.5504057999933138,0.3140829143463717,,psi_staircase_training,cRDM,,0.1401895574244936,0.1466013351187503,0.0971307628663642,281.3430726999941,224,25,female,True
57,0.13,25,down,down,0.5014033000043128,1.762011139316014,,psi_staircase_training,cRDM,,0.1198760602145479,0.1260554767618333,0.0936107694196103,283.9430033999961,224,25,female,True
58,0.11,25,up,up,0.561357800004771,0.3511412391050956,,psi_staircase_training,cRDM,,0.1025773523696548,0.1084910344569865,0.0895852101993795,285.0760750999907,224,25,female,True
59,0.09,25,down,down,0.5079677000176162,1.6396841251961891,,psi_staircase_training,cRDM,,0.087844325958594,0.0934818215320969,0.0854013148647635,287.55952299997443,224,25,female,True
60,0.08,25,down,up,0.68800199998077,0.338914631173883,,psi_staircase_training,cRDM,,0.0751852092118086,0.0805556301471181,0.0813554535472043,288.65947879999294,224,25,female,True
61,0.13,25,up,up,0.6430803000112064,1.4378329271504109,,psi_staircase_training,cRDM,,0.1145374077699418,0.1210371210567565,0.0984628819128368,291.05935969998245,224,25,female,True
62,0.13,25,down,down,0.5241831000021193,0.8894532199447602,,psi_staircase_training,cRDM,,0.1023941484636293,0.108577482786431,0.0936701190325844,292.8593170999957,224,25,female,True
63,0.12,25,down,up,0.6125482000061311,1.1665489073145632,,psi_staircase_training,cRDM,,0.093157405715179,0.098965388034743,0.0879839851464166,294.82590419999906,224,25,female,True
64,0.16,25,down,down,0.5349475999828428,1.3751851945589304,,psi_staircase_training,cRDM,,0.1290085181734406,0.136602985232638,0.1150470921167567,297.09252330000163,224,25,female,True
65,0.16,25,up,up,0.5572937000251841,1.3493788534269966,,psi_staircase_training,cRDM,,0.1173317507949223,0.1246537931796921,0.1109201841494908,299.25908189997426,224,25,female,True
66,0.15,25,up,down,0.5505949000071269,1.68340135215293,,psi_staircase_training,cRDM,,0.1084336674921715,0.115430444050328,0.105992795930524,301.77590949999285,224,25,female,True
67,0.2,25,down,down,0.484288400009973,1.9863139917015429,,psi_staircase_training,cRDM,,0.1440985501660944,0.1528134769152337,0.1320207162245539,304.5922234999889,224,25,female,True
68,0.19,25,down,down,0.8009709999896586,0.976611237069526,,psi_staircase_training,cRDM,,0.1325912663771264,0.1411239034644318,0.1292592458865469,306.3254828999925,224,25,female,True
69,0.18,25,up,up,0.5281214000133332,1.5208578085969136,,psi_staircase_training,cRDM,,0.1233039328808346,0.1316215548003485,0.1260020232766401,308.92538449997664,224,25,female,True
70,0.14,25,up,up,0.6431510999973398,1.1139361746152336,,psi_staircase_training,cRDM,,0.115722336329528,0.1238112601928907,0.1225375212743451,310.82532619999256,224,25,female,True
71,0.14,25,up,up,0.6252070000045933,0.7780824248652816,,psi_staircase_training,cRDM,,0.1071068047794146,0.1152839902880109,0.1238745796288587,312.52525979999336,224,25,female,True
72,0.14,25,up,up,0.5425812999892514,1.66749840465302,,psi_staircase_training,cRDM,,0.0997346012349838,0.1079099011021013,0.1238460144158911,315.0918677999871,224,25,female,True
73,0.11,25,down,down,0.6546379000064917,0.8886578670161325,,psi_staircase_training,cRDM,,0.0935440351545593,0.1016454502194367,0.122726748036424,316.7918126999866,224,25,female,True
74,0.11,25,down,up,0.6304293999855872,1.7091745454091625,,psi_staircase_training,cRDM,,0.0865336216413926,0.0948315574600588,0.1257038023955727,319.4250308999908,224,25,female,True
75,0.16,25,down,down,0.7246739999973215,0.8271059309819009,,psi_staircase_training,cRDM,,0.1064893415115262,0.1144686538970861,0.1208770384931918,321.17480159999104,224,25,female,True
76,0.15,25,up,up,0.5873395999951754,1.6208632195103514,,psi_staircase_training,cRDM,,0.1020759508976671,0.1098033373368953,0.1170606617378128,323.77511079999385,224,25,female,True
77,0.1,25,up,down,0.4980596000095829,1.5056203606209455,,psi_staircase_training,cRDM,,0.0981069301134532,0.1056107254327054,0.1136735237101061,326.1414681999886,224,25,female,True
78,0.16,25,down,down,0.5627796000044327,1.5924966796412374,,psi_staircase_training,cRDM,,0.1145015968626578,0.1208308341085107,0.0958803738006334,328.5246882999781,224,25,female,True
79,0.15,25,down,up,0.7265466000244487,1.4307848567174524,,psi_staircase_training,cRDM,,0.1117669489386472,0.1177100817879214,0.0900313540164105,330.8079253999749,224,25,female,True
80,0.18,25,up,down,0.7799371000146493,1.2203709368907851,,psi_staircase_training,cRDM,,0.1257697475018277,0.1336613887933893,0.11954892628353,333.0245085999777,224,25,female,True
81,0.22,25,up,up,0.6813184999919031,0.495215900383382,,psi_staircase_training,cRDM,,0.1474144752615104,0.1570217772306285,0.145539133426886,334.5911456999893,224,25,female,True
82,100.0,25,M,up,0.6697901999868918,1.9811089992973188,,psi_staircase,emotion,,100.0,100.0,25.00050000000001,356.2236468999763,224,25,female,True
83,55.0,25,M,down,0.5146116999967489,0.7176048180346399,,psi_staircase,emotion,,54.7428094675419,54.7428094675419,25.00050000000011,357.95691599999554,224,25,female,True
84,79.0,25,F,up,0.559610900003463,1.7480070131435876,,psi_staircase,emotion,,79.636070985635,79.636070985635,25.713269254886413,360.5568102999823,224,25,female,True
85,63.0,25,F,down,0.8977602999948431,1.6138483413394906,,psi_staircase,emotion,,62.16401670338348,62.16401670338348,25.292325986283885,363.0736668999889,224,25,female,True
86,73.0,25,M,down,0.7787921999988612,1.5755048966538645,,psi_staircase,emotion,,73.53930944190891,73.53930944190891,23.64975108561003,365.90663169999607,224,25,female,True
87,87.0,25,F,up,0.5493367000017315,1.889375892219109,,psi_staircase,emotion,,82.48355301883353,82.48355301883353,24.57617413513036,368.9231731999898,224,25,female,True
88,83.0,25,M,up,0.5866886000148952,0.5609935752862316,,psi_staircase,emotion,,76.0242518205757,76.0242518205757,21.320254309741053,370.389860700001,224,25,female,True
89,69.0,25,F,up,0.5906990999937989,0.5661775940875621,,psi_staircase,emotion,,72.41600161323048,72.41600161323048,18.70114434084006,371.8897330999898,224,25,female,True
90,54.0,25,F,down,0.6345923999906518,1.2304658547904794,,psi_staircase,emotion,,65.56493264349415,65.56493264349415,24.95836549057819,374.0728321999777,224,25,female,True
91,56.0,25,M,down,0.585258100007195,1.6492483391776755,,psi_staircase,emotion,,69.12060231880078,69.12060231880078,22.14364215086687,376.7062228999857,224,25,female,True
92,84.0,25,F,down,0.7646598999854177,0.4850836178638592,,psi_staircase,emotion,,71.38190230837154,71.38190230837154,19.7699428074586,378.1228178999736,224,25,female,True
93,96.0,25,F,up,0.5140941999852657,1.1739908875821554,,psi_staircase,emotion,,76.90222639210148,76.90222639210148,26.768604291035587,380.4894221999857,224,25,female,True
94,56.0,25,F,down,0.7017676000250503,1.768842420856558,,psi_staircase,emotion,,74.95607257115532,74.95607257115532,24.96159266576328,383.12266949997866,224,25,female,True
95,95.0,25,M,up,0.5196030999941286,1.3902273738886746,,psi_staircase,emotion,,76.42688965501986,76.42688965501986,23.33078336619161,385.5558827999921,224,25,female,True
96,57.0,25,M,down,0.7442577000183519,0.9133192815479312,,psi_staircase,emotion,,75.02043730393777,75.02043730393777,21.600666130663463,387.3391766999848,224,25,female,True
97,93.0,25,F,up,0.7154171000001952,1.966860896856699,,psi_staircase,emotion,,76.08804303608557,76.08804303608557,20.077791505057476,390.3890580000007,224,25,female,True
98,59.0,25,F,down,1.2608070999849588,0.8902113367551405,,psi_staircase,emotion,,75.02172870477972,75.02172870477972,18.527778004661,392.3556553999952,224,25,female,True
99,91.0,25,M,up,0.5918774000019766,1.441693293275076,,psi_staircase,emotion,,75.85467783510678,75.85467783510678,17.195596029936304,395.4055319999752,224,25,female,True
100,62.0,25,M,down,0.6289293000008911,0.3888048071044568,,psi_staircase,emotion,,75.02241828684642,75.02241828684642,15.892670229295794,396.75547369997366,224,25,female,True
101,88.0,25,M,up,0.5796711999864783,1.3070608027474222,,psi_staircase,emotion,,75.75526988488048,75.75526988488048,14.78615987701124,399.038736699993,224,25,female,True
102,65.0,25,M,down,0.8547573999967426,1.4118885905549123,,psi_staircase,emotion,,75.02244528699603,75.02244528699603,13.722641287503665,401.3886618999823,224,25,female,True
103,85.0,25,F,up,0.7032011999981478,0.8046238232957752,,psi_staircase,emotion,,75.73286745231623,75.73286745231623,12.85065466925095,403.405254399986,224,25,female,True
104,75.0,25,F,up,0.7912351000122726,0.7509211612426174,,psi_staircase,emotion,,75.02680121110309,75.02680121110309,12.00786364538552,405.2051988999883,224,25,female,True
105,80.0,25,F,up,0.6400634000019636,1.4477383076460633,,psi_staircase,emotion,,73.6160164479962,73.6160164479962,11.977326126367124,407.78841859998647,224,25,female,True
106,64.0,25,M,down,0.8249430999858305,1.593014935476427,,psi_staircase,emotion,,72.8853936246938,72.8853936246938,11.30450434245049,410.3715293999994,224,25,female,True
107,77.0,25,M,down,0.8481721999996807,0.5397715494489518,,psi_staircase,emotion,,73.39901017292357,73.39901017292357,10.577873249349082,412.0882508999785,224,25,female,True
108,64.0,25,F,down,0.5816682000004221,1.590380621818961,,psi_staircase,emotion,,74.92057539471043,74.92057539471043,11.551737924688414,414.8717433999991,224,25,female,True
109,85.0,25,F,down,0.576755400019465,1.5980810703140789,,psi_staircase,emotion,,75.28288830040361,75.28288830040361,10.936472063053769,417.4047294999764,224,25,female,True
110,91.0,25,M,up,0.821185599983437,1.7822616227616015,,psi_staircase,emotion,,76.99846388930621,76.99846388930621,13.49673716765984,420.1212706999795,224,25,female,True
111,64.0,25,M,down,0.8492244000080973,1.550985594045478,,psi_staircase,emotion,,76.65686440797784,76.65686440797784,12.787950009793898,422.8211930999824,224,25,female,True
112,90.0,25,F,down,0.6097587000112981,0.8622324416465978,,psi_staircase,emotion,,76.96880712632353,76.96880712632353,12.192735343755851,424.8877026999835,224,25,female,True
113,96.0,25,M,up,0.6374146000016481,1.8182270363142408,,psi_staircase,emotion,,78.69671291742569,78.69671291742569,15.48194484200948,427.6710015999852,224,25,female,True
114,95.0,25,F,up,0.570137499977136,1.343344649208507,,psi_staircase,emotion,,78.36883657813236,78.36883657813236,14.73268607014058,430.0042613999976,224,25,female,True
115,63.0,25,M,down,0.6122583000105806,0.6323902357111171,,psi_staircase,emotion,,78.09390084456132,78.09390084456132,14.09419237288102,431.5541970999912,224,25,female,True
116,93.0,25,F,up,0.5269846000010148,0.9405347962971892,,psi_staircase,emotion,,78.36370396782416,78.36370396782416,13.531071700932614,433.5374710999895,224,25,female,True
117,65.0,25,M,down,0.8350328000087757,0.9257528514868758,,psi_staircase,emotion,,78.10569942387464,78.10569942387464,13.013790298231411,435.33739579998655,224,25,female,True
118,92.0,25,F,up,0.7157837999984622,0.6679340445678479,,psi_staircase,emotion,,78.37830142938982,78.37830142938982,12.54684030176524,437.1706685999816,224,25,female,True
119,66.0,25,M,down,0.7844064999953844,1.6471342309136838,,psi_staircase,emotion,,78.14554573088408,78.14554573088408,12.129897485463747,439.8870074999868,224,25,female,True
120,67.0,25,M,up,0.7412928999983706,1.523058833355618,,psi_staircase,emotion,,78.40391195086627,78.40391195086627,11.742794045044384,442.53713849998894,224,25,female,True
121,92.0,25,F,up,1.3327828999899791,1.2856368328194046,,psi_staircase,emotion,,77.17346079695348,77.17346079695348,13.460982121536407,444.90370109997457,224,25,female,True
122,63.0,25,F,down,0.6070471999992151,1.0968890930152335,,psi_staircase,emotion,,76.95614747439184,76.95614747439184,13.047907992838145,447.67037399997935,224,25,female,True
123,91.0,25,F,down,0.8342264999810141,1.1409531004516915,,psi_staircase,emotion,,77.17515565873111,77.17515565873111,12.670064606606305,449.77021229997627,224,25,female,True
124,96.0,25,M,up,0.6060059999872465,1.140054037667238,,psi_staircase,emotion,,78.41217851444374,78.41217851444374,14.732088859964168,452.103458699974,224,25,female,True
125,62.0,25,M,down,0.6343927000125404,1.6628673841516313,,psi_staircase,emotion,,78.22086952947828,78.22086952947828,14.30423199986942,454.7200398999848,224,25,female,True
126,94.0,25,F,up,0.605846400023438,0.7284889016896662,,psi_staircase,emotion,,78.41317925158707,78.41317925158707,13.916138936341722,456.4366111999843,224,25,female,True
127,63.0,25,F,down,0.7997482999926433,0.8909214983623521,,psi_staircase,emotion,,78.21961536669029,78.21961536669029,13.552639184981304,458.26971689998754,224,25,female,True
128,93.0,25,F,up,0.6902649999829009,0.4332912041853387,,psi_staircase,emotion,,78.4053099576824,78.4053099576824,13.225045721156912,459.8531603999727,224,25,female,True
129,64.0,25,M,down,0.8293423000141047,0.6082560632375025,,psi_staircase,emotion,,78.2205000696182,78.2205000696182,12.918455635818926,461.50308929997846,224,25,female,True
130,92.0,25,M,up,0.6230923999974038,0.7694929611978834,,psi_staircase,emotion,,78.40302528553575,78.40302528553575,12.63643988866264,463.4363525999943,224,25,female,True
131,65.0,25,M,down,0.7822386999905575,1.9369057626744963,,psi_staircase,emotion,,78.22260989100542,78.22260989100542,12.372671698400186,466.3362555999775,224,25,female,True
132,0.29,25,up,up,0.7402298000233714,0.5593717430455158,,psi_staircase,cRDM,,0.25,0.2569312402994632,0.105,476.619229599979,224,25,female,True
133,0.25,25,up,up,0.8012976000027265,0.8835758644193372,,psi_staircase,cRDM,,0.2191026665318312,0.2260132002683492,0.1046863203387393,478.51914409999154,224,25,female,True
134,0.21,25,down,down,0.4806114000093657,1.4957007693393765,,psi_staircase,cRDM,,0.1900540959403307,0.1968497961554001,0.1029467298424999,481.06883789997664,224,25,female,True
135,0.18,25,down,down,0.6667865999916103,0.5148672775275696,,psi_staircase,cRDM,,0.1635257589279754,0.1701521334256793,0.1003816477568649,482.3356766999932,224,25,female,True
136,0.15,25,up,up,0.5507607999898028,0.4202456547943546,,psi_staircase,cRDM,,0.1401895574244936,0.1466013351187503,0.0971307628663642,483.6856379999954,224,25,female,True
137,0.13,25,down,down,0.6608919000136666,0.5896857580711414,,psi_staircase,cRDM,,0.1198760602145479,0.1260554767618333,0.0936107694196103,485.0855261999823,224,25,female,True
138,0.11,25,up,up,0.5802236000017729,1.4002311945083317,,psi_staircase,cRDM,,0.1025773523696548,0.1084910344569865,0.0895852101993795,487.4021949999733,224,25,female,True
139,0.09,25,down,down,1.034661899990169,1.4752100462140108,,psi_staircase,cRDM,,0.087844325958594,0.0934818215320969,0.0854013148647635,489.71875319999526,224,25,female,True
140,0.08,25,down,down,1.2587552999902982,1.2045756637245113,,psi_staircase,cRDM,,0.0751852092118086,0.0805556301471181,0.0813554535472043,492.218658400001,224,25,female,True
141,0.06,25,up,down,0.779914299986558,1.7699900189528486,,psi_staircase,cRDM,,0.0644790391168514,0.0695422244606275,0.0767012018235253,495.5185095999914,224,25,female,True
142,0.11,25,down,down,1.585607799992431,1.0033029872883197,,psi_staircase,cRDM,,0.0948602595780939,0.100716274325989,0.0887116189834892,497.5517961999867,224,25,female,True
143,0.1,25,down,down,0.6086096999933943,1.976133541343612,,psi_staircase,cRDM,,0.0850536372837916,0.0905330829294477,0.0830070475032367,501.3848037999997,224,25,female,True
144,0.1,25,down,down,1.0905589000030886,1.2844739869689628,,psi_staircase,cRDM,,0.0773438712303519,0.0824482118285555,0.0773246547018264,503.5349173999857,224,25,female,True
145,0.09,25,up,down,1.0609408000018448,0.5660815288710705,,psi_staircase,cRDM,,0.071623626374969,0.0763215808449468,0.071168390942365,505.45147119998,224,25,female,True
146,0.12,25,up,up,0.7790125999890734,1.420110726898903,,psi_staircase,cRDM,,0.0949480904330502,0.1013212413012023,0.0965456126528749,508.2014269999927,224,25,female,True
147,0.12,25,down,down,0.7547640000120737,0.6038125198632903,,psi_staircase,cRDM,,0.0877518457940399,0.0937241610069099,0.090473431919525,509.8346614999755,224,25,female,True
148,0.12,25,down,down,0.6687068000028376,1.1018881036642456,,psi_staircase,cRDM,,0.082527265125335,0.0880747942426152,0.0840384306629117,511.9677442999964,224,25,female,True
149,0.12,25,up,up,0.564545300003374,0.6181398103680279,,psi_staircase,cRDM,,0.078872237093229,0.0839923979018681,0.0775643119671868,513.5178491999977,224,25,female,True
150,0.09,25,up,down,0.5203772999811918,0.7232663292788646,,psi_staircase,cRDM,,0.0764202020048848,0.0811250699167796,0.0712731213181589,515.0680643999949,224,25,female,True
151,0.13,25,up,up,0.476402300002519,1.7795726983872937,,psi_staircase,cRDM,,0.090430298529038,0.0951098250877583,0.0708892301286507,517.6510215999733,224,25,female,True
152,0.12,25,up,down,0.5824271999881603,0.8206226428715,,psi_staircase,cRDM,,0.0880292300124773,0.0922730436625723,0.0642887007242385,519.2010107999959,224,25,female,True
153,0.14,25,down,down,0.5560869000037201,1.5175515607187389,,psi_staircase,cRDM,,0.1015320055264726,0.1089094674991841,0.1117597246187958,521.5673663999769,224,25,female,True
154,0.14,25,down,down,0.6641201000020374,1.9750068754622316,,psi_staircase,cRDM,,0.0959048815213726,0.1029054092786427,0.1060496221102415,524.3673155999859,224,25,female,True
155,0.14,25,down,down,0.5814138000132516,1.8287571511182208,,psi_staircase,cRDM,,0.0917085677126842,0.0983114054850792,0.1000250945209858,527.1340129999735,224,25,female,True
156,0.14,25,up,up,0.6098244000168052,1.683465754516841,,psi_staircase,cRDM,,0.0886746242924576,0.0948716505346619,0.0938775352344722,529.6505907999817,224,25,female,True
157,0.14,25,up,down,0.5119601000042167,1.6214674096887578,,psi_staircase,cRDM,,0.0865710759411137,0.0923638564973595,0.0877536966151501,532.1504825000011,224,25,female,True
158,0.15,25,down,down,0.4436450999928638,1.6003047552479808,,psi_staircase,cRDM,,0.0969617673823021,0.105759639771364,0.1332772434571393,534.5337690000015,224,25,female,True
159,0.15,25,down,up,0.8126989000011235,0.9392203778197794,,psi_staircase,cRDM,,0.092009874316294,0.1005797744245075,0.1298237360825735,536.1837105999875,224,25,female,True
160,0.21,25,up,up,0.7752284000162035,1.7304991674111136,,psi_staircase,cRDM,,0.1123953751062213,0.1222162415390585,0.1487743796053016,539.0002105999738,224,25,female,True
161,0.19,25,up,up,0.7109855000162497,1.6917147516382585,,psi_staircase,cRDM,,0.1068118266216407,0.1164985283619335,0.1467419449891976,541.7334522999881,224,25,female,True
162,0.17,25,down,down,0.5810058999923058,1.832272463427656,,psi_staircase,cRDM,,0.1017333132774862,0.1112876159587776,0.1447362576093745,544.5334061999747,224,25,female,True
163,0.17,25,up,up,0.5710786999843549,1.3462655321737718,,psi_staircase,cRDM,,0.0969868847189363,0.1064182094757258,0.1428732891484916,546.7333574999939,224,25,female,True
164,0.14,25,down,down,0.5666533999901731,0.9925547702401878,,psi_staircase,cRDM,,0.0928850613241546,0.1021824866056514,0.1408448722565224,548.566786499985,224,25,female,True
165,0.14,25,up,up,0.8602675999864005,1.029280575017825,,psi_staircase,cRDM,,0.0885753849882816,0.097790289908174,0.1395947874817772,550.4331682999909,224,25,female,True
166,0.14,25,down,down,0.7876199999882374,0.3357632977272179,,psi_staircase,cRDM,,0.0847681611916316,0.0938799485420206,0.13803267964392,551.899812299991,224,25,female,True
167,0.14,25,up,up,0.6087255000020377,0.4101004683273856,,psi_staircase,cRDM,,0.0814067179667594,0.0903978832188277,0.1362053991318517,553.3497185999877,224,25,female,True
168,0.14,25,down,down,1.2573876999958884,1.203035882803712,,psi_staircase,cRDM,,0.078444959963832,0.0873001147384453,0.1341450030821184,555.4329984999786,224,25,female,True
169,0.14,25,up,up,0.6037915000051726,0.457726303450323,,psi_staircase,cRDM,,0.0758458928730686,0.0845511072148763,0.1318735848706023,557.3995673999889,224,25,female,True
170,0.08,25,up,up,1.1578739999968093,0.8327564538952139,,psi_staircase,cRDM,,0.0735799026347006,0.0821222912762231,0.1294069702689888,559.0995251999993,224,25,female,True
171,0.08,25,down,down,0.6629530000209343,0.8656046415164271,,psi_staircase,cRDM,,0.0693983197788993,0.0781727301902206,0.1329218225575132,561.3994584999746,224,25,female,True
172,0.15,25,down,down,0.7104101000004448,1.5863800454739994,,psi_staircase,cRDM,,0.0655672176826417,0.0745061788375756,0.1354145695021912,563.9159989999898,224,25,female,True
173,0.08,25,down,up,0.6058296000119299,0.6291339695156242,,psi_staircase,cRDM,,0.0637869346394946,0.0725872429914258,0.1333141453809256,565.5326083999826,224,25,female,True
174,0.08,25,up,up,1.3468636999896262,0.3274248532075584,,psi_staircase,cRDM,,0.0741789190058473,0.0826060849118719,0.1276614836454447,566.7325689999852,224,25,female,True
175,0.08,25,up,up,0.9446035999862944,1.925442350272376,,psi_staircase,cRDM,,0.0701697300024866,0.0788467584143831,0.1314466017459641,570.2657955999894,224,25,female,True
176,0.14,25,down,down,0.6117224000045098,1.0317118288204838,,psi_staircase,cRDM,,0.0664901843232127,0.0753480604216961,0.134186227883742,572.5157169999729,224,25,female,True
177,0.07,25,down,down,1.1248091000015847,0.725315769142492,,psi_staircase,cRDM,,0.0647366466780314,0.0734602524818576,0.1321521935219423,574.1156197999953,224,25,female,True
178,0.08,25,down,down,1.3578550999809522,0.4095529954209504,,psi_staircase,cRDM,,0.0612881949272285,0.0701833801092541,0.1347514158735792,575.9155532000004,224,25,female,True
179,0.15,25,up,up,0.6376291999768,0.8318074416802324,,psi_staircase,cRDM,,0.0582445580483767,0.0672324217466026,0.1361553845401661,578.3487871999969,224,25,female,True
180,0.07,25,up,down,0.9020865999918896,0.3183015089209956,,psi_staircase,cRDM,,0.0568228501961847,0.0656924078645952,0.1343631896956764,579.5653087999963,224,25,female,True
181,0.07,25,up,up,0.574372700008098,0.9872973014563888,,psi_staircase,cRDM,,0.0653438157504649,0.073938010735352,0.1301917744047959,581.7320037999889,224,25,female,True
182,83.0,25,F,down,1.105426800000714,1.838980419209113,,experiment,emotion,0.0,,,,591.4149822999898,224,25,female,True
183,73.0,25,M,down,0.7628587999788579,0.9203126819560754,,experiment,emotion,0.0,,,,593.7315480999823,224,25,female,True
184,79.0,25,F,down,0.6473444000002928,1.8811750542354,,experiment,emotion,0.0,,,,596.6481179999828,224,25,female,True
185,83.0,25,M,up,0.8697069000045303,0.9500945893224306,,experiment,emotion,0.0,,,,598.514717699989,224,25,female,True
186,79.0,25,F,up,0.4473987999954261,1.472764615423249,,experiment,emotion,0.0,,,,601.1979632999864,224,25,female,True
187,76.0,25,F,down,0.818523899972206,0.9333809497750654,,experiment,emotion,0.0,,,,602.8478862999764,224,25,female,True
188,73.0,25,M,down,0.639607299992349,1.5074862211092552,,experiment,emotion,0.0,,,,605.4477873999858,224,25,female,True
189,76.0,25,F,down,0.7204041999939363,1.4721102540197275,,experiment,emotion,0.0,,,,607.831033399998,224,25,female,True
190,83.0,25,M,up,0.7964485999837052,0.4749337849606688,,experiment,emotion,0.0,,,,609.2809953999822,224,25,female,True
191,76.0,25,M,down,0.6101835000154097,1.2665339596965908,,experiment,emotion,0.0,,,,611.6142275999882,224,25,female,True
192,79.0,25,F,down,0.6879771999956574,0.9530458360611248,,experiment,emotion,0.0,,,,613.464465099998,224,25,female,True
193,83.0,25,M,up,1.456314500013832,0.5987220876147528,,experiment,emotion,0.0,,,,615.0141213999887,224,25,female,True
194,79.0,25,M,down,0.8165182000084314,1.9274810390032169,,experiment,emotion,0.0,,,,618.6639067999786,224,25,female,True
195,73.0,25,M,up,1.4274977000022773,1.5532780384063425,,experiment,emotion,0.0,,,,621.3138801999739,224,25,female,True
196,76.0,25,F,down,1.0889517000177875,1.091641756332027,,experiment,emotion,0.0,,,,624.1304525999876,224,25,female,True
197,73.0,25,F,down,0.837392000015825,1.9020320335012424,,experiment,emotion,0.0,,,,627.3969938999799,224,25,female,True
198,83.0,25,M,down,0.7855000999988988,1.4164129150140754,,experiment,emotion,0.0,,,,629.9468798999733,224,25,female,True
199,73.0,25,M,down,0.746294599986868,1.927860319268728,,experiment,emotion,0.0,,,,632.9301305999979,224,25,female,True
200,79.0,25,F,up,0.8563392999931239,0.5401886488641109,,experiment,emotion,0.0,,,,634.4800667999953,224,25,female,True
201,79.0,25,F,up,1.0160942999937106,1.408535631891991,,experiment,emotion,0.0,,,,637.0133151999908,224,25,female,True
202,76.0,25,M,up,0.6222199999901932,0.5457728315859216,,experiment,emotion,0.0,,,,638.8632081999967,224,25,female,True
203,76.0,25,F,down,1.305061699997168,1.1954711782050005,,experiment,emotion,0.0,,,,640.9463355999906,224,25,female,True
204,73.0,25,M,down,1.0723586000094656,1.4401112529039748,,experiment,emotion,0.0,,,,643.963050499995,224,25,female,True
205,83.0,25,F,down,1.4498658000084106,1.8683395104699472,,experiment,emotion,0.0,,,,647.179530399997,224,25,female,True
206,79.0,25,F,down,0.8845860000001267,0.9096134960786156,,experiment,emotion,0.0,,,,649.812843599997,224,25,female,True
207,73.0,25,M,down,0.7510071000142489,1.1566776086249109,,experiment,emotion,0.0,,,,652.1294119999802,224,25,female,True
208,83.0,25,M,up,0.7577376000117511,1.5530064020433147,,experiment,emotion,0.0,,,,654.7126662999799,224,25,female,True
209,83.0,25,F,up,0.5962170000129845,0.7790374491499981,,experiment,emotion,0.0,,,,656.529237699986,224,25,female,True
210,76.0,25,M,up,0.6091983999940567,0.3353309610625867,,experiment,emotion,0.0,,,,657.7291985999909,224,25,female,True
211,73.0,25,F,down,0.8559592999808956,1.5908707500309929,,experiment,emotion,0.0,,,,660.2124471999996,224,25,female,True
212,76.0,25,M,down,0.8673696000187192,1.8032403873533929,,experiment,emotion,0.0,,,,663.1290114999865,224,25,female,True
213,79.0,25,F,up,0.6501973000122234,0.8524725754296223,,experiment,emotion,0.0,,,,665.1122660999827,224,25,female,True
214,73.0,25,M,up,0.4923319999943487,1.2340923443415897,,experiment,emotion,0.0,,,,667.2620591000014,224,25,female,True
215,83.0,25,F,down,0.5550737000012305,0.7490842461952827,,experiment,emotion,0.0,,,,668.7954571000009,224,25,female,True
216,79.0,25,M,up,0.8353363999922294,0.7878315529950602,,experiment,emotion,0.0,,,,670.41208129999,224,25,female,True
217,83.0,25,F,down,0.6874813000031281,0.6485191233753257,,experiment,emotion,0.0,,,,672.1619022999948,224,25,female,True
218,73.0,25,M,up,0.6587654000031762,0.9453247288466748,,experiment,emotion,0.0,,,,674.0786255999992,224,25,female,True
219,79.0,25,F,down,1.2168361000076402,0.8770155513281492,,experiment,emotion,0.0,,,,675.878544999985,224,25,female,True
220,76.0,25,M,up,0.9046920999826398,1.985227466260122,,experiment,emotion,0.0,,,,679.3450688000012,224,25,female,True
221,76.0,25,F,up,1.2161492999875918,1.4997352974108609,,experiment,emotion,0.0,,,,682.0283150999749,224,25,female,True
222,79.0,25,F,up,0.740240699989954,1.4878041587550068,,experiment,emotion,0.0,,,,685.0115395999746,224,25,female,True
223,83.0,25,M,up,0.6312716999964323,1.8250760678430535,,experiment,emotion,0.0,,,,687.8780907999899,224,25,female,True
224,76.0,25,F,up,1.4720063999993729,0.9319311096936982,,experiment,emotion,0.0,,,,689.7113652999979,224,25,female,True
225,73.0,25,M,up,0.8394725000252947,1.6180648773205792,,experiment,emotion,0.0,,,,693.0779157999787,224,25,female,True
226,73.0,25,M,down,1.1419419999874665,1.8880701895385648,,experiment,emotion,0.0,,,,696.0944673999911,224,25,female,True
227,76.0,25,F,down,1.094714300008491,1.5528148405663198,,experiment,emotion,0.0,,,,699.0609397999942,224,25,female,True
228,83.0,25,F,up,1.509821399988141,0.99871523075103,,experiment,emotion,0.0,,,,701.4275859999761,224,25,female,True
229,79.0,25,M,down,1.0178921000042465,0.8105561666766385,,experiment,emotion,0.0,,,,704.0275101999869,224,25,female,True
230,73.0,25,F,down,0.5950118000037037,0.9029862210080312,,experiment,emotion,0.0,,,,706.2274065999954,224,25,female,True
231,83.0,25,M,down,1.5710588000074497,0.9276525694433,,experiment,emotion,0.0,,,,708.0273307999887,224,25,female,True
232,79.0,25,M,down,1.6918885000050068,0.4911733423196101,,experiment,emotion,0.0,,,,710.3604743999895,224,25,female,True
233,79.0,25,M,down,0.9565900000161492,0.6121265177817479,,experiment,emotion,0.0,,,,712.943819099979,224,25,female,True
234,73.0,25,M,down,0.8357258999894839,1.930963960503216,,experiment,emotion,0.0,,,,716.0937353999761,224,25,female,True
235,76.0,25,M,down,0.7110752000007778,1.6420239681867037,,experiment,emotion,0.0,,,,718.8603072999977,224,25,female,True
236,83.0,25,F,down,0.6578394000243861,0.7563707712025469,,experiment,emotion,0.0,,,,720.593567999982,224,25,female,True
237,76.0,25,F,down,0.7455881999921985,1.753701508893708,,experiment,emotion,0.0,,,,723.2767990999855,224,25,female,True
238,76.0,25,F,down,0.7100313999981154,1.097448239018323,,experiment,emotion,0.0,,,,725.393376299995,224,25,female,True
239,76.0,25,M,down,0.96245409999392,1.6984966737995042,,experiment,emotion,0.0,,,,728.0599539999967,224,25,female,True
240,83.0,25,F,down,0.8701517999870703,1.6167693746967442,,experiment,emotion,0.0,,,,730.8931812999945,224,25,female,True
241,79.0,25,F,down,0.6782736000022851,0.6922645972669292,,experiment,emotion,0.0,,,,732.793108599988,224,25,female,True
242,73.0,25,F,down,0.7870701999927405,1.927057081646038,,experiment,emotion,0.0,,,,735.6763506999996,224,25,female,True
243,73.0,25,M,down,0.7591406000137795,1.690907120721674,,experiment,emotion,0.0,,,,738.426249799988,224,25,female,True
244,79.0,25,F,down,0.7552659999928437,1.476100348201609,,experiment,emotion,0.0,,,,740.9261109999788,224,25,female,True
245,83.0,25,M,down,1.0937009000044782,1.0801030514896826,,experiment,emotion,0.0,,,,743.0426691999892,224,25,female,True
246,83.0,25,M,down,1.1463793000148144,1.069810220356128,,experiment,emotion,0.0,,,,745.4760129999777,224,25,female,True
247,73.0,25,F,down,0.9118255999928806,0.8490921765681814,,experiment,emotion,0.0,,,,747.7425338999892,224,25,female,True
248,83.0,25,M,down,0.94392589997733,1.1313728402405323,,experiment,emotion,0.0,,,,750.0594583999773,224,25,female,True
249,76.0,25,F,down,0.7414903000171762,0.5780192519505074,,experiment,emotion,0.0,,,,751.8588908999809,224,25,female,True
250,79.0,25,M,down,1.058069600025192,0.4657885425319942,,experiment,emotion,0.0,,,,753.3423378999869,224,25,female,True
251,76.0,25,F,down,1.0524445000046398,0.8267562031527262,,experiment,emotion,0.0,,,,755.5089324,224,25,female,True
252,73.0,25,M,up,1.234682000009343,1.2167721245932923,,experiment,emotion,0.0,,,,758.0586945999821,224,25,female,True
253,79.0,25,F,down,1.1019380000070669,0.712218501776064,,experiment,emotion,0.0,,,,760.2754245999968,224,25,female,True
254,76.0,25,F,down,0.9763693000131752,0.8019126901738645,,experiment,emotion,0.0,,,,762.4419966999849,224,25,female,True
255,79.0,25,F,down,0.9754911999916658,1.899254057123647,,experiment,emotion,0.0,,,,765.5918888999731,224,25,female,True
256,73.0,25,F,down,1.0915217000001576,0.988236010217218,,experiment,emotion,0.0,,,,767.8417995999916,224,25,female,True
257,83.0,25,F,down,1.2523262999893632,1.2260358708764412,,experiment,emotion,0.0,,,,770.4250534999883,224,25,female,True
258,79.0,25,M,up,0.9051079000055324,1.6514734522622905,,experiment,emotion,0.0,,,,773.6082692999917,224,25,female,True
259,83.0,25,M,up,0.8279053999867756,1.8096328618328867,,experiment,emotion,0.0,,,,776.5915057999955,224,25,female,True
260,73.0,25,M,up,0.7193646000232548,0.7731767796276059,,experiment,emotion,0.0,,,,778.458037799981,224,25,female,True
261,76.0,25,M,down,0.922393099986948,1.260994333340408,,experiment,emotion,0.0,,,,780.7080025999749,224,25,female,True
262,0.0620145962839128,25,up,up,0.7250703999889083,1.140641240400075,,experiment,cRDM,0.0,,,,788.3243935999926,224,25,female,True
263,0.0620145962839128,25,up,up,0.6687403999967501,1.3774506452946775,,experiment,cRDM,0.0,,,,790.7076314000005,224,25,female,True
264,0.0620145962839128,25,down,down,1.239978900004644,0.5156714433453117,,experiment,cRDM,0.0,,,,792.157398499985,224,25,female,True
265,0.0620145962839128,25,down,down,0.6570983999990858,1.3989506866340689,,experiment,cRDM,0.0,,,,795.0572710999986,224,25,female,True
266,0.0620145962839128,25,up,up,0.845652699994389,0.7582196590509989,,experiment,cRDM,0.0,,,,796.7407437999791,224,25,female,True
267,0.0620145962839128,25,down,down,1.05770050000865,0.4493229907206897,,experiment,cRDM,0.0,,,,798.2906953999773,224,25,female,True
268,0.0620145962839128,25,up,up,0.7260983999876771,1.2889892204366171,,experiment,cRDM,0.0,,,,800.9072539999906,224,25,female,True
269,0.0620145962839128,25,up,down,1.129807699995581,1.3391422845703504,,experiment,cRDM,0.0,,,,803.2405192999868,224,25,female,True
270,0.0620145962839128,25,down,down,0.9462531000026502,1.272200463293402,,experiment,cRDM,0.0,,,,805.9071154999838,224,25,female,True
271,0.0620145962839128,25,down,down,1.3414514000178317,1.933956505566079,,experiment,cRDM,0.0,,,,809.0569168999791,224,25,female,True
272,0.0620145962839128,25,down,up,1.7831918000010774,1.938887161089913,,experiment,cRDM,0.0,,,,812.590189599985,224,25,female,True
273,0.0620145962839128,25,down,down,1.4246965000056662,1.377335106814567,,experiment,cRDM,0.0,,,,816.0066722999909,224,25,female,True
274,0.0620145962839128,25,down,up,1.1697649999987334,1.518563545296879,,experiment,cRDM,0.0,,,,819.2066005999804,224,25,female,True
275,0.0620145962839128,25,down,up,0.9536386000108904,0.3041698657872408,,experiment,cRDM,0.0,,,,820.9397341999866,224,25,female,True
276,0.0620145962839128,25,up,up,1.1190136999939568,1.7562847030924704,,experiment,cRDM,0.0,,,,823.9064193999802,224,25,female,True
277,0.0620145962839128,25,up,down,1.623076099989703,1.8214774430417469,,experiment,cRDM,0.0,,,,827.1063028999779,224,25,female,True
278,0.0620145962839128,25,up,up,0.680165500001749,0.526878089784224,,experiment,cRDM,0.0,,,,829.5062204999849,224,25,female,True
279,0.0620145962839128,25,up,down,0.8872005000011995,1.1103151139993546,,experiment,cRDM,0.0,,,,831.5561698999954,224,25,female,True
280,0.0620145962839128,25,down,up,1.2576568000076804,1.3066214532059004,,experiment,cRDM,0.0,,,,834.022707999975,224,25,female,True
281,0.0620145962839128,25,up,down,1.1753822999889962,1.2243555413229943,,experiment,cRDM,0.0,,,,836.7559848999954,224,25,female,True
282,0.0620145962839128,25,up,up,0.6568411999905948,0.6224823522939538,,experiment,cRDM,0.0,,,,838.8225273999851,224,25,female,True
283,0.0620145962839128,25,down,down,1.4642771999933757,1.5416720835703035,,experiment,cRDM,0.0,,,,841.2891009000014,224,25,female,True
284,0.0620145962839128,25,up,up,0.7312986000033561,1.1104329338650625,,experiment,cRDM,0.0,,,,844.1390572999953,224,25,female,True
285,0.0620145962839128,25,down,down,1.0450682000082452,1.1510511524442344,,experiment,cRDM,0.0,,,,846.2722921999812,224,25,female,True
286,0.0620145962839128,25,down,down,1.010050899989437,1.9814825033577088,,experiment,cRDM,0.0,,,,849.5553466999845,224,25,female,True
287,0.0620145962839128,25,up,up,0.8806420000037178,1.5022991655705034,,experiment,cRDM,0.0,,,,852.3387167999754,224,25,female,True
288,0.0620145962839128,25,up,up,1.5717939999885857,0.3807719639007909,,experiment,cRDM,0.0,,,,853.8555751999957,224,25,female,True
289,0.0620145962839128,25,down,down,1.2403199000109453,0.6571283472463669,,experiment,cRDM,0.0,,,,856.3550453999778,224,25,female,True
290,0.0620145962839128,25,up,up,1.120950599986827,0.8327731936478047,,experiment,cRDM,0.0,,,,858.6884896999982,224,25,female,True
291,0.0620145962839128,25,down,up,0.9276026000152342,0.7005247529375458,,experiment,cRDM,0.0,,,,860.7717653999862,224,25,female,True
292,0.0620145962839128,25,down,up,0.8037520000070799,1.2620526803835996,,experiment,cRDM,0.0,,,,863.2216374999844,224,25,female,True
293,0.0620145962839128,25,down,up,1.2545638000010513,1.7655945859544704,,experiment,cRDM,0.0,,,,866.0548017999972,224,25,female,True
294,0.0620145962839128,25,up,up,1.2182734999805689,1.1618635172414946,,experiment,cRDM,0.0,,,,868.7380900999997,224,25,female,True
295,0.0620145962839128,25,up,up,1.3856991000066046,1.1802659109952145,,experiment,cRDM,0.0,,,,871.4046610999794,224,25,female,True
296,0.0620145962839128,25,up,up,1.3914791999850422,1.6704749424651464,,experiment,cRDM,0.0,,,,874.7378832999966,224,25,female,True
297,0.0620145962839128,25,down,up,1.5232825999846682,1.8269092265646552,,experiment,cRDM,0.0,,,,878.2210877999896,224,25,female,True
298,0.0620145962839128,25,down,up,0.9613884999998844,1.816916973715205,,experiment,cRDM,0.0,,,,881.8209524999838,224,25,female,True
299,0.0620145962839128,25,up,up,1.3845071000105236,1.2763634749930417,,experiment,cRDM,0.0,,,,884.3208424999902,224,25,female,True
300,0.0620145962839128,25,down,down,1.7779541999916546,1.6639802186986172,,experiment,cRDM,0.0,,,,887.6373822999885,224,25,female,True
301,0.0620145962839128,25,up,down,1.1151112000225112,1.1573897446896166,,experiment,cRDM,0.0,,,,890.8372751999996,224,25,female,True
302,0.0620145962839128,25,up,up,1.1434918000013568,1.1775240146512589,,experiment,cRDM,0.0,,,,893.4038717999938,224,25,female,True
303,0.0620145962839128,25,up,up,1.81173069999204,1.1349027202554427,,experiment,cRDM,0.0,,,,895.953597899992,224,25,female,True
304,0.0620145962839128,25,down,down,0.9343633000098636,0.4648570079143418,,experiment,cRDM,0.0,,,,898.48701479999,224,25,female,True
305,0.0620145962839128,25,down,down,1.3189351999899372,1.9559571762318613,,experiment,cRDM,0.0,,,,901.653480899986,224,25,female,True
306,0.0620145962839128,25,up,up,1.0102932000008875,1.8899950898067717,,experiment,cRDM,0.0,,,,905.12011779999,224,25,female,True
307,0.0620145962839128,25,down,up,1.369379299983848,1.5387410944898636,,experiment,cRDM,0.0,,,,907.9199782999932,224,25,female,True
308,0.0620145962839128,25,down,down,1.3807932999916377,0.5927627348351394,,experiment,cRDM,0.0,,,,910.1365653999964,224,25,female,True
309,0.0620145962839128,25,up,down,2.1901415000029374,0.4673312981665958,,experiment,cRDM,0.0,,,,912.2531919999748,224,25,female,True
310,0.0620145962839128,25,up,up,0.8436609999916982,1.333382841746496,,experiment,cRDM,0.0,,,,916.019687299995,224,25,female,True
311,0.0620145962839128,25,down,up,0.779074899997795,0.4502416021830985,,experiment,cRDM,0.0,,,,917.5863073999936,224,25,female,True
312,0.0620145962839128,25,up,up,0.7275515999936033,0.542175495293537,,experiment,cRDM,0.0,,,,919.1527979999956,224,25,female,True
313,0.0620145962839128,25,down,up,0.8589155999943614,1.3858833477794965,,experiment,cRDM,0.0,,,,921.5194894000016,224,25,female,True
314,0.0620145962839128,25,down,down,0.7095153999980539,1.4805972872029605,,experiment,cRDM,0.0,,,,924.1358428999956,224,25,female,True
315,0.0620145962839128,25,down,down,1.1533122999826446,1.083776394477939,,experiment,cRDM,0.0,,,,926.1860120999918,224,25,female,True
316,0.0620145962839128,25,up,up,0.7920484000060242,0.4670182089990938,,experiment,cRDM,0.0,,,,928.069262999983,224,25,female,True
317,0.0620145962839128,25,up,down,0.664616299996851,1.1136240143915783,,experiment,cRDM,0.0,,,,930.2357409999822,224,25,female,True
318,0.0620145962839128,25,down,up,0.8572369000175968,0.6092723810034872,,experiment,cRDM,0.0,,,,931.7691186000012,224,25,female,True
319,0.0620145962839128,25,down,up,1.57628769997973,0.8833556263796878,,experiment,cRDM,0.0,,,,933.7690254999908,224,25,female,True
320,0.0620145962839128,25,up,up,0.8103964000183623,0.5509469415267754,,experiment,cRDM,0.0,,,,936.1689517999766,224,25,female,True
321,0.0620145962839128,25,up,down,0.6431073000130709,0.9110306146980248,,experiment,cRDM,0.0,,,,938.1522412999766,224,25,female,True
322,0.0620145962839128,25,up,up,0.7355461000115611,0.9211884078033732,,experiment,cRDM,0.0,,,,939.968824599986,224,25,female,True
323,0.0620145962839128,25,up,down,1.785244300001068,1.927446908203292,,experiment,cRDM,0.0,,,,942.9020220999956,224,25,female,True
324,0.0620145962839128,25,up,up,0.7097397999896202,0.7160081391371355,,experiment,cRDM,0.0,,,,945.668614299997,224,25,female,True
325,0.0620145962839128,25,down,down,1.219479199993657,1.5012942651779306,,experiment,cRDM,0.0,,,,948.151860599988,224,25,female,True
326,0.0620145962839128,25,down,up,0.7845890000171494,1.3526068643463136,,experiment,cRDM,0.0,,,,951.0017604999884,224,25,female,True
327,0.0620145962839128,25,up,down,1.5177185000211466,1.2504194503993806,,experiment,cRDM,0.0,,,,953.3016498999788,224,25,female,True
328,0.0620145962839128,25,down,down,1.81579240001156,1.1226076732273478,,experiment,cRDM,0.0,,,,956.2015555999824,224,25,female,True
329,0.0620145962839128,25,down,down,1.838758300000336,1.9598894103490263,,experiment,cRDM,0.0,,,,960.2345816000015,224,25,female,True
330,0.0620145962839128,25,down,up,1.2994309999921825,1.7298922653958309,,experiment,cRDM,0.0,,,,964.0679168999776,224,25,female,True
331,0.0620145962839128,25,up,up,0.7681462000182364,0.5159817049909003,,experiment,cRDM,0.0,,,,966.1511979999776,224,25,female,True
332,0.0620145962839128,25,down,up,0.8739159000106156,0.4411946681407229,,experiment,cRDM,0.0,,,,967.634447199991,224,25,female,True
333,0.0620145962839128,25,down,up,0.8336193999857642,0.5011730060088492,,experiment,cRDM,0.0,,,,969.2677494999951,224,25,female,True
334,0.0620145962839128,25,down,up,0.9377385999832768,1.897244158473735,,experiment,cRDM,0.0,,,,972.2676609999908,224,25,female,True
335,0.0620145962839128,25,up,up,1.2451766000012867,0.8236106660396447,,experiment,cRDM,0.0,,,,974.284205199976,224,25,female,True
336,0.0620145962839128,25,up,up,1.290959500009194,1.7831646836757735,,experiment,cRDM,0.0,,,,977.5674096999865,224,25,female,True
337,0.0620145962839128,25,down,down,1.443698699993547,1.3846513545596957,,experiment,cRDM,0.0,,,,980.5006418999984,224,25,female,True
338,0.0620145962839128,25,up,up,1.551713099994231,0.8004716531676759,,experiment,cRDM,0.0,,,,983.000563299982,224,25,female,True
339,0.0620145962839128,25,down,up,1.0262305999931414,1.150909917057349,,experiment,cRDM,0.0,,,,985.9671426999848,224,25,female,True
340,0.0620145962839128,25,up,up,1.3322798000008331,0.8119298844400185,,experiment,cRDM,0.0,,,,988.0670603999752,224,25,female,True
341,0.0620145962839128,25,up,up,1.0058314999914728,1.877637410367728,,experiment,cRDM,0.0,,,,991.5335462999938,224,25,female,True
342,83.0,25,M,up,0.7547260000137612,1.200624178693159,,experiment,emotion,1.0,,,,1006.249592499982,224,25,female,True
343,73.0,25,M,down,0.7124273999943398,1.6899829328868912,,experiment,emotion,1.0,,,,1008.982945899974,224,25,female,True
344,79.0,25,F,up,0.8751379000023007,1.4809008772775685,,experiment,emotion,1.0,,,,1011.4662061999844,224,25,female,True
345,83.0,25,F,up,0.6582788999949116,1.044937862141037,,experiment,emotion,1.0,,,,1013.6660966999772,224,25,female,True
346,79.0,25,M,up,1.435983600007603,0.897588820776664,,experiment,emotion,1.0,,,,1015.499375399988,224,25,female,True
347,76.0,25,F,up,1.27674639999168,0.4553641589825036,,experiment,emotion,1.0,,,,1017.6825948999904,224,25,female,True
348,73.0,25,M,down,0.999374600010924,1.9047892434121605,,experiment,emotion,1.0,,,,1021.148946799978,224,25,female,True
349,76.0,25,M,up,0.898684299987508,1.849785818961816,,experiment,emotion,1.0,,,,1024.2657046999957,224,25,female,True
350,83.0,25,F,up,0.8210477999818977,0.4406610146612504,,experiment,emotion,1.0,,,,1025.8823075999971,224,25,female,True
351,76.0,25,F,up,1.1001321999938227,1.2045394561927287,,experiment,emotion,1.0,,,,1028.182217499998,224,25,female,True
352,79.0,25,F,up,0.7255369999911636,1.5235789020000468,,experiment,emotion,1.0,,,,1031.098802499997,224,25,female,True
353,83.0,25,F,up,1.783963499998208,0.7340835168312949,,experiment,emotion,1.0,,,,1032.815371499979,224,25,female,True
354,79.0,25,F,down,0.9454159000015352,1.6928326769624569,,experiment,emotion,1.0,,,,1036.5819193999923,224,25,female,True
355,73.0,25,F,down,0.8621632999856956,0.8034537198516449,,experiment,emotion,1.0,,,,1038.6151731999998,224,25,female,True
356,76.0,25,M,down,0.921873199986294,1.7392239166014052,,experiment,emotion,1.0,,,,1041.4984140000015,224,25,female,True
357,73.0,25,M,down,0.8557547999953385,1.934216311966512,,experiment,emotion,1.0,,,,1044.6315936999745,224,25,female,True
358,83.0,25,M,down,0.9325025000143796,1.4763028680415733,,experiment,emotion,1.0,,,,1047.264842299977,224,25,female,True
359,73.0,25,M,down,0.8689779000123963,0.3173549027950821,,experiment,emotion,1.0,,,,1048.781465099979,224,25,female,True
360,79.0,25,F,up,1.259632800007239,1.402735893828218,,experiment,emotion,1.0,,,,1051.3646949999966,224,25,female,True
361,79.0,25,M,down,0.7740542000101414,0.5342363731994066,,experiment,emotion,1.0,,,,1053.4313062999863,224,25,female,True
362,76.0,25,M,up,1.482755700009875,0.7327390099461559,,experiment,emotion,1.0,,,,1055.2145648000003,224,25,female,True
363,76.0,25,F,down,1.1599312000034845,1.93459454854873,,experiment,emotion,1.0,,,,1058.9144058999957,224,25,female,True
364,73.0,25,M,down,1.085512000019662,1.5656689862766722,,experiment,emotion,1.0,,,,1061.930819399975,224,25,female,True
365,83.0,25,F,up,0.6691865999891888,1.7090455225379997,,experiment,emotion,1.0,,,,1065.0141789999907,224,25,female,True
366,79.0,25,F,down,0.6579519000079017,1.6192745339418713,,experiment,emotion,1.0,,,,1067.5973997999972,224,25,female,True
367,73.0,25,M,down,1.0473563999985345,1.8759446457962168,,experiment,emotion,1.0,,,,1070.4139760999824,224,25,female,True
368,83.0,25,M,down,1.9224503000150437,1.679495274897118,,experiment,emotion,1.0,,,,1073.4138805999828,224,25,female,True
369,83.0,25,F,up,0.6106107999803498,0.6173189745421799,,experiment,emotion,1.0,,,,1076.2307174000016,224,25,female,True
370,76.0,25,M,down,0.6576166999875568,0.7367427976984857,,experiment,emotion,1.0,,,,1077.863723699993,224,25,female,True
371,73.0,25,F,down,0.6413009999960195,0.7080507020736668,,experiment,emotion,1.0,,,,1079.4969913999955,224,25,female,True
372,76.0,25,F,down,0.7167373000120278,1.4591739480103971,,experiment,emotion,1.0,,,,1081.8635759999745,224,25,female,True
373,79.0,25,F,down,0.8721939999959432,1.0210088999258524,,experiment,emotion,1.0,,,,1083.8801716999733,224,25,female,True
374,73.0,25,M,down,0.722625499998685,1.974466119978884,,experiment,emotion,1.0,,,,1086.996702399978,224,25,female,True
375,83.0,25,M,up,0.9873923000122886,1.8819555308634803,,experiment,emotion,1.0,,,,1089.879935999983,224,25,female,True
376,79.0,25,M,down,0.5917855000006966,0.7497560191840191,,experiment,emotion,1.0,,,,1091.8965485999945,224,25,female,True
377,83.0,25,F,up,1.507839600002626,0.6038782976719874,,experiment,emotion,1.0,,,,1093.346485099988,224,25,female,True
378,73.0,25,F,down,0.7453103000007104,1.9353386971865043,,experiment,emotion,1.0,,,,1097.0630141999864,224,25,female,True
379,79.0,25,M,down,1.1886902000114787,1.1507463506793938,,experiment,emotion,1.0,,,,1099.2296385999944,224,25,female,True
380,76.0,25,F,down,1.3304456000041682,0.3484844365516922,,experiment,emotion,1.0,,,,1101.0628676999768,224,25,female,True
381,76.0,25,M,down,0.8079117999877781,1.2095222511955224,,experiment,emotion,1.0,,,,1103.879429499997,224,25,female,True
382,79.0,25,M,down,1.1196327999932691,1.0134845627191378,,experiment,emotion,1.0,,,,1105.9626816999807,224,25,female,True
383,83.0,25,M,up,1.3911088999884669,1.7055991889822983,,experiment,emotion,1.0,,,,1109.0792321999909,224,25,female,True
384,76.0,25,F,down,0.7518715999904089,1.3303160454179968,,experiment,emotion,1.0,,,,1112.0624758999911,224,25,female,True
385,73.0,25,F,down,0.815039799985243,0.3171306839008821,,experiment,emotion,1.0,,,,1113.4124269999738,224,25,female,True
386,73.0,25,M,down,0.7943335000018124,0.9865961683363552,,experiment,emotion,1.0,,,,1115.479000499996,224,25,female,True
387,76.0,25,F,down,0.7239040000131354,1.713039365277665,,experiment,emotion,1.0,,,,1118.2454540999895,224,25,female,True
388,83.0,25,F,down,1.0641637000080664,1.2174935195883558,,experiment,emotion,1.0,,,,1120.462165999983,224,25,female,True
389,79.0,25,M,down,0.9079923999961466,1.6407344458353328,,experiment,emotion,1.0,,,,1123.4953677999729,224,25,female,True
390,73.0,25,M,down,0.7401057999813929,0.8867049094940154,,experiment,emotion,1.0,,,,1125.545216300001,224,25,female,True
391,83.0,25,F,down,0.9731463000061922,0.7898346841972057,,experiment,emotion,1.0,,,,1127.345178699994,224,25,female,True
392,79.0,25,M,down,0.9659361999947578,1.8280500322647928,,experiment,emotion,1.0,,,,1130.4284297999984,224,25,female,True
393,79.0,25,F,down,0.9443014000135008,1.6803663511179996,,experiment,emotion,1.0,,,,1133.345008599979,224,25,female,True
394,73.0,25,F,up,1.0980800999968778,1.4303840755515675,,experiment,emotion,1.0,,,,1135.978241899982,224,25,female,True
395,76.0,25,F,down,0.6915555000014137,1.2874423714954022,,experiment,emotion,1.0,,,,1138.6447455000016,224,25,female,True
396,83.0,25,M,down,0.9719561000238172,1.5910611036825288,,experiment,emotion,1.0,,,,1141.2113902999845,224,25,female,True
397,76.0,25,M,down,1.084045600000536,1.502436429803171,,experiment,emotion,1.0,,,,1143.9612983999832,224,25,female,True
398,76.0,25,F,down,0.993138000019826,1.5550378240187748,,experiment,emotion,1.0,,,,1146.861180799984,224,25,female,True
399,76.0,25,F,down,0.8352068999956828,0.6893133351834662,,experiment,emotion,1.0,,,,1148.8111142999842,224,25,female,True
400,83.0,25,M,down,1.3790136000025086,1.6720730748407169,,experiment,emotion,1.0,,,,1151.594336899987,224,25,female,True
401,79.0,25,M,down,0.6274511000083294,1.4629886639741498,,experiment,emotion,1.0,,,,1154.710886899993,224,25,female,True
402,73.0,25,M,down,0.7978181000216864,0.4742095571373447,,experiment,emotion,1.0,,,,1156.077499499981,224,25,female,True
403,73.0,25,M,down,0.7648920999781694,1.2882328196578494,,experiment,emotion,1.0,,,,1158.427421499975,224,25,female,True
404,79.0,25,M,down,0.977290400012862,1.3235775855916452,,experiment,emotion,1.0,,,,1160.7940127999757,224,25,female,True
405,83.0,25,F,up,0.661721700016642,1.2111746061382018,,experiment,emotion,1.0,,,,1163.260569299979,224,25,female,True
406,83.0,25,F,up,1.0935055000009015,0.3451188589706737,,experiment,emotion,1.0,,,,1164.5438598999754,224,25,female,True
407,73.0,25,M,down,0.8489285999967251,1.7484384846818637,,experiment,emotion,1.0,,,,1167.6604143999866,224,25,female,True
408,83.0,25,F,down,0.7960904999927152,1.4427489428775917,,experiment,emotion,1.0,,,,1170.2102992,224,25,female,True
409,76.0,25,F,down,0.7294333000027109,1.396852568860306,,experiment,emotion,1.0,,,,1172.676882299973,224,25,female,True
410,79.0,25,F,down,0.9078600999782792,1.6983763417321365,,experiment,emotion,1.0,,,,1175.3934612999728,224,25,female,True
411,76.0,25,M,down,0.7693014999968,1.892696674589036,,experiment,emotion,1.0,,,,1178.4600149999897,224,25,female,True
412,73.0,25,F,down,1.0107629999984056,1.457494207525548,,experiment,emotion,1.0,,,,1180.9765851999982,224,25,female,True
413,79.0,25,F,up,0.971851999987848,1.4045255461985364,,experiment,emotion,1.0,,,,1183.676480299997,224,25,female,True
414,76.0,25,F,up,0.6839245999872219,0.8523995465695666,,experiment,emotion,1.0,,,,1185.7764083999791,224,25,female,True
415,79.0,25,M,down,1.559074300021166,1.2973805630110682,,experiment,emotion,1.0,,,,1188.0262667999775,224,25,female,True
416,73.0,25,M,down,0.8651344999962021,1.8151721557000449,,experiment,emotion,1.0,,,,1191.676185599994,224,25,female,True
417,83.0,25,F,up,0.8178770999948028,1.2794880288068038,,experiment,emotion,1.0,,,,1194.109436999977,224,25,female,True
418,79.0,25,M,down,1.2142635000054725,0.6714608019473929,,experiment,emotion,1.0,,,,1195.8760395999998,224,25,female,True
419,83.0,25,F,down,1.547510500007775,1.2616337836992106,,experiment,emotion,1.0,,,,1198.6258430999878,224,25,female,True
420,73.0,25,M,down,0.6617881999991369,0.4402870436309429,,experiment,emotion,1.0,,,,1200.8925205999983,224,25,female,True
421,76.0,25,M,down,0.9076338000013492,1.2694757187510557,,experiment,emotion,1.0,,,,1203.1256708999863,224,25,female,True
422,0.0620145962839128,25,up,down,1.7193923000013456,0.4262262162789291,,experiment,cRDM,1.0,,,,1272.2899003999771,224,25,female,True
423,0.0620145962839128,25,up,up,0.6168759999854956,0.9342115766710386,,experiment,cRDM,1.0,,,,1275.2064297999896,224,25,female,True
424,0.0620145962839128,25,down,down,0.6747619999805465,0.9453234428000252,,experiment,cRDM,1.0,,,,1277.0395429999917,224,25,female,True
425,0.0620145962839128,25,down,up,0.7963485999789555,0.8961614881122832,,experiment,cRDM,1.0,,,,1278.8729740999988,224,25,female,True
426,0.0620145962839128,25,up,up,0.7950865000020713,0.7736762994313818,,experiment,cRDM,1.0,,,,1280.7062370999774,224,25,female,True
427,0.0620145962839128,25,down,down,0.6905110999941826,1.5093701315402182,,experiment,cRDM,1.0,,,,1283.2728130999894,224,25,female,True
428,0.0620145962839128,25,up,down,0.6571456000092439,0.6217510382879562,,experiment,cRDM,1.0,,,,1284.8561275999818,224,25,female,True
429,0.0620145962839128,25,up,down,1.5930924999993294,0.8551222460093493,,experiment,cRDM,1.0,,,,1286.63921579998,224,25,female,True
430,0.0620145962839128,25,down,up,1.411391099973116,1.9721137795600585,,experiment,cRDM,1.0,,,,1290.455911500001,224,25,female,True
431,0.0620145962839128,25,down,up,1.52850829999079,0.720055319331349,,experiment,cRDM,1.0,,,,1292.8557968999958,224,25,female,True
432,0.0620145962839128,25,down,up,1.0629079999926034,0.9322701264754945,,experiment,cRDM,1.0,,,,1295.572383599996,224,25,female,True
433,0.0620145962839128,25,down,up,1.2027326000097671,1.848207943608934,,experiment,cRDM,1.0,,,,1298.7555708999862,224,25,female,True
434,0.0620145962839128,25,down,up,0.8873221999965608,1.7922379081495303,,experiment,cRDM,1.0,,,,1302.0219464999973,224,25,female,True
435,0.0620145962839128,25,down,down,1.1355897999892477,1.9745729862023316,,experiment,cRDM,1.0,,,,1305.1387086999894,224,25,female,True
436,0.0620145962839128,25,up,up,0.6935677000146825,1.1688523311368386,,experiment,cRDM,1.0,,,,1307.7217790999855,224,25,female,True
437,0.0620145962839128,25,up,up,1.1886081999982707,1.137468904003694,,experiment,cRDM,1.0,,,,1309.8217586999815,224,25,female,True
438,0.0620145962839128,25,up,up,1.6317563999909908,1.2399225808334224,,experiment,cRDM,1.0,,,,1312.5215252999917,224,25,female,True
439,0.0620145962839128,25,up,up,0.8106362999824341,1.4990251634874203,,experiment,cRDM,1.0,,,,1315.92163289999,224,25,female,True
440,0.0620145962839128,25,down,up,0.9214168999751564,0.3569895958146704,,experiment,cRDM,1.0,,,,1317.3548761999991,224,25,female,True
441,0.0620145962839128,25,up,up,0.8695023999898694,1.4145089011608605,,experiment,cRDM,1.0,,,,1319.9547871999966,224,25,female,True
442,0.0620145962839128,25,up,up,0.9722384000197052,1.9513869890364992,,experiment,cRDM,1.0,,,,1323.0380576999742,224,25,female,True
443,0.0620145962839128,25,down,up,0.8163933000178076,1.6209228664523698,,experiment,cRDM,1.0,,,,1325.887901499984,224,25,female,True
444,0.0620145962839128,25,up,up,0.7925028000026941,1.7285754574797214,,experiment,cRDM,1.0,,,,1328.6878127999953,224,25,female,True
445,0.0620145962839128,25,down,up,1.123232799989637,0.6362287185295108,,experiment,cRDM,1.0,,,,1330.3710813999933,224,25,female,True
446,0.0620145962839128,25,down,down,0.761297499993816,1.819593639173652,,experiment,cRDM,1.0,,,,1333.5709617999964,224,25,female,True
447,0.0620145962839128,25,up,up,0.6931474999873899,1.9007045999822327,,experiment,cRDM,1.0,,,,1336.5041648999904,224,25,female,True
448,0.0620145962839128,25,up,up,1.216827700001886,0.7790372031925433,,experiment,cRDM,1.0,,,,1338.237470599997,224,25,female,True
449,0.0620145962839128,25,down,up,1.0049370999913665,1.7146563893239974,,experiment,cRDM,1.0,,,,1341.4373614999931,224,25,female,True
450,0.0620145962839128,25,up,up,0.8780274000018835,1.3341136747509554,,experiment,cRDM,1.0,,,,1344.037262400001,224,25,female,True
451,0.0620145962839128,25,down,up,0.850739599991357,1.704212429793117,,experiment,cRDM,1.0,,,,1346.8704805999878,224,25,female,True
452,0.0620145962839128,25,down,up,0.9955298000131734,0.4744995732180456,,experiment,cRDM,1.0,,,,1348.4537488999777,224,25,female,True
453,0.0620145962839128,25,down,up,0.916954899992561,0.6146956826016259,,experiment,cRDM,1.0,,,,1350.3203179999837,224,25,female,True
454,0.0620145962839128,25,up,up,1.3363515000091866,1.3274006669754874,,experiment,cRDM,1.0,,,,1352.8369434999768,224,25,female,True
455,0.0620145962839128,25,up,up,1.8732621999806724,0.6744071934895037,,experiment,cRDM,1.0,,,,1355.1200263999926,224,25,female,True
456,0.0620145962839128,25,up,down,0.8305645000073127,1.8850656788863196,,experiment,cRDM,1.0,,,,1359.136720999988,224,25,female,True
457,0.0620145962839128,25,down,up,1.222450300003402,1.8022570764105128,,experiment,cRDM,1.0,,,,1362.0198685999785,224,25,female,True
458,0.0620145962839128,25,down,down,1.672796400001971,1.1035223507514111,,experiment,cRDM,1.0,,,,1364.5864972999843,224,25,female,True
459,0.0620145962839128,25,up,up,0.7385956000071019,1.0491267654817067,,experiment,cRDM,1.0,,,,1367.569699099986,224,25,female,True
460,0.0620145962839128,25,down,up,1.226002699986566,1.3704615160729916,,experiment,cRDM,1.0,,,,1369.9363096999878,224,25,female,True
461,0.0620145962839128,25,up,up,1.476782200013986,1.6508848457788512,,experiment,cRDM,1.0,,,,1373.0695026999747,224,25,female,True
462,0.0620145962839128,25,up,up,0.8652130000118632,1.886230258263187,,experiment,cRDM,1.0,,,,1376.68605639998,224,25,female,True
463,0.0620145962839128,25,up,down,0.750119000003906,0.3102234179932616,,experiment,cRDM,1.0,,,,1378.1191961999866,224,25,female,True
464,0.0620145962839128,25,down,up,0.8072258000029251,0.6923165111976919,,experiment,cRDM,1.0,,,,1379.819064499985,224,25,female,True
465,0.0620145962839128,25,down,up,1.061419300007401,0.6864432450884694,,experiment,cRDM,1.0,,,,1381.5858597999904,224,25,female,True
466,0.0620145962839128,25,up,up,0.939516199985519,0.3166479876456247,,experiment,cRDM,1.0,,,,1383.2358375999902,224,25,female,True
467,0.0620145962839128,25,down,up,1.0405597000208218,1.594913929786796,,experiment,cRDM,1.0,,,,1386.0357269999804,224,25,female,True
468,0.0620145962839128,25,down,up,0.7430177000060212,1.7201289882799264,,experiment,cRDM,1.0,,,,1389.052270299988,224,25,female,True
469,0.0620145962839128,25,up,up,0.7101194999995641,0.853935548136229,,experiment,cRDM,1.0,,,,1390.902164499974,224,25,female,True
470,0.0620145962839128,25,up,up,0.6737122999911662,1.72850146057575,,experiment,cRDM,1.0,,,,1393.618570599996,224,25,female,True
471,0.0620145962839128,25,down,up,0.789623999997275,1.2073882966383171,,experiment,cRDM,1.0,,,,1395.768674699997,224,25,female,True
472,0.0620145962839128,25,up,up,0.5950766000023577,1.7690679133616,,experiment,cRDM,1.0,,,,1398.5852345999738,224,25,female,True
473,0.0620145962839128,25,down,up,0.7898381999984849,1.2212651263998646,,experiment,cRDM,1.0,,,,1400.6684771,224,25,female,True
474,0.0620145962839128,25,down,up,0.6792205999954604,1.9798559864070215,,experiment,cRDM,1.0,,,,1403.685031799978,224,25,female,True
475,0.0620145962839128,25,down,up,1.0476108999864664,0.6225118925078734,,experiment,cRDM,1.0,,,,1405.2516502999931,224,25,female,True
476,0.0620145962839128,25,up,up,0.7623568999988493,1.4763045343886794,,experiment,cRDM,1.0,,,,1408.0349261999943,224,25,female,True
477,0.0620145962839128,25,up,up,0.7834747000015341,0.9259106228551748,,experiment,cRDM,1.0,,,,1409.9848054999893,224,25,female,True
478,0.0620145962839128,25,down,up,0.950901400006842,1.5376789682235248,,experiment,cRDM,1.0,,,,1412.5513987999875,224,25,female,True
479,0.0620145962839128,25,down,up,1.0306605999940075,0.4147628446120048,,experiment,cRDM,1.0,,,,1414.1846560999984,224,25,female,True
480,0.0620145962839128,25,up,up,0.7453855999920052,1.356443937985721,,experiment,cRDM,1.0,,,,1416.8178924999957,224,25,female,True
481,0.0620145962839128,25,up,up,0.7341289000178222,1.3148723175225532,,experiment,cRDM,1.0,,,,1419.1511560999788,224,25,female,True
482,0.0620145962839128,25,up,up,1.8998916000127792,0.8417492756386493,,experiment,cRDM,1.0,,,,1420.984426799987,224,25,female,True
483,0.0620145962839128,25,up,down,1.663657900004182,1.8540662619037125,,experiment,cRDM,1.0,,,,1425.0176147999882,224,25,female,True
484,0.0620145962839128,25,up,up,0.7878123999980744,1.4258605977921357,,experiment,cRDM,1.0,,,,1428.3674625999993,224,25,female,True
485,0.0620145962839128,25,down,down,0.6855628000048455,1.784790253795462,,experiment,cRDM,1.0,,,,1431.2007150999852,224,25,female,True
486,0.0620145962839128,25,down,up,1.08417049999116,0.659763713249448,,experiment,cRDM,1.0,,,,1432.8171082999909,224,25,female,True
487,0.0620145962839128,25,up,down,1.7207643000001551,1.5357646028972272,,experiment,cRDM,1.0,,,,1435.700505899993,224,25,female,True
488,0.0620145962839128,25,down,down,0.9321763000043576,1.089351575732432,,experiment,cRDM,1.0,,,,1438.767121199984,224,25,female,True
489,0.0620145962839128,25,down,up,0.6435927999846172,0.7219994925828359,,experiment,cRDM,1.0,,,,1440.6836882999924,224,25,female,True
490,0.0620145962839128,25,down,down,0.8617273999843746,1.7397885471166985,,experiment,cRDM,1.0,,,,1443.333589899994,224,25,female,True
491,0.0620145962839128,25,up,up,0.7117098000016995,0.370928877941113,,experiment,cRDM,1.0,,,,1444.8335632999951,224,25,female,True
492,0.0620145962839128,25,down,down,0.7008407000103034,0.6777069054724346,,experiment,cRDM,1.0,,,,1446.4834708999842,224,25,female,True
493,0.0620145962839128,25,down,up,1.8234699000022372,1.3845454809360718,,experiment,cRDM,1.0,,,,1448.8167905999871,224,25,female,True
494,0.0620145962839128,25,down,down,0.7839572000084445,0.6527135056465443,,experiment,cRDM,1.0,,,,1451.5333187999786,224,25,female,True
495,0.0620145962839128,25,up,up,0.8179023999837227,1.5525229318468416,,experiment,cRDM,1.0,,,,1454.1164067999923,224,25,female,True
496,0.0620145962839128,25,up,down,0.7545336000039242,1.109971160283402,,experiment,cRDM,1.0,,,,1456.2997486999957,224,25,female,True
497,0.0620145962839128,25,down,up,1.0026884999824688,1.5010631507416188,,experiment,cRDM,1.0,,,,1458.7995913999912,224,25,female,True
498,0.0620145962839128,25,up,up,0.8100240999774542,1.544701886875345,,experiment,cRDM,1.0,,,,1461.6162787999783,224,25,female,True
499,0.0620145962839128,25,down,down,0.761421800008975,0.6976325879899097,,experiment,cRDM,1.0,,,,1463.382851799979,224,25,female,True
500,0.0620145962839128,25,up,up,0.784513299993705,0.7891533791004307,,experiment,cRDM,1.0,,,,1465.182767199993,224,25,female,True
501,0.0620145962839128,25,up,down,0.7635673999902792,0.3056077191521415,,experiment,cRDM,1.0,,,,1466.532712699991,224,25,female,True
502,83.0,25,M,up,1.425667200004682,0.7779575854776763,,experiment,emotion,2.0,,,,1523.9306008999993,224,25,female,True
503,73.0,25,M,up,1.201466900005471,1.4150826438346178,,experiment,emotion,2.0,,,,1527.063802699995,224,25,female,True
504,79.0,25,F,down,0.6377903000102378,1.4092044612567394,,experiment,emotion,2.0,,,,1529.9637055999774,224,25,female,True
505,83.0,25,F,up,0.7539530000067316,0.7016167536366651,,experiment,emotion,2.0,,,,1531.5803108999971,224,25,female,True
506,79.0,25,M,up,0.8217045999772381,0.510717669743246,,experiment,emotion,2.0,,,,1533.1135186999743,224,25,female,True
507,76.0,25,F,down,0.853407500020694,1.427588454471571,,experiment,emotion,2.0,,,,1535.6468414999836,224,25,female,True
508,73.0,25,M,down,1.062614599999506,1.5288604279795956,,experiment,emotion,2.0,,,,1538.296723699983,224,25,female,True
509,76.0,25,M,down,0.7040184999932535,0.7781987988223666,,experiment,emotion,2.0,,,,1540.413244700001,224,25,female,True
510,83.0,25,F,up,0.7077213999873493,1.698436553681274,,experiment,emotion,2.0,,,,1543.0965442000015,224,25,female,True
511,76.0,25,F,down,1.1417807999823708,1.1801804890006828,,experiment,emotion,2.0,,,,1545.2464682999998,224,25,female,True
512,79.0,25,F,down,0.9875228000164498,0.4986987652571772,,experiment,emotion,2.0,,,,1547.1797440999944,224,25,female,True
513,83.0,25,F,down,0.894579599989811,1.048613214005443,,experiment,emotion,2.0,,,,1549.4796615999949,224,25,female,True
514,79.0,25,F,up,0.7703362999891397,1.017584785801553,,experiment,emotion,2.0,,,,1551.6629084999731,224,25,female,True
515,73.0,25,F,down,0.8587955000111833,1.4969815460181264,,experiment,emotion,2.0,,,,1554.2295005999913,224,25,female,True
516,76.0,25,M,down,1.044206499995198,1.1334551732059597,,experiment,emotion,2.0,,,,1556.4960519999731,224,25,female,True
517,73.0,25,M,up,0.8139519999967888,1.2752281729979598,,experiment,emotion,2.0,,,,1559.079296299984,224,25,female,True
518,83.0,25,M,up,0.6956849999842234,1.0980772458473906,,experiment,emotion,2.0,,,,1561.2625712000008,224,25,female,True
519,73.0,25,M,up,0.915454599977238,1.1638043833915133,,experiment,emotion,2.0,,,,1563.3957895999774,224,25,female,True
520,79.0,25,F,up,1.0112418000062462,1.4080027067948455,,experiment,emotion,2.0,,,,1565.979056399985,224,25,female,True
521,79.0,25,M,up,0.8586907999997493,1.3478406621797103,,experiment,emotion,2.0,,,,1568.5956170999852,224,25,female,True
522,76.0,25,M,up,0.8890897999808658,1.0459225440641151,,experiment,emotion,2.0,,,,1570.7622085999756,224,25,female,True
523,76.0,25,F,down,0.9753200999984984,0.5997312853201552,,experiment,emotion,2.0,,,,1572.5120030999824,224,25,female,True
524,73.0,25,M,down,0.6242566999862902,0.3543615913340187,,experiment,emotion,2.0,,,,1574.1120512999769,224,25,female,True
525,83.0,25,F,up,0.7279157000011764,1.4123029062296215,,experiment,emotion,2.0,,,,1576.4453218999845,224,25,female,True
526,79.0,25,F,down,0.8203348999959417,1.4076656442710922,,experiment,emotion,2.0,,,,1578.86190779999,224,25,female,True
527,73.0,25,M,down,0.7837966999795754,1.033912695181621,,experiment,emotion,2.0,,,,1580.9784896999772,224,25,female,True
528,83.0,25,M,down,0.8128205999964848,1.1875193703420066,,experiment,emotion,2.0,,,,1583.2284207999764,224,25,female,True
529,83.0,25,F,up,0.7043340000091121,0.8839587970784797,,experiment,emotion,2.0,,,,1585.19498629999,224,25,female,True
530,76.0,25,M,down,0.921008700010134,1.757771918647551,,experiment,emotion,2.0,,,,1587.928244199982,224,25,female,True
531,73.0,25,F,down,1.5451029000105336,1.0975077941696765,,experiment,emotion,2.0,,,,1590.2281546999875,224,25,female,True
532,76.0,25,F,up,0.9332116000005044,1.390801795349758,,experiment,emotion,2.0,,,,1593.4280530999822,224,25,female,True
533,79.0,25,F,down,0.7450167999777477,1.7181278887881102,,experiment,emotion,2.0,,,,1596.361259500001,224,25,female,True
534,73.0,25,M,down,1.042077899997821,1.4786490866086603,,experiment,emotion,2.0,,,,1598.861174199992,224,25,female,True
535,83.0,25,M,up,0.751164899993455,0.7698216144950727,,experiment,emotion,2.0,,,,1600.9610904,224,25,female,True
536,79.0,25,M,up,0.8703850000165403,1.3355919785172523,,experiment,emotion,2.0,,,,1603.3108659999853,224,25,female,True
537,83.0,25,F,down,1.16136070000357,1.710545921331059,,experiment,emotion,2.0,,,,1606.160891699983,224,25,female,True
538,73.0,25,F,up,0.8794485999969766,1.7738101001242392,,experiment,emotion,2.0,,,,1609.3607973999751,224,25,female,True
539,79.0,25,M,down,0.827597199997399,1.450195678605903,,experiment,emotion,2.0,,,,1611.960677199997,224,25,female,True
540,76.0,25,F,down,0.8082754999923054,0.3659915296623706,,experiment,emotion,2.0,,,,1613.4439694999892,224,25,female,True
541,76.0,25,M,down,1.0233466000063345,0.3181923927232655,,experiment,emotion,2.0,,,,1614.843900399981,224,25,female,True
542,79.0,25,M,up,0.7648012000136077,1.8322219202264616,,experiment,emotion,2.0,,,,1617.9604584999906,224,25,female,True
543,83.0,25,M,up,0.6494929000036791,0.3527619123475846,,experiment,emotion,2.0,,,,1619.3437632999849,224,25,female,True
544,76.0,25,F,down,1.1302207999979146,0.8708714173581649,,experiment,emotion,2.0,,,,1621.127031299984,224,25,female,True
545,73.0,25,F,down,1.061702899984084,0.958344614143142,,experiment,emotion,2.0,,,,1623.4935670999985,224,25,female,True
546,73.0,25,M,down,0.979091800021706,1.5409340262846565,,experiment,emotion,2.0,,,,1626.3601641999849,224,25,female,True
547,76.0,25,F,down,0.8904896999883931,0.7620611583065736,,experiment,emotion,2.0,,,,1628.3767537999956,224,25,female,True
548,83.0,25,F,up,0.8939113999949768,1.5040505311046766,,experiment,emotion,2.0,,,,1631.043326999992,224,25,female,True
549,79.0,25,M,up,1.166004900005646,0.4186622577200923,,experiment,emotion,2.0,,,,1632.6432484999823,224,25,female,True
550,73.0,25,M,down,0.6425960000196937,0.7211750618409892,,experiment,emotion,2.0,,,,1634.8096577999822,224,25,female,True
551,83.0,25,F,up,0.7358236000000034,1.9559513590382809,,experiment,emotion,2.0,,,,1637.6763974999776,224,25,female,True
552,79.0,25,M,up,1.2256195999798365,1.074058294857859,,experiment,emotion,2.0,,,,1639.7596627999735,224,25,female,True
553,79.0,25,F,down,0.8030278999940492,1.1208041666245836,,experiment,emotion,2.0,,,,1642.376247099979,224,25,female,True
554,73.0,25,F,down,0.7911210999882314,1.1336065747794069,,experiment,emotion,2.0,,,,1644.5761564999991,224,25,female,True
555,76.0,25,F,down,0.7856000000028871,1.998620176071237,,experiment,emotion,2.0,,,,1647.6427053999796,224,25,female,True
556,83.0,25,M,down,0.8256620999891311,1.7523403197894605,,experiment,emotion,2.0,,,,1650.4426016999932,224,25,female,True
557,76.0,25,M,down,0.9094359999871812,1.7430696383467776,,experiment,emotion,2.0,,,,1653.2758265999728,224,25,female,True
558,76.0,25,F,down,0.738887200015597,0.481812060295485,,experiment,emotion,2.0,,,,1654.9423558999842,224,25,female,True
559,76.0,25,F,down,0.7312066000013147,0.3184453161420995,,experiment,emotion,2.0,,,,1656.2590412999853,224,25,female,True
560,83.0,25,M,down,0.9622900999966078,1.3089472997761018,,experiment,emotion,2.0,,,,1658.5589555999904,224,25,female,True
561,79.0,25,M,up,0.8626654999970924,0.6299655661102816,,experiment,emotion,2.0,,,,1660.4255605999788,224,25,female,True
562,73.0,25,M,down,0.7744258000166155,1.647659584868627,,experiment,emotion,2.0,,,,1663.208791699988,224,25,female,True
563,73.0,25,M,down,0.686590299999807,1.504456205182728,,experiment,emotion,2.0,,,,1665.758694499993,224,25,female,True
564,79.0,25,M,up,1.0656920000037644,1.1404758334274858,,experiment,emotion,2.0,,,,1667.8586282999895,224,25,female,True
565,83.0,25,F,down,0.7684376999968663,1.3297409989147435,,experiment,emotion,2.0,,,,1670.5418492999745,224,25,female,True
566,83.0,25,F,up,0.8069102999870665,0.9287828723905056,,experiment,emotion,2.0,,,,1672.5083323,224,25,female,True
567,73.0,25,M,down,0.8125519999885,0.5996613178885185,,experiment,emotion,2.0,,,,1674.191696199996,224,25,female,True
568,83.0,25,F,down,0.799222000001464,0.5502439914996199,,experiment,emotion,2.0,,,,1675.8250056999968,224,25,female,True
569,76.0,25,F,down,0.9903175000217744,0.8082201562161933,,experiment,emotion,2.0,,,,1677.7249313999782,224,25,female,True
570,79.0,25,F,down,0.8279852999839932,0.4318758309387728,,experiment,emotion,2.0,,,,1679.408214199997,224,25,female,True
571,76.0,25,M,down,1.1044907000032254,1.1169372056725262,,experiment,emotion,2.0,,,,1681.6247791999776,224,25,female,True
572,73.0,25,F,down,1.2742217000050005,0.9126504783964766,,experiment,emotion,2.0,,,,1683.908028899983,224,25,female,True
573,79.0,25,F,up,1.142995100002736,0.7410956827225795,,experiment,emotion,2.0,,,,1686.191260099993,224,25,female,True
574,76.0,25,F,up,0.9446997999912128,0.3682991802557842,,experiment,emotion,2.0,,,,1687.9745371999743,224,25,female,True
575,79.0,25,M,up,1.1168237999954729,1.4376114448583577,,experiment,emotion,2.0,,,,1690.624443299981,224,25,female,True
576,73.0,25,M,up,1.7820249999931548,1.1168130747086082,,experiment,emotion,2.0,,,,1693.1243559999857,224,25,female,True
577,83.0,25,F,up,0.7825849000073504,1.6974696834045928,,experiment,emotion,2.0,,,,1696.8907222999842,224,25,female,True
578,79.0,25,M,up,1.6881146999949124,0.9860630678704364,,experiment,emotion,2.0,,,,1698.924153299973,224,25,female,True
579,83.0,25,F,down,0.9708532000076956,0.3390677559309781,,experiment,emotion,2.0,,,,1701.2073900999967,224,25,female,True
580,73.0,25,M,down,0.6272990000143182,1.9214344879844885,,experiment,emotion,2.0,,,,1704.3739199999836,224,25,female,True
581,76.0,25,M,up,1.3887507999897934,1.1179687187071574,,experiment,emotion,2.0,,,,1706.390478299989,224,25,female,True
582,0.0620145962839128,25,up,down,1.672145399992587,1.7793082128212667,,experiment,cRDM,2.0,,,,1746.3390909000009,224,25,female,True
583,0.0620145962839128,25,up,up,0.6594004000071436,1.7098662215427332,,experiment,cRDM,2.0,,,,1749.988813599979,224,25,female,True
584,0.0620145962839128,25,down,down,0.9610734999878332,1.7598884758762512,,experiment,cRDM,2.0,,,,1752.672165099997,224,25,female,True
585,0.0620145962839128,25,down,down,1.0118530000036117,0.7066545319915316,,experiment,cRDM,2.0,,,,1754.6053312000004,224,25,female,True
586,0.0620145962839128,25,up,up,1.019563400011975,1.4632761531502134,,experiment,cRDM,2.0,,,,1757.338665299991,224,25,female,True
587,0.0620145962839128,25,down,down,1.2013304000138303,1.35278972247982,,experiment,cRDM,2.0,,,,1759.9719054999878,224,25,female,True
588,0.0620145962839128,25,up,up,0.6924752999912016,0.8537376015967479,,experiment,cRDM,2.0,,,,1762.2717916999827,224,25,female,True
589,0.0620145962839128,25,up,up,0.6288232000079006,1.6193329572387354,,experiment,cRDM,2.0,,,,1764.8384080999822,224,25,female,True
590,0.0620145962839128,25,down,up,0.7031008999911137,1.8636366410228475,,experiment,cRDM,2.0,,,,1767.5880787999777,224,25,female,True
591,0.0620145962839128,25,down,down,0.7486765000212472,0.5178997501722533,,experiment,cRDM,2.0,,,,1769.0715325999772,224,25,female,True
592,0.0620145962839128,25,down,up,0.640746199991554,1.7427427104723543,,experiment,cRDM,2.0,,,,1771.8214761999843,224,25,female,True
593,0.0620145962839128,25,down,down,0.6798764000122901,1.1406072760948214,,experiment,cRDM,2.0,,,,1773.8713747999864,224,25,female,True
594,0.0620145962839128,25,down,up,0.5864421000005677,1.3852952285429572,,experiment,cRDM,2.0,,,,1776.1877864999988,224,25,female,True
595,0.0620145962839128,25,down,down,0.806998999993084,1.3027442513387475,,experiment,cRDM,2.0,,,,1778.3212517999928,224,25,female,True
596,0.0620145962839128,25,up,up,0.8544193000125233,1.2547341254750004,,experiment,cRDM,2.0,,,,1780.6378025999877,224,25,female,True
597,0.0620145962839128,25,up,up,0.8561488000268582,0.665504000633282,,experiment,cRDM,2.0,,,,1782.421080399974,224,25,female,True
598,0.0620145962839128,25,up,down,0.7051861000072677,0.3682713988292099,,experiment,cRDM,2.0,,,,1783.9210436999856,224,25,female,True
599,0.0620145962839128,25,up,down,0.8873266000009608,1.7828436189257515,,experiment,cRDM,2.0,,,,1786.670896700001,224,25,female,True
600,0.0620145962839128,25,down,up,0.6160273999848869,0.6230610088145137,,experiment,cRDM,2.0,,,,1788.4541937999893,224,25,female,True
601,0.0620145962839128,25,up,up,0.6641678999876603,1.968204573435252,,experiment,cRDM,2.0,,,,1791.3040824999916,224,25,female,True
602,0.0620145962839128,25,up,down,0.7400477000046521,0.5665898755699003,,experiment,cRDM,2.0,,,,1792.787195699988,224,25,female,True
603,0.0620145962839128,25,down,down,1.607610199978808,0.531537155558421,,experiment,cRDM,2.0,,,,1794.320614099997,224,25,female,True
604,0.0620145962839128,25,up,up,0.5983117000141647,1.554669082118083,,experiment,cRDM,2.0,,,,1797.7538529999729,224,25,female,True
605,0.0620145962839128,25,down,down,0.6951225999800954,1.629076890499011,,experiment,cRDM,2.0,,,,1800.2370883999974,224,25,female,True
606,0.0620145962839128,25,down,up,0.9633943999942858,1.1821587974778929,,experiment,cRDM,2.0,,,,1802.3868271999816,224,25,female,True
607,0.0620145962839128,25,up,up,1.1083343999926,1.629941237099794,,experiment,cRDM,2.0,,,,1805.236889199994,224,25,female,True
608,0.0620145962839128,25,up,up,0.727416199981235,1.617689885650906,,experiment,cRDM,2.0,,,,1808.236797699996,224,25,female,True
609,0.0620145962839128,25,down,up,0.8627939999860246,0.4210822142757917,,experiment,cRDM,2.0,,,,1809.6534241999907,224,25,female,True
610,0.0620145962839128,25,up,up,1.5305055000062566,1.3078131192202431,,experiment,cRDM,2.0,,,,1812.0866451999757,224,25,female,True
611,0.0620145962839128,25,down,down,0.6950298000010662,0.5654600229928379,,experiment,cRDM,2.0,,,,1814.4532108999847,224,25,female,True
612,0.0620145962839128,25,down,down,0.6762320999987423,0.3956769494115877,,experiment,cRDM,2.0,,,,1815.802990600001,224,25,female,True
613,0.0620145962839128,25,down,down,2.0774684000061825,0.9743826073893144,,experiment,cRDM,2.0,,,,1817.7197755999805,224,25,female,True
614,0.0620145962839128,25,up,up,0.762914200022351,0.9798943093576118,,experiment,cRDM,2.0,,,,1821.0363042999816,224,25,female,True
615,0.0620145962839128,25,up,up,1.7930032000003848,1.1770686078925472,,experiment,cRDM,2.0,,,,1823.2362198999908,224,25,female,True
616,0.0620145962839128,25,up,down,1.3494575999793597,1.6582598019784536,,experiment,cRDM,2.0,,,,1826.952761099994,224,25,female,True
617,0.0620145962839128,25,down,down,1.7283951000135858,1.0218034582547226,,experiment,cRDM,2.0,,,,1829.5858016999848,224,25,female,True
618,0.0620145962839128,25,down,down,0.7659961999743246,1.499332472598623,,experiment,cRDM,2.0,,,,1833.0692233000009,224,25,female,True
619,0.0620145962839128,25,up,down,1.2784466999873985,1.6283556424815395,,experiment,cRDM,2.0,,,,1835.7357734999969,224,25,female,True
620,0.0620145962839128,25,down,down,0.7635073999990709,0.3141706573986432,,experiment,cRDM,2.0,,,,1837.58570169998,224,25,female,True
621,0.0620145962839128,25,up,up,0.6102758000197355,1.050496897929939,,experiment,cRDM,2.0,,,,1839.6689481999783,224,25,female,True
622,0.0620145962839128,25,up,up,0.8636911999783479,1.2559383311153611,,experiment,cRDM,2.0,,,,1841.785519099998,224,25,female,True
623,0.0620145962839128,25,up,up,0.6481583999993745,1.088316567785223,,experiment,cRDM,2.0,,,,1844.002045000001,224,25,female,True
624,0.0620145962839128,25,down,down,0.5879007000185084,1.8724498488398176,,experiment,cRDM,2.0,,,,1846.78534469998,224,25,female,True
625,0.0620145962839128,25,down,up,0.637716500001261,0.9356217134800796,,experiment,cRDM,2.0,,,,1848.568613499985,224,25,female,True
626,0.0620145962839128,25,up,down,0.6402940000116359,0.4828499268598125,,experiment,cRDM,2.0,,,,1849.951921699976,224,25,female,True
627,0.0620145962839128,25,down,up,0.6067064000235405,0.316146551107195,,experiment,cRDM,2.0,,,,1851.168511700001,224,25,female,True
628,0.0620145962839128,25,down,down,1.2711326999997254,1.4934729432202374,,experiment,cRDM,2.0,,,,1853.5351098999963,224,25,female,True
629,0.0620145962839128,25,up,up,0.6285843999939971,1.891019190719288,,experiment,cRDM,2.0,,,,1856.951637099992,224,25,female,True
630,0.0620145962839128,25,up,down,0.5219050000014249,1.1762618065824646,,experiment,cRDM,2.0,,,,1859.018308699975,224,25,female,True
631,0.0620145962839128,25,down,up,1.2720202000054996,0.513215386327534,,experiment,cRDM,2.0,,,,1860.3182322999928,224,25,female,True
632,0.0620145962839128,25,up,up,1.2908991999865975,0.9415777592174543,,experiment,cRDM,2.0,,,,1862.80132139998,224,25,female,True
633,0.0620145962839128,25,down,up,0.5848997999855783,1.3936825483453563,,experiment,cRDM,2.0,,,,1865.7513128999851,224,25,female,True
634,0.0620145962839128,25,down,down,0.7062115999870002,1.60801259927287,,experiment,cRDM,2.0,,,,1868.201014899998,224,25,female,True
635,0.0620145962839128,25,down,down,0.7963850000232924,1.8604005919076263,,experiment,cRDM,2.0,,,,1871.0178272999765,224,25,female,True
636,0.0620145962839128,25,up,up,1.1942271000007167,1.787300537311982,,experiment,cRDM,2.0,,,,1873.851029099984,224,25,female,True
637,0.0620145962839128,25,up,down,0.6286265000235289,0.8234445218138895,,experiment,cRDM,2.0,,,,1876.1176158000017,224,25,female,True
638,0.0620145962839128,25,down,down,0.7263827999995556,1.3558236796749004,,experiment,cRDM,2.0,,,,1878.350854699995,224,25,female,True
639,0.0620145962839128,25,down,down,0.5725290000264067,1.4605867990825614,,experiment,cRDM,2.0,,,,1880.800716799975,224,25,female,True
640,0.0620145962839128,25,up,down,0.6355503000086173,1.8194565428555316,,experiment,cRDM,2.0,,,,1883.4506619999884,224,25,female,True
641,0.0620145962839128,25,up,down,1.0089118000178132,1.965801621097516,,experiment,cRDM,2.0,,,,1886.317292599997,224,25,female,True
642,0.0620145962839128,25,up,up,0.7584168000030331,1.5391120495830604,,experiment,cRDM,2.0,,,,1889.133823399985,224,25,female,True
643,0.0620145962839128,25,up,down,1.1374981999979354,0.6325272183992997,,experiment,cRDM,2.0,,,,1890.783711199998,224,25,female,True
644,0.0620145962839128,25,up,up,0.6432232999941334,1.6621944886479898,,experiment,cRDM,2.0,,,,1893.8669894999769,224,25,female,True
645,0.0620145962839128,25,down,down,0.5632721000001766,0.3951026130976074,,experiment,cRDM,2.0,,,,1895.1669145999767,224,25,female,True
646,0.0620145962839128,25,down,down,0.5423643999965861,0.6821644785519435,,experiment,cRDM,2.0,,,,1896.666844899999,224,25,female,True
647,0.0620145962839128,25,up,down,0.6204441000008956,1.346175052668175,,experiment,cRDM,2.0,,,,1898.816793099977,224,25,female,True
648,0.0620145962839128,25,down,down,0.923858800000744,1.545355312709245,,experiment,cRDM,2.0,,,,1901.2333576999956,224,25,female,True
649,0.0620145962839128,25,down,down,0.6462625999993179,0.8284917841882509,,experiment,cRDM,2.0,,,,1903.2499409999875,224,25,female,True
650,0.0620145962839128,25,down,down,1.2326419999881182,1.202330762437688,,experiment,cRDM,2.0,,,,1905.3665319999852,224,25,female,True
651,0.0620145962839128,25,up,down,0.6821556999930181,1.8662242405631595,,experiment,cRDM,2.0,,,,1908.7330665999907,224,25,female,True
652,0.0620145962839128,25,down,down,0.6265836999809835,1.559142038653874,,experiment,cRDM,2.0,,,,1911.2496328999987,224,25,female,True
653,0.0620145962839128,25,down,down,0.6883620000153314,1.347758985884199,,experiment,cRDM,2.0,,,,1913.4828784999845,224,25,female,True
654,0.0620145962839128,25,down,down,0.6537474000069778,0.7286913273026692,,experiment,cRDM,2.0,,,,1915.1494613999969,224,25,female,True
655,0.0620145962839128,25,up,down,0.7280956000031438,0.6905012182350587,,experiment,cRDM,2.0,,,,1916.766113699996,224,25,female,True
656,0.0620145962839128,25,up,down,0.5851421000261325,0.7613385227369082,,experiment,cRDM,2.0,,,,1918.5160848999803,224,25,female,True
657,0.0620145962839128,25,down,down,0.6726270999934059,1.8338411488530613,,experiment,cRDM,2.0,,,,1921.182583999995,224,25,female,True
658,0.0620145962839128,25,up,down,0.7119928000029176,1.016665690409338,,experiment,cRDM,2.0,,,,1923.149211699987,224,25,female,True
659,0.0620145962839128,25,down,down,0.6464201000053436,1.1382187254609637,,experiment,cRDM,2.0,,,,1925.2657813999976,224,25,female,True
660,0.0620145962839128,25,up,down,0.6538963000057265,0.7480134379574545,,experiment,cRDM,2.0,,,,1926.9324079999933,224,25,female,True
661,0.0620145962839128,25,up,down,0.5909000000101514,1.4908139334352928,,experiment,cRDM,2.0,,,,1929.3323275999865,224,25,female,True
662,83.0,25,M,up,1.549578299978748,1.3008005332169748,,experiment,emotion,3.0,,,,1956.8646233999752,224,25,female,True
663,73.0,25,M,down,0.6199940000078641,0.3265169110245656,,experiment,emotion,3.0,,,,1959.0312054999813,224,25,female,True
664,79.0,25,F,up,0.5100380000076257,0.3885336064863309,,experiment,emotion,3.0,,,,1960.3311578999856,224,25,female,True
665,83.0,25,F,down,0.6684414000192191,1.53637843441058,,experiment,emotion,3.0,,,,1962.6477471999824,224,25,female,True
666,79.0,25,M,up,0.5418829999980517,0.4851134643069749,,experiment,emotion,3.0,,,,1964.0643353999767,224,25,female,True
667,76.0,25,F,up,1.0448875000001865,1.3596002766549966,,experiment,emotion,3.0,,,,1966.264277099981,224,25,female,True
668,73.0,25,M,down,1.1556967000069562,1.56696016681578,,experiment,emotion,3.0,,,,1969.1475078999936,224,25,female,True
669,76.0,25,M,down,0.984117799991509,0.5820400089178834,,experiment,emotion,3.0,,,,1971.1640971999727,224,25,female,True
670,83.0,25,F,down,0.7271926999965217,1.4865782641162657,,experiment,emotion,3.0,,,,1973.9140083999955,224,25,female,True
671,76.0,25,F,down,0.9249534000118728,1.1287359106810648,,experiment,emotion,3.0,,,,1976.047251799988,224,25,female,True
672,79.0,25,F,down,1.1510739999939688,0.4555607215294683,,experiment,emotion,3.0,,,,1977.6971283999735,224,25,female,True
673,83.0,25,F,up,1.4771617999940645,1.97914479413194,,experiment,emotion,3.0,,,,1981.0970335999737,224,25,female,True
674,79.0,25,F,down,1.056371799990302,0.857282405824149,,experiment,emotion,3.0,,,,1983.6968247999905,224,25,female,True
675,73.0,25,F,down,0.6484523999970406,0.6671851433249038,,experiment,emotion,3.0,,,,1985.6967397999836,224,25,female,True
676,76.0,25,M,up,1.1457246999780182,0.9827472415364664,,experiment,emotion,3.0,,,,1987.6134988999984,224,25,female,True
677,73.0,25,M,up,1.4448499999998603,0.6846859027267379,,experiment,emotion,3.0,,,,1989.7134073999769,224,25,female,True
678,83.0,25,M,down,0.8205446999927517,1.7279558653299016,,experiment,emotion,3.0,,,,1993.1466215999967,224,25,female,True
679,73.0,25,M,down,0.7150018000102136,1.1705049585731075,,experiment,emotion,3.0,,,,1995.4132054999936,224,25,female,True
680,79.0,25,F,down,0.7973935999907553,0.5182184316884545,,experiment,emotion,3.0,,,,1996.9298004999876,224,25,female,True
681,79.0,25,M,down,1.0394693999842275,1.5307938308162772,,experiment,emotion,3.0,,,,1999.5297170999984,224,25,female,True
682,76.0,25,M,up,1.3710667999985162,1.9597554039627565,,experiment,emotion,3.0,,,,2002.7961991999764,224,25,female,True
683,76.0,25,F,up,0.8012099999759812,1.3657459676551056,,experiment,emotion,3.0,,,,2005.7959925999749,224,25,female,True
684,73.0,25,M,down,1.096855299983872,1.7114529454369982,,experiment,emotion,3.0,,,,2008.5793624999933,224,25,female,True
685,83.0,25,F,down,0.6732254999806173,0.6988655802254964,,experiment,emotion,3.0,,,,2010.645968500001,224,25,female,True
686,79.0,25,F,down,0.6020613000146113,0.8897089199812458,,experiment,emotion,3.0,,,,2012.479158799979,224,25,female,True
687,73.0,25,M,down,0.7951912999851629,1.8341499155905037,,experiment,emotion,3.0,,,,2015.179019299976,224,25,female,True
688,83.0,25,M,down,0.7973846000095364,1.5342822600068535,,experiment,emotion,3.0,,,,2017.778810799995,224,25,female,True
689,83.0,25,F,down,0.9868332000041846,0.8996380450461066,,experiment,emotion,3.0,,,,2019.762296299974,224,25,female,True
690,76.0,25,M,down,0.6603084999951534,1.1844392639468504,,experiment,emotion,3.0,,,,2022.2288889999909,224,25,female,True
691,73.0,25,F,down,1.1651518999715336,1.1607214263975107,,experiment,emotion,3.0,,,,2024.312129799975,224,25,female,True
692,76.0,25,F,down,0.7681215000047814,0.453294037610774,,experiment,emotion,3.0,,,,2026.212068599998,224,25,female,True
693,79.0,25,F,up,0.7028226999973413,0.5760830015620132,,experiment,emotion,3.0,,,,2027.845370999974,224,25,female,True
694,73.0,25,M,down,1.0323182000138331,0.9517429635071324,,experiment,emotion,3.0,,,,2029.761908399989,224,25,female,True
695,83.0,25,M,down,1.0620036000036637,1.4190271844854945,,experiment,emotion,3.0,,,,2032.495172099996,224,25,female,True
696,79.0,25,M,down,0.6881161000055727,1.6242807139614792,,experiment,emotion,3.0,,,,2035.445064699976,224,25,female,True
697,83.0,25,F,up,0.8909302999963984,0.6717626686412157,,experiment,emotion,3.0,,,,2037.078260699985,224,25,female,True
698,73.0,25,F,down,0.7622877999965567,1.2924354554717368,,experiment,emotion,3.0,,,,2039.544904099981,224,25,female,True
699,79.0,25,M,up,0.7730432999960613,0.3539895033811222,,experiment,emotion,3.0,,,,2040.9281851999983,224,25,female,True
700,76.0,25,F,down,0.7794021000154316,1.0146252186432705,,experiment,emotion,3.0,,,,2042.994777099986,224,25,female,True
701,76.0,25,M,down,0.7288257000036538,0.4185034795137475,,experiment,emotion,3.0,,,,2044.4613658000017,224,25,female,True
702,79.0,25,M,up,1.006572000012966,1.6798043814122618,,experiment,emotion,3.0,,,,2047.1446240999796,224,25,female,True
703,83.0,25,M,down,0.8523455999966245,1.897046385678316,,experiment,emotion,3.0,,,,2050.327850000001,224,25,female,True
704,76.0,25,F,up,1.3240412999875844,0.3061410704477564,,experiment,emotion,3.0,,,,2051.7611072,224,25,female,True
705,73.0,25,F,down,0.762209200009238,1.5947621925160105,,experiment,emotion,3.0,,,,2054.9609824999934,224,25,female,True
706,73.0,25,M,down,0.8965861999895424,0.7347261805482348,,experiment,emotion,3.0,,,,2056.727605399996,224,25,female,True
707,76.0,25,F,down,0.9402758999785874,0.5194336709932693,,experiment,emotion,3.0,,,,2058.410887099977,224,25,female,True
708,83.0,25,F,up,0.9777697999961674,1.9098083298949204,,experiment,emotion,3.0,,,,2061.5274206999748,224,25,female,True
709,79.0,25,M,up,1.0088694999867585,1.4411478535489284,,experiment,emotion,3.0,,,,2064.227304,224,25,female,True
710,73.0,25,M,down,0.9303027999994812,1.7448171891194757,,experiment,emotion,3.0,,,,2067.243882399984,224,25,female,True
711,83.0,25,F,up,0.7608423000201583,1.770455176195564,,experiment,emotion,3.0,,,,2070.210430499981,224,25,female,True
712,79.0,25,M,down,1.0342443000117785,0.6432608150039184,,experiment,emotion,3.0,,,,2071.876938899979,224,25,female,True
713,79.0,25,F,down,1.013523300003726,0.3578917334819517,,experiment,emotion,3.0,,,,2073.5436434999865,224,25,female,True
714,73.0,25,F,down,1.2996343999984674,1.664550416062606,,experiment,emotion,3.0,,,,2076.493547799997,224,25,female,True
715,76.0,25,F,down,0.8177326000004541,1.1166475404577132,,experiment,emotion,3.0,,,,2079.1934436999727,224,25,female,True
716,83.0,25,M,up,0.6884677000052761,0.6457653719809566,,experiment,emotion,3.0,,,,2080.9267138,224,25,female,True
717,76.0,25,M,up,0.8408651999779977,0.9062676207918628,,experiment,emotion,3.0,,,,2082.793312999973,224,25,female,True
718,76.0,25,F,up,0.7972671999887098,0.7178997187087927,,experiment,emotion,3.0,,,,2084.6099185999774,224,25,female,True
719,76.0,25,F,up,0.879015700018499,1.605917564903581,,experiment,emotion,3.0,,,,2087.293161199981,224,25,female,True
720,83.0,25,M,up,0.6960782999813091,0.7590755159114593,,experiment,emotion,3.0,,,,2089.193073799979,224,25,female,True
721,79.0,25,M,up,0.9561864999996031,0.8718226673908585,,experiment,emotion,3.0,,,,2091.0430010999844,224,25,female,True
722,73.0,25,M,up,0.8196272000204772,1.369889210776963,,experiment,emotion,3.0,,,,2093.659549999982,224,25,female,True
723,73.0,25,M,down,0.7173706000030506,1.8400391210783231,,experiment,emotion,3.0,,,,2096.5927980999986,224,25,female,True
724,79.0,25,M,up,0.7601698000216857,1.1398827041854178,,experiment,emotion,3.0,,,,2098.7260441999824,224,25,female,True
725,83.0,25,F,down,0.8496594000025652,1.8396553161607616,,experiment,emotion,3.0,,,,2101.5926108999997,224,25,female,True
726,83.0,25,F,down,0.7184186000085901,0.5707856837696592,,experiment,emotion,3.0,,,,2103.2757583999773,224,25,female,True
727,73.0,25,M,down,0.6584428999922238,0.8208196508504852,,experiment,emotion,3.0,,,,2105.075783999986,224,25,female,True
728,83.0,25,F,down,0.6497616000124253,1.1909086253667056,,experiment,emotion,3.0,,,,2107.192416599981,224,25,female,True
729,76.0,25,F,up,1.1191835000063293,1.3398405621661515,,experiment,emotion,3.0,,,,2109.4589663999795,224,25,female,True
730,79.0,25,F,up,0.9683122000133152,1.8459513998826376,,experiment,emotion,3.0,,,,2112.708871899988,224,25,female,True
731,76.0,25,M,up,1.176064299972495,0.5077037763527981,,experiment,emotion,3.0,,,,2114.442140799976,224,25,female,True
732,73.0,25,F,down,0.8108934999909252,1.871548639919427,,experiment,emotion,3.0,,,,2117.775289399986,224,25,female,True
733,79.0,25,F,down,0.8795970999926794,1.0505913081172704,,experiment,emotion,3.0,,,,2119.908583499986,224,25,female,True
734,76.0,25,F,down,1.024654399981955,0.711480027261738,,experiment,emotion,3.0,,,,2121.7585238999745,224,25,female,True
735,79.0,25,M,up,0.7107085000025108,0.5947902015098889,,experiment,emotion,3.0,,,,2123.6584439,224,25,female,True
