,stimLvl,stimTime,rand,response,rt,precedingITI,trialNumber,trialType,stimuli,block,estIntens,estThres,estSlope,trialStart,subject,age,gender,headRest
0,150.0,100,F,,,1.1201692539349632,,introTrial,emotion,,,,,402.6273287999993,1011,33,female,True
1,0.9,100,down,,,1.8439488267450013,,introTrial,cRDM,,,,,408.4104454999997,1011,33,female,True
2,0.9,25,down,,,1.2825230268736807,,tutorial,cRDM,,,,,449.9922757999993,1011,33,female,True
3,0.9,25,up,,,1.3964724720610928,,tutorial,cRDM,,,,,454.0754702999993,1011,33,female,True
4,0.9,25,up,,,0.9459679945320356,,tutorial,cRDM,,,,,457.7086331999999,1011,33,female,True
5,0.9,25,down,down,0.8008884999999282,0.7633170249908168,,tutorial,cRDM,,,,,461.1918210999993,1011,33,female,True
6,0.9,25,up,up,0.648650500000258,0.34561684455442,,tutorial,cRDM,,,,,462.6251250999994,1011,33,female,True
7,0.9,25,up,up,0.6698483000000124,0.4378033614964896,,tutorial,cRDM,,,,,463.9917731999994,1011,33,female,True
8,0.9,25,up,up,0.6181209000005765,1.717010045652464,,tutorial,cRDM,,,,,466.6415465999999,1011,33,female,True
9,0.9,25,down,down,0.6113959000003888,1.3188133763972412,,tutorial,cRDM,,,,,468.8582573999993,1011,33,female,True
10,0.9,25,down,up,0.5722110000006069,1.2159386767310896,,tutorial,cRDM,,,,,470.9414779999997,1011,33,female,True
11,0.9,25,down,down,0.6089031000001341,0.7339649765295218,,tutorial,cRDM,,,,,472.5247677999996,1011,33,female,True
12,200.0,25,M,,,1.944739703909223,,tutorial,emotion,,,,,480.5911361999997,1011,33,female,True
13,200.0,25,M,up,1.15776089999963,1.7084076868623637,,tutorial,emotion,,,,,484.9909934999996,1011,33,female,True
14,200.0,25,F,up,1.2299207999994906,1.614950327334545,,tutorial,emotion,,,,,488.0407596999994,1011,33,female,True
15,0.0,25,F,up,1.6165544000004957,0.3593113027893349,,tutorial,emotion,,,,,489.9241327999998,1011,33,female,True
16,0.0,25,M,down,1.216969600000084,0.9419880062788766,,tutorial,emotion,,,,,492.7906831,1011,33,female,True
17,200.0,25,F,up,0.7827767999997377,0.5683920466839631,,tutorial,emotion,,,,,494.8739394999993,1011,33,female,True
18,0.0,25,M,down,0.4464920999998867,0.3683618432996846,,tutorial,emotion,,,,,496.30723039999975,1011,33,female,True
19,200.0,25,M,up,0.5427743000000191,0.345944217401529,,tutorial,emotion,,,,,497.3739034,1011,33,female,True
20,0.0,25,F,down,0.2501716000006126,0.6035981603471152,,tutorial,emotion,,,,,498.7904693,1011,33,female,True
21,0.0,25,F,up,0.5436347000004389,1.150552272757963,,tutorial,emotion,,,,,500.6570499999998,1011,33,female,True
22,0.29,25,up,down,0.6754457000006369,0.6025842704145741,,psi_staircase_training,cRDM,,0.25,0.2569312402994632,0.105,504.6902697999994,1011,33,female,True
23,0.39,25,up,up,0.4621476000002076,0.8949649253858576,,psi_staircase_training,cRDM,,0.3546095744690496,0.3616109212953642,0.1060620300265678,506.52351349999935,1011,33,female,True
24,0.38,25,down,down,0.4175346000001809,0.7758571494688533,,psi_staircase_training,cRDM,,0.3357987849034938,0.3429317268363466,0.1080555384881884,508.0401038999999,1011,33,female,True
25,0.35,25,down,down,0.6259866999998849,1.2774174458943066,,psi_staircase_training,cRDM,,0.3178220825339425,0.3249720550198983,0.1083135309972574,510.0067232000001,1011,33,female,True
26,0.34,25,up,up,0.5427647000005891,1.631298970115033,,psi_staircase_training,cRDM,,0.2987461380195291,0.3059673319859477,0.1093924512374306,512.5399428999999,1011,33,female,True
27,0.33,25,down,down,0.2838576000003741,1.47577708392984,,psi_staircase_training,cRDM,,0.280506144113461,0.287744293960811,0.1096493125524172,514.8232117999996,1011,33,female,True
28,0.28,25,up,up,0.4884640000000217,0.7670772799932926,,psi_staircase_training,cRDM,,0.2631708811203834,0.270405956671748,0.1096027406454384,516.2732056999994,1011,33,female,True
29,0.28,25,down,down,0.5089428000001135,1.1658070033812322,,psi_staircase_training,cRDM,,0.2406343605712441,0.2483363748915043,0.1166763044833327,518.1897558999999,1011,33,female,True
30,0.27,25,down,up,0.5446568999996089,1.2481171143774683,,psi_staircase_training,cRDM,,0.2188476723625075,0.226847789634261,0.1211922076340611,520.2230105999997,1011,33,female,True
31,0.34,25,up,down,0.6510969999999361,1.6953227208021142,,psi_staircase_training,cRDM,,0.2893546145267101,0.2968091902398178,0.1129279055491584,522.7396494999994,1011,33,female,True
32,0.39,25,down,up,0.3672151999999187,0.9368799854935012,,psi_staircase_training,cRDM,,0.3412854332540779,0.3496090836090115,0.1260933468625675,524.6061829999999,1011,33,female,True
33,0.43,25,down,down,0.3671479999993607,0.8620540486264487,,psi_staircase_training,cRDM,,0.3866660217217212,0.3954615441678606,0.1332416446326584,526.1728104999993,1011,33,female,True
34,0.43,25,down,down,0.416818499999863,1.2406894065164178,,psi_staircase_training,cRDM,,0.3768527289731254,0.385757147036229,0.1348912829783558,528.1060437999995,1011,33,female,True
35,0.41,25,up,down,0.3838415999998688,1.3385189442526586,,psi_staircase_training,cRDM,,0.3678724866998962,0.3767799037115968,0.1349367134625219,530.1392988999996,1011,33,female,True
36,0.45,25,up,up,0.56722979999995,0.4469813200049365,,psi_staircase_training,cRDM,,0.4024420192749161,0.4111867931525103,0.1324728645201479,531.2726143,1011,33,female,True
37,0.45,25,down,down,0.44248079999943,0.6138674780786695,,psi_staircase_training,cRDM,,0.3957558586136839,0.4044693134572951,0.1319984186163668,532.7392031999998,1011,33,female,True
38,0.45,25,down,up,0.4522288999996817,1.963358590948077,,psi_staircase_training,cRDM,,0.389756784248159,0.3983567219996409,0.1302787704497174,535.4224694999994,1011,33,female,True
39,0.45,25,up,down,0.5097493999992366,1.89929992937857,,psi_staircase_training,cRDM,,0.4151829406036055,0.4246152225625141,0.142887789615676,538.0559718999993,1011,33,female,True
40,0.47,25,up,up,0.845365899999706,1.374241741494975,,psi_staircase_training,cRDM,,0.4365677156503185,0.4455697121310409,0.1363694792906039,540.2222871999993,1011,33,female,True
41,0.44,25,up,down,0.4624543999998423,1.1283893703993164,,psi_staircase_training,cRDM,,0.4317213830279106,0.4408655471129434,0.1385231484475874,542.4722229999998,1011,33,female,True
42,0.48,25,up,up,0.5940121000003273,1.7274264108975028,,psi_staircase_training,cRDM,,0.4475196472267614,0.4556853335562097,0.123700380819067,544.9387243000001,1011,33,female,True
43,0.48,25,down,down,0.5596654999999373,1.0416012206340912,,psi_staircase_training,cRDM,,0.4443781713501522,0.4524850895458599,0.1228101138861432,546.8390180999995,1011,33,female,True
44,0.49,25,down,down,0.5276496999995288,0.9627622053987202,,psi_staircase_training,cRDM,,0.4415762453985453,0.4495455259896068,0.1207250688056866,548.6390022999994,1011,33,female,True
45,0.49,25,down,down,0.5181807999997545,1.5960947616598302,,psi_staircase_training,cRDM,,0.4397643975071541,0.4474410477014071,0.1162920683126488,551.0384950999996,1011,33,female,True
46,0.49,25,up,up,0.6162199999998847,0.9426503025101544,,psi_staircase_training,cRDM,,0.4382341810731536,0.4455854352074429,0.111362707214198,552.7884864999996,1011,33,female,True
47,0.49,25,up,down,0.4902941000000282,1.856887323151715,,psi_staircase_training,cRDM,,0.4369961312880017,0.4439967446450525,0.1060509188445339,555.5383784999995,1011,33,female,True
48,0.44,25,down,down,0.5913838999995278,1.084878030820073,,psi_staircase_training,cRDM,,0.442831846414818,0.4521137810860279,0.1406102080391742,557.3883127999998,1011,33,female,True
49,0.44,25,down,down,0.5704108999998425,0.7786424603603552,,psi_staircase_training,cRDM,,0.4382633427164785,0.4479096326319923,0.1461297541808476,559.0382879999997,1011,33,female,True
50,0.44,25,up,up,0.6808678999996118,0.9176376144546424,,psi_staircase_training,cRDM,,0.4337073434730774,0.443635388118819,0.1503980013336995,560.8048621999997,1011,33,female,True
51,0.44,25,up,down,0.5965753999998924,1.4751443071828003,,psi_staircase_training,cRDM,,0.4291695818633512,0.4393118461128576,0.1536431721001847,563.2380837999999,1011,33,female,True
52,100.0,25,M,up,1.4767416000004232,1.017144851030581,,psi_staircase_training,emotion,,100.0,100.0,25.00050000000001,567.6879371999994,1011,33,female,True
53,55.0,25,M,down,0.9775020000006408,0.5533893207644756,,psi_staircase_training,emotion,,54.7428094675419,54.7428094675419,25.00050000000011,570.0711978999998,1011,33,female,True
54,79.0,25,F,down,1.330940300000293,1.015277702291288,,psi_staircase_training,emotion,,79.636070985635,79.636070985635,25.713269254886413,572.4377477999997,1011,33,female,True
55,103.0,25,F,up,0.3168071000000054,0.5401690175711229,,psi_staircase_training,emotion,,97.61123893914808,97.61123893914808,26.1463337262867,574.6543574999996,1011,33,female,True
56,87.0,25,M,down,0.6335613999999623,1.0182879720831883,,psi_staircase_training,emotion,,85.98876744579668,85.98876744579668,23.003056417783498,576.4381040999997,1011,33,female,True
57,95.0,25,F,down,0.5898550000001705,0.9440272609841528,,psi_staircase_training,emotion,,95.05640406123077,95.05640406123077,22.150603223582728,578.3708939999997,1011,33,female,True
58,108.0,25,M,down,0.9162397000000057,1.0817109383588648,,psi_staircase_training,emotion,,102.67895770092096,102.67895770092096,23.933073614491192,580.3874734000001,1011,33,female,True
59,126.0,25,F,down,0.4753810000001977,1.9968066581976935,,psi_staircase_training,emotion,,113.52218870526065,113.52218870526065,31.611106717665084,583.6873446,1011,33,female,True
60,141.0,25,F,up,0.5347215000001597,1.676195652583518,,psi_staircase_training,emotion,,125.91882333331542,125.91882333331542,36.39663949116166,586.2039255,1011,33,female,True
61,136.0,25,M,up,0.4168975999991744,1.1989446626768718,,psi_staircase_training,emotion,,119.53557470947138,119.53557470947138,35.07334609210929,588.3038422,1011,33,female,True
62,133.0,25,F,up,0.300194399999782,0.951072609214451,,psi_staircase_training,emotion,,114.9817527128816,114.9817527128816,33.731033492664444,590.0371010999997,1011,33,female,True
63,131.0,25,F,up,0.3334921999994549,0.495280492791784,,psi_staircase_training,emotion,,111.50079323252343,111.50079323252343,32.500590880750536,591.3037353,1011,33,female,True
64,87.0,25,F,up,0.3834950999998909,1.164703697442071,,psi_staircase_training,emotion,,108.75731285184438,108.75731285184438,31.37340943875356,593.2369850999994,1011,33,female,True
65,79.0,25,M,down,0.8144338000001881,1.863635682236025,,psi_staircase_training,emotion,,102.10294117608689,102.10294117608689,34.7908542558678,595.8702334999998,1011,33,female,True
66,127.0,25,M,up,0.8435299000002487,0.7802387336457461,,psi_staircase_training,emotion,,104.38186571631586,104.38186571631586,33.87607429716758,597.8201781999996,1011,33,female,True
67,78.0,25,F,down,0.5755435999999463,0.8940640267584827,,psi_staircase_training,emotion,,102.36651695237292,102.36651695237292,33.00641149063258,599.9201155999999,1011,33,female,True
68,128.0,25,F,up,1.627010400000472,1.2352619954665651,,psi_staircase_training,emotion,,104.1520482480679,104.1520482480679,32.02454078919961,602.0866750999994,1011,33,female,True
69,78.0,25,M,down,0.4197869999998147,0.4080423593668847,,psi_staircase_training,emotion,,102.56614023262632,102.56614023262632,31.0842319127825,604.4699221000001,1011,33,female,True
70,128.0,25,M,down,1.9437557000001109,0.6950610407138637,,psi_staircase_training,emotion,,104.0140446209615,104.0140446209615,30.06378742363801,605.9198754999998,1011,33,female,True
71,136.0,25,M,down,0.7479598999998416,1.0911460945616784,,psi_staircase_training,emotion,,108.73060080650484,108.73060080650484,33.6127726029594,609.3197338,1011,33,female,True
72,141.0,25,M,down,0.8530440000004091,0.3045680284721429,,psi_staircase_training,emotion,,113.49092767238268,113.49092767238268,36.59708290995653,610.7196747999997,1011,33,female,True
73,145.0,25,F,up,0.5078118999999788,1.284125466074943,,psi_staircase_training,emotion,,118.15513761584526,118.15513761584526,38.8259107778131,613.2029299999995,1011,33,female,True
74,144.0,25,F,up,1.1388782999993057,1.8840947743160124,,psi_staircase_training,emotion,,116.64056258166418,116.64056258166418,38.26794745044332,615.9528424,1011,33,female,True
75,88.0,25,F,down,0.7246718000005785,0.3986199865977701,,psi_staircase_training,emotion,,115.27250743641744,115.27250743641744,37.72236852420678,617.8530280999994,1011,33,female,True
76,146.0,25,M,up,0.6600265999995827,0.5120596087372492,,psi_staircase_training,emotion,,116.53467078244424,116.53467078244424,37.19156401103491,619.4526575999998,1011,33,female,True
77,86.0,25,M,down,0.6571709999998347,1.3769187536156502,,psi_staircase_training,emotion,,115.39109494750346,115.39109494750346,36.607267804472194,621.8525503999999,1011,33,female,True
78,147.0,25,F,up,0.3501765999999406,1.0054353068375583,,psi_staircase_training,emotion,,116.44564829011264,116.44564829011264,36.03512500795995,623.8858739999996,1011,33,female,True
79,85.0,25,F,up,0.3334297999999762,1.578740700933228,,psi_staircase_training,emotion,,115.46357981690032,115.46357981690032,35.421511949109856,626.2191184999992,1011,33,female,True
80,82.0,25,M,down,0.6654851000002964,1.7733568774625452,,psi_staircase_training,emotion,,111.87049322874212,111.87049322874212,37.804816961969244,628.7521975999998,1011,33,female,True
81,144.0,25,M,up,0.6151464000004125,0.8767598987236982,,psi_staircase_training,emotion,,112.85991299634392,112.85991299634392,37.30410493073754,630.6356169999999,1011,33,female,True
82,0.29,25,up,up,0.955195200000162,1.4734878284716868,,psi_staircase,cRDM,,0.25,0.2569312402994632,0.105,652.6014916999993,1011,33,female,True
83,0.25,25,up,down,0.7145808000004763,1.0435481986248962,,psi_staircase,cRDM,,0.2191026665318312,0.2260132002683492,0.1046863203387393,654.8680805999993,1011,33,female,True
84,0.36,25,down,down,0.6757045000003927,1.4673415891843258,,psi_staircase,cRDM,,0.3202997408361979,0.3276103223604739,0.1107465658214764,657.3179765999994,1011,33,female,True
85,0.33,25,down,down,0.482204200000524,1.2977779122817334,,psi_staircase,cRDM,,0.2990372097977385,0.3064139828071687,0.1117492876491608,659.5514862,1011,33,female,True
86,0.31,25,up,down,0.5961940999995932,0.3215628033240157,,psi_staircase,cRDM,,0.2780189805609542,0.2853981109641391,0.1117849993448387,660.6345156999996,1011,33,female,True
87,0.38,25,down,down,0.5479291000001467,0.8175322722900418,,psi_staircase,cRDM,,0.3480112713744075,0.3555759797870763,0.1145962842165103,662.3177803999997,1011,33,female,True
88,0.37,25,up,down,0.4002574999994976,0.3873915064895287,,psi_staircase,cRDM,,0.3327511290223292,0.3403144375400541,0.1145750774825414,663.5177515999994,1011,33,female,True
89,0.43,25,down,down,0.5669265000005907,0.7700897503366401,,psi_staircase,cRDM,,0.386307916878549,0.394269256285154,0.1206047693597151,664.9676965999997,1011,33,female,True
90,0.41,25,down,down,0.4871315999998842,1.612212882070568,,psi_staircase,cRDM,,0.375599898957802,0.3836234278680186,0.1215468659538436,667.4176134999998,1011,33,female,True
91,0.41,25,up,down,0.5129206999999951,1.2843692598026466,,psi_staircase,cRDM,,0.3645310416234744,0.3726028441867513,0.1222781540570323,669.4507565999993,1011,33,female,True
92,0.45,25,down,down,0.4888541000000259,0.7725628559505753,,psi_staircase,cRDM,,0.4042212598284525,0.4125490383107019,0.1261558830537009,671.0008007999995,1011,33,female,True
93,0.45,25,down,down,0.4952587999996467,1.1779502781854303,,psi_staircase,cRDM,,0.3966710000540083,0.4050087578401405,0.1263070575711646,672.9174071999996,1011,33,female,True
94,0.44,25,down,down,0.3172834000006332,0.6394719359911658,,psi_staircase,cRDM,,0.3898834755795967,0.3981348059069884,0.1249977849481318,674.3173501000001,1011,33,female,True
95,0.4,25,up,down,0.3671988000005513,0.4836287380918199,,psi_staircase,cRDM,,0.3830871372977213,0.3912433857498167,0.123557408265925,675.4839794,1011,33,female,True
96,0.45,25,up,down,0.4687161000001651,1.121941110606698,,psi_staircase,cRDM,,0.4103729079489392,0.4175311025755914,0.1084380865942108,677.2839410999995,1011,33,female,True
97,0.47,25,down,down,0.6227712999998403,0.7725496160051506,,psi_staircase,cRDM,,0.4307256817131865,0.4392067705399674,0.1284783513970733,678.7838913999994,1011,33,female,True
98,0.47,25,down,down,0.618263599999409,1.9293999694713404,,psi_staircase,cRDM,,0.4261035911626512,0.4345519114271844,0.1279819468738768,681.6004426999998,1011,33,female,True
99,0.47,25,up,up,0.677335000000312,0.9279680620039223,,psi_staircase,cRDM,,0.4218686887172721,0.4302074756392334,0.1263226477480135,683.4003684999998,1011,33,female,True
100,0.44,25,up,up,0.6561147000002165,0.9007720531097184,,psi_staircase,cRDM,,0.4180150470854282,0.4261837956904267,0.12374677063083,685.2335988999994,1011,33,female,True
101,0.44,25,up,down,0.8044505999996545,1.1894802148603254,,psi_staircase,cRDM,,0.4121703745526179,0.4204802669422767,0.1258849301447165,687.3502350999997,1011,33,female,True
102,0.48,25,up,up,0.5652694000000338,0.7330005927656964,,psi_staircase,cRDM,,0.4308176198982195,0.4389674634795412,0.1234603821346435,689.1503890999993,1011,33,female,True
103,0.48,25,down,down,0.5683486999996603,1.9537587617031464,,psi_staircase,cRDM,,0.4282231479043657,0.4361203103748999,0.1196325655410184,691.9333618000001,1011,33,female,True
104,0.48,25,down,down,0.6144790999996985,1.5509915579669051,,psi_staircase,cRDM,,0.4259498279485113,0.4335587267163542,0.1152657152408022,694.3166154,1011,33,female,True
105,0.48,25,down,up,0.5272118999992017,0.615283317858001,,psi_staircase,cRDM,,0.4240082218931599,0.4313013014811234,0.1104814324206112,695.8165633999997,1011,33,female,True
106,0.49,25,up,down,0.4857603000000381,0.9482352353683068,,psi_staircase,cRDM,,0.4335298194407376,0.4428185910739841,0.1407137798362594,697.5499432999995,1011,33,female,True
107,0.47,25,up,up,0.5572731000002022,1.31874875527102,,psi_staircase,cRDM,,0.4453457172113348,0.4552833838762956,0.1505437634158608,699.6164343999999,1011,33,female,True
108,0.47,25,down,down,0.4933361999992485,0.4679764256517751,,psi_staircase,cRDM,,0.4420918009073611,0.4521039693485293,0.1516723762129669,700.9163675,1011,33,female,True
109,0.47,25,down,down,0.6423964000005071,1.845370143202882,,psi_staircase,cRDM,,0.4388487061612203,0.4489035813335709,0.1523193321083621,703.5162858999993,1011,33,female,True
110,0.48,25,up,up,0.5644405000002735,0.3979634089696087,,psi_staircase,cRDM,,0.4356032060144582,0.4456758632682842,0.1525887093733611,704.8162470999996,1011,33,female,True
111,0.48,25,up,down,0.5538599000001341,0.6028003150800283,,psi_staircase,cRDM,,0.432578867653886,0.4426210726970095,0.1521273948054614,706.2328526000001,1011,33,female,True
112,0.5700000000000001,25,down,down,0.6746321000000535,1.6692634171258005,,psi_staircase,cRDM,,0.4443590274004709,0.45457471423411,0.1547554364281923,708.7160856,1011,33,female,True
113,0.46,25,up,up,0.6443767999999181,1.3471706674097943,,psi_staircase,cRDM,,0.443105723728161,0.4532113632899373,0.1530883518882869,710.9993415999998,1011,33,female,True
114,0.56,25,down,down,0.3671002999999473,1.0871354932139043,,psi_staircase,cRDM,,0.4399652158544925,0.450139052207437,0.1541214517035143,712.9826012999993,1011,33,female,True
115,0.46,25,up,up,0.4744957000002614,1.920179753606799,,psi_staircase,cRDM,,0.4385345723215428,0.4486045164542276,0.1525476088332691,715.5991876999997,1011,33,female,True
116,0.47,25,down,down,0.2838749000002281,1.8158869732001577,,psi_staircase,cRDM,,0.4353032809412637,0.4454251505794491,0.1533342181329025,718.1490226999995,1011,33,female,True
117,0.54,25,up,up,0.5146359999998822,0.4626260024822989,,psi_staircase,cRDM,,0.4322254447284946,0.442361494938065,0.15354903682784,719.2990663999999,1011,33,female,True
118,0.47,25,down,down,0.3337922000000617,1.0069236742551548,,psi_staircase,cRDM,,0.4304309432150746,0.4404750196873846,0.1521557447191983,721.0989820999994,1011,33,female,True
119,0.47,25,up,up,0.3171619000004284,1.428993856023935,,psi_staircase,cRDM,,0.4273094820097249,0.4373568115252703,0.1522050244332112,723.1989170999996,1011,33,female,True
120,0.48,25,up,down,0.3171784999994997,0.5939344088088327,,psi_staircase,cRDM,,0.4241883650726692,0.4342289977052802,0.1521035746669744,724.4655181999997,1011,33,female,True
121,0.58,25,down,down,0.5872732999996515,1.7180751611029392,,psi_staircase,cRDM,,0.436173266897412,0.4463516885072561,0.1541909128610633,726.8654493999993,1011,33,female,True
122,0.5700000000000001,25,down,down,0.7543857000000571,1.5999565683729562,,psi_staircase,cRDM,,0.4350262158704688,0.4451048797156098,0.1526797020472301,729.3153373999994,1011,33,female,True
123,0.5700000000000001,25,down,down,0.6113733000001957,1.4344857717395871,,psi_staircase,cRDM,,0.4337866071646227,0.4437678134672624,0.1512033368484314,731.7652940999997,1011,33,female,True
124,0.46,25,up,up,0.6521515999993426,0.5641222986020717,,psi_staircase,cRDM,,0.4325704635315331,0.4424549761128752,0.1497385426272534,733.1985285999999,1011,33,female,True
125,0.46,25,up,down,0.5145320000001448,1.9493332920666848,,psi_staircase,cRDM,,0.4294679251668787,0.4393919004758641,0.1503363557492237,736.0651526000001,1011,33,female,True
126,0.58,25,down,up,0.6210100999996939,0.8952306062291724,,psi_staircase,cRDM,,0.4399653745898673,0.4497908501563218,0.148844202466565,737.7316738999998,1011,33,female,True
127,0.62,25,down,down,0.5493207999998049,0.9819454094150286,,psi_staircase,cRDM,,0.4481040899327011,0.4587854961295378,0.1618105277283052,739.5983103999997,1011,33,female,True
128,0.61,25,down,down,0.8838498999994044,1.966720310893135,,psi_staircase,cRDM,,0.4474283406574278,0.4580141142003477,0.1603618074087927,742.3648524999999,1011,33,female,True
129,0.61,25,up,up,0.5812774000005447,1.8717462188176248,,psi_staircase,cRDM,,0.4466993322708776,0.4571883320813104,0.1588958011137955,745.3814122999993,1011,33,female,True
130,0.61,25,up,up,0.5486865999992006,1.0591905777840012,,psi_staircase,cRDM,,0.4459873733259428,0.4563796665909657,0.1574308126226548,747.2980066,1011,33,female,True
131,0.61,25,up,up,0.7335017000004882,1.9351613122261453,,psi_staircase,cRDM,,0.4452930346166174,0.4555888953213886,0.1559699746789463,750.0481896000001,1011,33,female,True
132,100.0,25,M,down,0.9747916000005716,0.4878276572010525,,psi_staircase,emotion,,100.0,100.0,25.00050000000001,758.7809146999998,1011,33,female,True
133,145.0,25,M,up,0.5188382999995156,0.3657470858555547,,psi_staircase,emotion,,145.25719053245996,145.25719053245996,25.00050000000028,760.4808691999997,1011,33,female,True
134,121.0,25,F,up,0.5427903999998307,0.6526265765428776,,psi_staircase,emotion,,120.36392901436103,120.36392901436103,25.71326925488699,761.9974647999998,1011,33,female,True
135,97.0,25,F,down,0.60031650000019,1.1106653347762856,,psi_staircase,emotion,,102.3887610608496,102.3887610608496,26.14633372628729,763.9974034999996,1011,33,female,True
136,113.0,25,M,down,0.7221603000007235,1.000319804867665,,psi_staircase,emotion,,114.01123255420406,114.01123255420406,23.00305641778335,765.9475892,1011,33,female,True
137,127.0,25,F,up,0.5954532999994626,0.4671506638173838,,psi_staircase,emotion,,123.15505271238727,123.15505271238727,23.86267166612523,767.4972711,1011,33,female,True
138,117.0,25,M,down,0.3170970000001034,0.8542881306345971,,psi_staircase,emotion,,116.72664759921038,116.72664759921038,20.612160618334432,769.3138730999999,1011,33,female,True
139,128.0,25,F,up,0.5418534999998883,1.228503727750378,,psi_staircase,emotion,,122.23098691439831,122.23098691439831,20.832163948572948,771.3137944999999,1011,33,female,True
140,113.0,25,F,down,0.4263103000002957,0.8849740785934741,,psi_staircase,emotion,,118.62736425730574,118.62736425730574,17.52430219955878,773.0804026999995,1011,33,female,True
141,124.0,25,M,up,0.3835604000005332,0.9541475072405496,,psi_staircase,emotion,,120.91210012930686,120.91210012930686,14.786658830345468,774.8136786999994,1011,33,female,True
142,119.0,25,F,down,0.5141045000000304,0.7308489082089398,,psi_staircase,emotion,,118.71347309422406,118.71347309422406,11.783902417745557,776.3136064999999,1011,33,female,True
143,124.0,25,F,up,0.6901555000004009,0.6528613728405144,,psi_staircase,emotion,,120.9205929819224,120.9205929819224,11.771359803201811,777.8135542,1011,33,female,True
144,118.0,25,F,down,0.7938426999999137,1.5807795440484966,,psi_staircase,emotion,,119.6003032335427,119.6003032335427,9.104620476868291,780.4468153999997,1011,33,female,True
145,122.0,25,M,down,0.5029351999992286,1.1436468980346228,,psi_staircase,emotion,,120.60067425105018,120.60067425105018,7.120605335927788,782.7300369999994,1011,33,female,True
146,129.0,25,M,down,0.6244446999999127,1.125654275028288,,psi_staircase,emotion,,122.68391181803275,122.68391181803275,11.910250558793164,784.7132791999993,1011,33,female,True
147,140.0,25,F,up,0.5801283999999214,1.1037302261289166,,psi_staircase,emotion,,126.88504799218454,126.88504799218454,22.15358007625799,786.7965561000001,1011,33,female,True
148,139.0,25,F,up,0.620505900000353,0.4872359178803584,,psi_staircase,emotion,,125.1254710542364,125.1254710542364,19.51327679010844,788.2131620999999,1011,33,female,True
149,137.0,25,M,up,0.6199308000004748,1.594083999511822,,psi_staircase,emotion,,123.93592998322733,123.93592998322733,17.250057915104808,790.7797479999999,1011,33,female,True
150,110.0,25,M,up,0.5120286999999735,0.8704291460978404,,psi_staircase,emotion,,123.10285561381804,123.10285561381804,15.309840113084755,792.6296661999995,1011,33,female,True
151,100.0,25,M,up,0.7017335999998977,0.863542745440907,,psi_staircase,emotion,,120.35833167088091,120.35833167088091,23.453318415519416,794.3629523,1011,33,female,True
152,91.0,25,M,down,0.9164113999995608,0.773726349270182,,psi_staircase,emotion,,116.49918035652334,116.49918035652334,30.86714550068701,796.1962536000001,1011,33,female,True
153,92.0,25,F,down,0.6112770999998247,1.821217427474182,,psi_staircase,emotion,,117.61391731628947,117.61391731628947,29.578038170799385,799.2794335999997,1011,33,female,True
154,92.0,25,F,down,0.5847604999999021,1.8512182819682563,,psi_staircase,emotion,,118.54247404078386,118.54247404078386,28.339457818547796,802.0960036999995,1011,33,female,True
155,145.0,25,F,up,0.8364541999999346,1.198738920426283,,psi_staircase,emotion,,119.28874419522796,119.28874419522796,27.175396869402743,804.2292345999995,1011,33,female,True
156,94.0,25,M,up,0.6397817000006398,1.653857425461538,,psi_staircase,emotion,,118.5686845568036,118.5686845568036,25.97997526945828,807.0791673999993,1011,33,female,True
157,86.0,25,M,down,0.5923179000001255,0.8672185763893918,,psi_staircase,emotion,,115.4261799023478,115.4261799023478,31.55784840520742,808.9624051999999,1011,33,female,True
158,87.0,25,F,down,0.5303327999999965,0.3629539596119406,,psi_staircase,emotion,,116.19225084387648,116.19225084387648,30.60601997371179,810.2623622000001,1011,33,female,True
159,146.0,25,F,down,0.4511417000003348,1.393886312200969,,psi_staircase,emotion,,116.8614392003231,116.8614392003231,29.685243424836383,812.5456176999996,1011,33,female,True
160,152.0,25,M,up,0.3835059000002729,1.4141809362998552,,psi_staircase,emotion,,120.11216027780038,120.11216027780038,34.431358938112226,814.7621972999996,1011,33,female,True
161,151.0,25,M,up,0.5472890000000916,1.4215055713609706,,psi_staircase,emotion,,119.33876755879808,119.33876755879808,33.65905910465201,816.9454292,1011,33,female,True
162,151.0,25,F,up,0.5683357999996588,1.5623297814185275,,psi_staircase,emotion,,118.64078318419254,118.64078318419254,32.89921648509698,819.3953549999997,1011,33,female,True
163,86.0,25,M,down,0.6204191000006176,1.6009279887375425,,psi_staircase,emotion,,118.03137547005866,118.03137547005866,32.16400314666474,821.8952761,1011,33,female,True
164,150.0,25,F,down,0.3667532999998002,0.6769510620452035,,psi_staircase,emotion,,118.63466728603096,118.63466728603096,31.401058143444875,823.5452878999995,1011,33,female,True
165,155.0,25,M,down,0.6321986000002653,1.6699418084329545,,psi_staircase,emotion,,121.4415596817525,121.4415596817525,35.195935933054166,825.9784918999994,1011,33,female,True
166,158.0,25,F,up,0.8979664999997112,1.004718526905101,,psi_staircase,emotion,,124.38302524381064,124.38302524381064,38.1163775115598,828.0117138999994,1011,33,female,True
167,158.0,25,M,up,0.6907867999998416,1.3962357045628022,,psi_staircase,emotion,,123.6671526764495,123.6671526764495,37.60812885586356,830.6449514999995,1011,33,female,True
168,88.0,25,F,down,0.4428170000001046,1.252251964885237,,psi_staircase,emotion,,123.01451371266306,123.01451371266306,37.10420163105256,832.9448748999994,1011,33,female,True
169,159.0,25,M,down,0.745918999999958,1.8455918389775536,,psi_staircase,emotion,,123.61943777286494,123.61943777286494,36.59686271432902,835.5947800999993,1011,33,female,True
170,161.0,25,M,up,0.6829752000003282,0.3872783338382983,,psi_staircase,emotion,,126.35633722082471,126.35633722082471,39.07141071204737,837.0947253999993,1011,33,female,True
171,161.0,25,F,down,0.3668219000001045,0.8710524646848317,,psi_staircase,emotion,,125.70213267630136,125.70213267630136,38.64138885847936,838.9946466000001,1011,33,female,True
172,162.0,25,F,up,0.3500656000005619,1.0226937572315995,,psi_staircase,emotion,,128.31698929489806,128.31698929489806,40.49403837994851,840.7945746999994,1011,33,female,True
173,162.0,25,F,down,0.5398680999996941,1.0816771670831755,,psi_staircase,emotion,,127.64085155524263,127.64085155524263,40.13833855194584,842.6278254999997,1011,33,female,True
174,162.0,25,M,up,1.0479873000003863,1.877134682649676,,psi_staircase,emotion,,130.1157350165667,130.1157350165667,41.5356159817501,845.3777399999999,1011,33,female,True
175,162.0,25,M,up,0.6284527000007074,0.4783051367915466,,psi_staircase,emotion,,129.4131329024858,129.4131329024858,41.23559473980463,847.2442689999998,1011,33,female,True
176,95.0,25,F,down,0.6380958999998256,0.951471916894612,,psi_staircase,emotion,,128.7530738676523,128.7530738676523,40.93426432743525,849.1776004999992,1011,33,female,True
177,164.0,25,F,down,0.5238349000001108,0.7262677857684308,,psi_staircase,emotion,,129.38017642921233,129.38017642921233,40.61570879062239,850.9108611000001,1011,33,female,True
178,164.0,25,F,up,1.311587199999849,0.9751921986276576,,psi_staircase,emotion,,131.66488618972917,131.66488618972917,41.86709776568858,852.7441589999999,1011,33,female,True
179,98.0,25,M,down,0.5419421000005968,0.3422078546663377,,psi_staircase,emotion,,131.01916236144473,131.01916236144473,41.59377480484204,854.7607502999999,1011,33,female,True
180,166.0,25,M,up,0.613394299999527,0.6471625746085381,,psi_staircase,emotion,,131.63091497083866,131.63091497083866,41.31671326060666,856.3273358999995,1011,33,female,True
181,97.0,25,M,down,0.4894722999997611,0.8039305125849074,,psi_staircase,emotion,,131.05335945496054,131.05335945496054,41.02541776436577,858.1272739999995,1011,33,female,True
182,0.4446167627696291,25,down,down,0.8346680000004199,1.0252780839682776,,experiment,cRDM,0.0,,,,864.0770483999995,1011,33,female,True
183,0.4446167627696291,25,up,up,0.5777348999999958,1.300927408842829,,experiment,cRDM,0.0,,,,866.4769769999994,1011,33,female,True
184,0.4446167627696291,25,down,down,0.7171823000007862,0.3735231550012979,,experiment,cRDM,0.0,,,,867.6935807999998,1011,33,female,True
185,0.4446167627696291,25,up,up,0.9019170000001396,1.910172540016997,,experiment,cRDM,0.0,,,,870.5768185999996,1011,33,female,True
186,0.4446167627696291,25,down,down,0.5304313999995429,1.9039343314651545,,experiment,cRDM,0.0,,,,873.6432940999994,1011,33,female,True
187,0.4446167627696291,25,down,down,0.6384856999993644,1.5986243754858631,,experiment,cRDM,0.0,,,,876.0432286999994,1011,33,female,True
188,0.4446167627696291,25,up,up,0.7382434999999532,0.5885245139495485,,experiment,cRDM,0.0,,,,877.5264480999995,1011,33,female,True
189,0.4446167627696291,25,down,down,0.5172900000006848,0.3898481163716968,,experiment,cRDM,0.0,,,,878.9264014999999,1011,33,female,True
190,0.4446167627696291,25,up,up,0.6072585000001709,1.2817584982686403,,experiment,cRDM,0.0,,,,880.9764492999993,1011,33,female,True
191,0.4446167627696291,25,up,down,0.3838457000001654,0.4942974100181735,,experiment,cRDM,0.0,,,,882.3263592999992,1011,33,female,True
192,0.4446167627696291,25,down,down,0.6063389000000825,1.316202028465458,,experiment,cRDM,0.0,,,,884.3263515999997,1011,33,female,True
193,0.4446167627696291,25,up,up,0.5367912000001525,1.6421071675692482,,experiment,cRDM,0.0,,,,886.8429267000001,1011,33,female,True
194,0.4446167627696291,25,up,down,0.3837786000003689,1.687477905227743,,experiment,cRDM,0.0,,,,889.3261742999994,1011,33,female,True
195,0.4446167627696291,25,up,down,0.9983976000003169,1.6078101158911235,,experiment,cRDM,0.0,,,,891.6093731999999,1011,33,female,True
196,0.4446167627696291,25,down,down,0.7183757000002515,0.6430014325077409,,experiment,cRDM,0.0,,,,893.5093163000001,1011,33,female,True
197,0.4446167627696291,25,down,down,0.6468557000007422,0.631411897519337,,experiment,cRDM,0.0,,,,895.1258737999997,1011,33,female,True
198,0.4446167627696291,25,up,up,0.5849037000007229,0.6851579543259223,,experiment,cRDM,0.0,,,,896.7258449999999,1011,33,female,True
199,0.4446167627696291,25,up,down,0.5762435000006008,1.1308818920311037,,experiment,cRDM,0.0,,,,898.6924527000001,1011,33,female,True
200,0.4446167627696291,25,down,up,0.8459897999991881,0.8710010119587053,,experiment,cRDM,0.0,,,,900.4257050999995,1011,33,female,True
201,0.4446167627696291,25,down,down,0.6967557000007218,1.4915889540469054,,experiment,cRDM,0.0,,,,903.0089611999992,1011,33,female,True
202,0.4446167627696291,25,up,down,0.7021546000005401,1.6428220729267595,,experiment,cRDM,0.0,,,,905.6255232999991,1011,33,female,True
203,0.4446167627696291,25,down,down,0.5289275000004636,1.6278392216586577,,experiment,cRDM,0.0,,,,908.2087673999996,1011,33,female,True
204,0.4446167627696291,25,up,up,0.7273566000003484,0.4279575129943584,,experiment,cRDM,0.0,,,,909.4253724,1011,33,female,True
205,0.4446167627696291,25,down,down,0.4976954000003388,1.2647988960134715,,experiment,cRDM,0.0,,,,911.6920021999996,1011,33,female,True
206,0.4446167627696291,25,down,down,0.6075500999995711,0.7759216452881171,,experiment,cRDM,0.0,,,,913.2252336,1011,33,female,True
207,0.4446167627696291,25,up,down,0.4167728000002171,1.7377652466973923,,experiment,cRDM,0.0,,,,915.8251383999996,1011,33,female,True
208,0.4446167627696291,25,up,up,0.3005063000000518,0.7750438973995055,,experiment,cRDM,0.0,,,,917.2751006,1011,33,female,True
209,0.4446167627696291,25,down,down,0.4002757000007477,1.3716130494540235,,experiment,cRDM,0.0,,,,919.3250363999996,1011,33,female,True
210,0.4446167627696291,25,up,down,0.3839995999996972,1.4788643597378772,,experiment,cRDM,0.0,,,,921.4749543999995,1011,33,female,True
211,0.4446167627696291,25,down,down,0.8173098999996,0.3731530961005071,,experiment,cRDM,0.0,,,,922.5413688,1011,33,female,True
212,0.4446167627696291,25,up,up,0.6323327000000063,1.8058781543109983,,experiment,cRDM,0.0,,,,925.4414220999996,1011,33,female,True
213,0.4446167627696291,25,down,up,0.3004763999997522,0.546207294555221,,experiment,cRDM,0.0,,,,926.8914147999994,1011,33,female,True
214,0.4446167627696291,25,up,down,0.4004164999996646,1.975290195788975,,experiment,cRDM,0.0,,,,929.5412054999996,1011,33,female,True
215,0.4446167627696291,25,down,down,0.6790892999997595,0.3575850564533254,,experiment,cRDM,0.0,,,,930.5746070999994,1011,33,female,True
216,0.4446167627696291,25,up,up,0.7148414000002958,1.6905651899009857,,experiment,cRDM,0.0,,,,933.2078573,1011,33,female,True
217,0.4446167627696291,25,down,down,0.4745987999995122,0.6613188685553906,,experiment,cRDM,0.0,,,,934.8411110999996,1011,33,female,True
218,0.4446167627696291,25,up,up,0.3505299999997078,0.6390384782254332,,experiment,cRDM,0.0,,,,936.2077529999996,1011,33,female,True
219,0.4446167627696291,25,down,down,0.3504551999994874,1.468648752603389,,experiment,cRDM,0.0,,,,938.3576937999997,1011,33,female,True
220,0.4446167627696291,25,up,up,0.3173295000005964,0.6955779806729242,,experiment,cRDM,0.0,,,,939.7242748999996,1011,33,female,True
221,0.4446167627696291,25,down,down,0.6350517000000764,1.7806723797058182,,experiment,cRDM,0.0,,,,942.1908544999995,1011,33,female,True
222,0.4446167627696291,25,down,down,0.6882981999997355,1.4275192179178329,,experiment,cRDM,0.0,,,,944.5074349999996,1011,33,female,True
223,0.4446167627696291,25,up,up,0.5700144000002183,0.3294717819071884,,experiment,cRDM,0.0,,,,945.7907176,1011,33,female,True
224,0.4446167627696291,25,down,down,0.3838548999992781,1.604582459848865,,experiment,cRDM,0.0,,,,948.2239653999997,1011,33,female,True
225,0.4446167627696291,25,up,up,0.3671930000000429,0.5108053729281136,,experiment,cRDM,0.0,,,,949.4072569999998,1011,33,female,True
226,0.4446167627696291,25,up,down,0.4003602000002502,1.9498567417102788,,experiment,cRDM,0.0,,,,952.0403198999992,1011,33,female,True
227,0.4446167627696291,25,down,down,0.4993880000001809,0.824684273171272,,experiment,cRDM,0.0,,,,953.540349,1011,33,female,True
228,0.4446167627696291,25,down,up,0.913622199999736,0.8457677990916976,,experiment,cRDM,0.0,,,,955.1570721999996,1011,33,female,True
229,0.4446167627696291,25,up,up,0.7427926000000298,1.43437333282244,,experiment,cRDM,0.0,,,,957.7569764999998,1011,33,female,True
230,0.4446167627696291,25,down,down,0.5988477000000785,1.4348617264514387,,experiment,cRDM,0.0,,,,960.2068499999996,1011,33,female,True
231,0.4446167627696291,25,up,up,0.5319562000004225,1.0328653769145206,,experiment,cRDM,0.0,,,,962.1067702,1011,33,female,True
232,0.4446167627696291,25,up,up,0.7176656999999977,1.4770538466246577,,experiment,cRDM,0.0,,,,964.3900333,1011,33,female,True
233,0.4446167627696291,25,up,down,1.0040998999993462,1.834928100910796,,experiment,cRDM,0.0,,,,967.2066021,1011,33,female,True
234,0.4446167627696291,25,up,up,0.656807000000299,1.8978350176304624,,experiment,cRDM,0.0,,,,970.3898371999994,1011,33,female,True
235,0.4446167627696291,25,up,up,0.7215913,0.5491607253467452,,experiment,cRDM,0.0,,,,971.8731085999998,1011,33,female,True
236,0.4446167627696291,25,down,down,0.5166768999997657,0.45213543136696,,experiment,cRDM,0.0,,,,973.3230309,1011,33,female,True
237,0.4446167627696291,25,down,up,0.3505278000002363,0.5944878357001868,,experiment,cRDM,0.0,,,,974.7063416,1011,33,female,True
238,0.4446167627696291,25,down,down,0.6265909000003376,1.015834847896158,,experiment,cRDM,0.0,,,,976.4062778999996,1011,33,female,True
239,0.4446167627696291,25,up,down,0.6005008000001908,1.044473573512755,,experiment,cRDM,0.0,,,,978.3561837999996,1011,33,female,True
240,0.4446167627696291,25,down,down,0.5102119000002858,1.5316194674218904,,experiment,cRDM,0.0,,,,980.7394696,1011,33,female,True
241,0.4446167627696291,25,down,down,0.4806822000000466,0.7855881063249961,,experiment,cRDM,0.0,,,,982.3060206,1011,33,female,True
242,0.4446167627696291,25,down,down,0.4276614999998855,0.5582170620338804,,experiment,cRDM,0.0,,,,983.6059828999996,1011,33,female,True
243,0.4446167627696291,25,up,up,0.8544010000005073,0.9450146185896392,,experiment,cRDM,0.0,,,,985.2393028999996,1011,33,female,True
244,0.4446167627696291,25,down,down,0.564150499999414,1.168092619027738,,experiment,cRDM,0.0,,,,987.5225648999996,1011,33,female,True
245,0.4446167627696291,25,up,up,0.7809942000003502,1.8592584436701247,,experiment,cRDM,0.0,,,,990.2057522999994,1011,33,female,True
246,0.4446167627696291,25,up,down,0.5076748999999836,1.392315352060398,,experiment,cRDM,0.0,,,,992.6390273999996,1011,33,female,True
247,0.4446167627696291,25,down,down,0.5435207000000446,0.8716294679559615,,experiment,cRDM,0.0,,,,994.2722711999996,1011,33,female,True
248,0.4446167627696291,25,up,up,0.7977756000000227,1.0728559660101138,,experiment,cRDM,0.0,,,,996.1389007999996,1011,33,female,True
249,0.4446167627696291,25,down,down,0.8705183000001853,0.4774082972015322,,experiment,cRDM,0.0,,,,997.6721357999996,1011,33,female,True
250,0.4446167627696291,25,up,up,0.6232846999992034,1.2548825420983558,,experiment,cRDM,0.0,,,,1000.0554298999996,1011,33,female,True
251,0.4446167627696291,25,down,down,0.5903791999999157,1.6081405058911251,,experiment,cRDM,0.0,,,,1002.5553267999994,1011,33,female,True
252,0.4446167627696291,25,up,up,0.6274961999997686,1.6904205880985357,,experiment,cRDM,0.0,,,,1005.1052074999998,1011,33,female,True
253,0.4446167627696291,25,down,down,0.3672806000004129,1.1286495067311,,experiment,cRDM,0.0,,,,1007.1217005999996,1011,33,female,True
254,0.4446167627696291,25,down,down,0.799297700000352,1.0428793475877547,,experiment,cRDM,0.0,,,,1008.8384294999996,1011,33,female,True
255,0.4446167627696291,25,down,up,0.3338901000006444,0.5070144382787092,,experiment,cRDM,0.0,,,,1010.4049956999996,1011,33,female,True
256,0.4446167627696291,25,down,down,0.333798999999999,1.8541068121547664,,experiment,cRDM,0.0,,,,1012.9382957999997,1011,33,female,True
257,0.4446167627696291,25,down,down,0.446245799999815,1.8436268293356803,,experiment,cRDM,0.0,,,,1015.4714915999994,1011,33,female,True
258,0.4446167627696291,25,up,up,0.8057112999995297,1.3556646459544726,,experiment,cRDM,0.0,,,,1017.5379586999998,1011,33,female,True
259,0.4446167627696291,25,up,up,0.6347343999996156,0.9355671472532074,,experiment,cRDM,0.0,,,,1019.5379703,1011,33,female,True
260,0.4446167627696291,25,up,down,0.7170629000002009,1.4098442144799594,,experiment,cRDM,0.0,,,,1021.8546226999996,1011,33,female,True
261,0.4446167627696291,25,up,up,1.1085438000000067,1.8406740867222544,,experiment,cRDM,0.0,,,,1024.6711662999996,1011,33,female,True
262,147.0,25,M,down,1.198142100000041,1.5467153883919558,,experiment,emotion,0.0,,,,1032.4875459999994,1011,33,female,True
263,115.0,25,M,down,0.6739491000007547,1.600736394351438,,experiment,emotion,0.0,,,,1035.5707557999997,1011,33,female,True
264,136.0,25,F,up,0.690041900000324,1.21433078983202,,experiment,emotion,0.0,,,,1037.7706806999995,1011,33,female,True
265,147.0,25,F,up,0.6605528000000049,1.3165087917870084,,experiment,emotion,0.0,,,,1040.0372373,1011,33,female,True
266,136.0,25,M,up,1.057820700000775,0.4394460540640263,,experiment,emotion,0.0,,,,1041.4038868999996,1011,33,female,True
267,126.0,25,F,down,0.9215379000006578,0.6625436946423886,,experiment,emotion,0.0,,,,1043.4371628999995,1011,33,female,True
268,115.0,25,M,down,1.033644600000116,1.7053693691396472,,experiment,emotion,0.0,,,,1046.3370621999993,1011,33,female,True
269,126.0,25,M,down,0.4204534000000421,1.34185993201269,,experiment,emotion,0.0,,,,1048.9702724999995,1011,33,female,True
270,147.0,25,F,down,0.6892023999998855,1.8978246998854744,,experiment,emotion,0.0,,,,1051.5535074999998,1011,33,female,True
271,126.0,25,F,down,0.7076288999996905,1.1506273150585202,,experiment,emotion,0.0,,,,1053.6700891,1011,33,female,True
272,136.0,25,F,up,0.6423817999993844,1.3455052939160796,,experiment,emotion,0.0,,,,1056.0033288999994,1011,33,female,True
273,147.0,25,F,up,0.8757980999998836,1.552632834093628,,experiment,emotion,0.0,,,,1058.4699115999993,1011,33,female,True
274,136.0,25,F,up,0.5449207000001479,0.3894734721233094,,experiment,emotion,0.0,,,,1060.0198387,1011,33,female,True
275,115.0,25,F,up,0.4925657000003411,0.7957865530754415,,experiment,emotion,0.0,,,,1061.6531343999995,1011,33,female,True
276,126.0,25,M,up,1.0250084999997853,1.5008438587360102,,experiment,emotion,0.0,,,,1063.9196966999998,1011,33,female,True
277,115.0,25,M,down,0.837405199999921,1.5288744309999442,,experiment,emotion,0.0,,,,1066.7363055999997,1011,33,female,True
278,147.0,25,M,up,0.6964754000000539,0.533956112645071,,experiment,emotion,0.0,,,,1068.3862323999992,1011,33,female,True
279,115.0,25,M,up,1.3956161000005525,1.6191065006636816,,experiment,emotion,0.0,,,,1070.9861290999995,1011,33,female,True
280,136.0,25,F,up,0.7848192000001291,0.4678539818844819,,experiment,emotion,0.0,,,,1073.1360544,1011,33,female,True
281,136.0,25,M,up,0.7997782999991614,0.3372449370512799,,experiment,emotion,0.0,,,,1074.5359964,1011,33,female,True
282,126.0,25,M,up,0.6177233999997043,0.3477173153832394,,experiment,emotion,0.0,,,,1075.9859670999997,1011,33,female,True
283,126.0,25,F,down,0.6248566999993272,1.460742407177941,,experiment,emotion,0.0,,,,1078.3358686,1011,33,female,True
284,115.0,25,M,up,0.5776124999993044,1.633565104767993,,experiment,emotion,0.0,,,,1080.8690960999993,1011,33,female,True
285,147.0,25,F,up,0.5798195999996096,0.4884928136076285,,experiment,emotion,0.0,,,,1082.2188922999994,1011,33,female,True
286,136.0,25,F,down,0.5907645999996021,1.8913938515903732,,experiment,emotion,0.0,,,,1084.9689454,1011,33,female,True
287,115.0,25,M,down,0.4855808000002071,1.9654770662178,,experiment,emotion,0.0,,,,1087.8021515,1011,33,female,True
288,147.0,25,M,down,0.5653092999991713,1.7758058924248183,,experiment,emotion,0.0,,,,1090.3354297999997,1011,33,female,True
289,147.0,25,F,up,0.6726980000003095,1.1766510375525356,,experiment,emotion,0.0,,,,1092.3520082999994,1011,33,female,True
290,126.0,25,M,down,0.3501158999997642,1.4718183020992093,,experiment,emotion,0.0,,,,1094.7685965,1011,33,female,True
291,115.0,25,F,up,0.5008836999995765,0.4370924894055035,,experiment,emotion,0.0,,,,1095.9018808,1011,33,female,True
292,126.0,25,F,down,0.3334731000004467,0.5281295160896443,,experiment,emotion,0.0,,,,1097.2018219,1011,33,female,True
293,136.0,25,F,down,0.5536170000004859,1.2779365084399823,,experiment,emotion,0.0,,,,1099.185098,1011,33,female,True
294,115.0,25,M,down,0.7457715000000462,0.6305485065017431,,experiment,emotion,0.0,,,,1100.6349390999994,1011,33,female,True
295,147.0,25,M,up,0.7704746999997951,1.307562243601,,experiment,emotion,0.0,,,,1102.9682861,1011,33,female,True
296,136.0,25,M,down,0.7902258000003712,1.580522742965056,,experiment,emotion,0.0,,,,1105.6015156999993,1011,33,female,True
297,147.0,25,F,down,0.4167846999998801,0.8293130326583984,,experiment,emotion,0.0,,,,1107.4847857999994,1011,33,female,True
298,115.0,25,F,up,0.558310899999924,1.5897732878392552,,experiment,emotion,0.0,,,,1109.7513755,1011,33,female,True
299,136.0,25,M,down,0.6254236999993736,1.8717005494529264,,experiment,emotion,0.0,,,,1112.451277,1011,33,female,True
300,126.0,25,F,down,0.9255305000006048,1.896236784446604,,experiment,emotion,0.0,,,,1115.2511722999998,1011,33,female,True
301,126.0,25,M,down,1.1346637999995437,0.6325338362970137,,experiment,emotion,0.0,,,,1117.1010976999996,1011,33,female,True
302,136.0,25,M,up,0.7517701999995552,0.8374138026144482,,experiment,emotion,0.0,,,,1119.3510241999993,1011,33,female,True
303,147.0,25,M,down,1.2444369000004372,1.0441604910527358,,experiment,emotion,0.0,,,,1121.4342726999994,1011,33,female,True
304,126.0,25,F,down,0.8721497000005911,0.3208287073368024,,experiment,emotion,0.0,,,,1123.26757,1011,33,female,True
305,115.0,25,F,,,1.6395576863867516,,experiment,emotion,0.0,,,,1126.0674339999996,1011,33,female,True
306,115.0,25,M,down,1.1870607999999263,0.8891005735801407,,experiment,emotion,0.0,,,,1129.6506601,1011,33,female,True
307,126.0,25,F,down,0.5825052000000142,1.5635453063759694,,experiment,emotion,0.0,,,,1132.6672013999996,1011,33,female,True
308,147.0,25,F,up,0.5522769999997763,0.5528935760654876,,experiment,emotion,0.0,,,,1134.0504690999996,1011,33,female,True
309,136.0,25,M,down,0.4001840999999331,0.8964826867618787,,experiment,emotion,0.0,,,,1135.7837552,1011,33,female,True
310,115.0,25,M,up,0.8207411000003049,0.3571626350411285,,experiment,emotion,0.0,,,,1136.816993699999,1011,33,female,True
311,147.0,25,F,up,0.5101349000005939,1.5246106525921357,,experiment,emotion,0.0,,,,1139.4336199,1011,33,female,True
312,136.0,25,M,up,0.937543199999709,1.3016900367530269,,experiment,emotion,0.0,,,,1141.5171479,1011,33,female,True
313,136.0,25,F,down,1.1191576000001078,1.3955636846449946,,experiment,emotion,0.0,,,,1144.1165603999998,1011,33,female,True
314,115.0,25,F,down,0.3167849000001297,1.6322067710319832,,experiment,emotion,0.0,,,,1147.1333698,1011,33,female,True
315,126.0,25,F,down,0.6144252999993114,1.0932538657934583,,experiment,emotion,0.0,,,,1148.9332875,1011,33,female,True
316,147.0,25,M,down,0.3668506999993042,1.7107545102409067,,experiment,emotion,0.0,,,,1151.5665098999998,1011,33,female,True
317,126.0,25,M,down,0.4003124999999272,1.6577418544395757,,experiment,emotion,0.0,,,,1153.9163689999996,1011,33,female,True
318,126.0,25,F,down,0.5943084999998973,0.4428389413979475,,experiment,emotion,0.0,,,,1155.0663945999995,1011,33,female,True
319,126.0,25,F,down,0.5186110000004192,0.6841306537716116,,experiment,emotion,0.0,,,,1156.6161697999996,1011,33,female,True
320,147.0,25,M,up,0.2835621999993236,1.0136404413202456,,experiment,emotion,0.0,,,,1158.4329222999995,1011,33,female,True
321,136.0,25,M,down,0.3835046000003785,1.0087457389921648,,experiment,emotion,0.0,,,,1160.1495136999993,1011,33,female,True
322,115.0,25,M,up,0.3501790000000255,1.590681189082495,,experiment,emotion,0.0,,,,1162.4494342999997,1011,33,female,True
323,115.0,25,M,up,0.6323339999999007,0.7677758776658313,,experiment,emotion,0.0,,,,1163.8993807999996,1011,33,female,True
324,136.0,25,M,up,0.4950736999999208,1.1666052730077634,,experiment,emotion,0.0,,,,1165.9826371999998,1011,33,female,True
325,147.0,25,F,up,0.3834280999999464,1.010431702505919,,experiment,emotion,0.0,,,,1167.7492414999997,1011,33,female,True
326,147.0,25,F,up,0.3001671000001806,0.6998968303887867,,experiment,emotion,0.0,,,,1169.1491982999996,1011,33,female,True
327,115.0,25,M,up,0.4635835999997653,1.0620738863563643,,experiment,emotion,0.0,,,,1170.8991267,1011,33,female,True
328,147.0,25,F,down,0.333516900000177,1.9062097968885456,,experiment,emotion,0.0,,,,1173.5490412,1011,33,female,True
329,126.0,25,F,down,0.4227733000006992,1.5405531408271742,,experiment,emotion,0.0,,,,1175.7989271999995,1011,33,female,True
330,136.0,25,F,up,0.3668474999994942,0.9657161680423488,,experiment,emotion,0.0,,,,1177.4822268999997,1011,33,female,True
331,126.0,25,M,up,0.4406302999996114,0.6635563158705168,,experiment,emotion,0.0,,,,1178.8321145999998,1011,33,female,True
332,115.0,25,F,up,0.8089392000001681,0.748103397374939,,experiment,emotion,0.0,,,,1180.2987818,1011,33,female,True
333,136.0,25,F,up,0.8173508999998376,0.6351263476629845,,experiment,emotion,0.0,,,,1182.0153664,1011,33,female,True
334,126.0,25,F,down,0.400191800000357,0.9691576206536924,,experiment,emotion,0.0,,,,1184.081967,1011,33,female,True
335,136.0,25,M,down,0.516877499999282,1.2604144620304487,,experiment,emotion,0.0,,,,1186.0318351999997,1011,33,female,True
336,115.0,25,M,down,0.3835014000005685,0.652268035567267,,experiment,emotion,0.0,,,,1187.4651792999994,1011,33,female,True
337,147.0,25,F,down,0.6849107999996704,1.1129400444550903,,experiment,emotion,0.0,,,,1189.2817950999995,1011,33,female,True
338,136.0,25,M,up,0.3002049999995506,1.1994423161862688,,experiment,emotion,0.0,,,,1191.4317201999993,1011,33,female,True
339,147.0,25,F,up,0.5678561000004265,1.495590130943475,,experiment,emotion,0.0,,,,1193.6148985999998,1011,33,female,True
340,115.0,25,M,up,0.6578512000005503,1.993851904922257,,experiment,emotion,0.0,,,,1196.4648595999995,1011,33,female,True
341,126.0,25,M,up,0.5873127000004388,1.171368350288594,,experiment,emotion,0.0,,,,1198.5814443,1011,33,female,True
342,0.4446167627696291,25,up,up,0.9694126000003962,1.639344061484599,,experiment,cRDM,1.0,,,,1536.4523856999997,1011,33,female,True
343,0.4446167627696291,25,up,up,0.6121391000006042,1.6544761527734155,,experiment,cRDM,1.0,,,,1539.3355942999997,1011,33,female,True
344,0.4446167627696291,25,down,down,0.4882175999991887,1.5226345162235309,,experiment,cRDM,1.0,,,,1541.7355129999996,1011,33,female,True
345,0.4446167627696291,25,down,up,0.5622823000003336,0.5906611533934716,,experiment,cRDM,1.0,,,,1543.0854499999996,1011,33,female,True
346,0.4446167627696291,25,up,down,0.3005177000004551,0.3799367493446319,,experiment,cRDM,1.0,,,,1544.2854042999998,1011,33,female,True
347,0.4446167627696291,25,down,up,0.4168360000003304,1.6951954606579964,,experiment,cRDM,1.0,,,,1546.6686623999994,1011,33,female,True
348,0.4446167627696291,25,up,down,0.551891500000238,1.4598401231886016,,experiment,cRDM,1.0,,,,1548.8018464999996,1011,33,female,True
349,0.4446167627696291,25,up,up,0.7421982999994725,0.6493176406649492,,experiment,cRDM,1.0,,,,1550.2685327999998,1011,33,female,True
350,0.4446167627696291,25,down,down,0.5508325000000696,0.9728456023318608,,experiment,cRDM,1.0,,,,1552.2518567999996,1011,33,female,True
351,0.4446167627696291,25,down,down,0.5973319999993691,1.2025100664911452,,experiment,cRDM,1.0,,,,1554.2683965999995,1011,33,female,True
352,0.4446167627696291,25,down,down,0.6547452999993766,0.7103802108953853,,experiment,cRDM,1.0,,,,1555.8349976999998,1011,33,female,True
353,0.4446167627696291,25,down,down,0.6164948999994522,1.1118082169131138,,experiment,cRDM,1.0,,,,1557.8682361,1011,33,female,True
354,0.4446167627696291,25,down,down,0.4702646000005188,0.6146613185505603,,experiment,cRDM,1.0,,,,1559.3515318,1011,33,female,True
355,0.4446167627696291,25,down,down,0.5239279999996143,0.6594331703474288,,experiment,cRDM,1.0,,,,1560.7348127999994,1011,33,female,True
356,0.4446167627696291,25,up,up,0.6310077000007368,0.856284841603647,,experiment,cRDM,1.0,,,,1562.3847651999995,1011,33,female,True
357,0.4446167627696291,25,up,down,0.5320855999998457,1.1064308960545808,,experiment,cRDM,1.0,,,,1564.3846614999993,1011,33,female,True
358,0.4446167627696291,25,up,up,0.7934457999999722,0.6251407981755344,,experiment,cRDM,1.0,,,,1565.8013201999993,1011,33,female,True
359,0.4446167627696291,25,up,up,0.6522082999999839,1.4380865282949942,,experiment,cRDM,1.0,,,,1568.284522,1011,33,female,True
360,0.4446167627696291,25,down,up,0.5849120000002586,1.0694985287757317,,experiment,cRDM,1.0,,,,1570.2678102999998,1011,33,female,True
361,0.4446167627696291,25,up,up,0.542017499999929,0.9562627892150564,,experiment,cRDM,1.0,,,,1572.0677185999994,1011,33,female,True
362,0.4446167627696291,25,up,up,0.5994244999992588,1.6667793278011345,,experiment,cRDM,1.0,,,,1574.5343144,1011,33,female,True
363,0.4446167627696291,25,down,down,0.6461710000003222,0.7794082036968922,,experiment,cRDM,1.0,,,,1576.1675729,1011,33,female,True
364,0.4446167627696291,25,up,up,0.6501281999999264,1.4620248725962357,,experiment,cRDM,1.0,,,,1578.5508197999998,1011,33,female,True
365,0.4446167627696291,25,down,down,0.7136545000003025,1.0775869326432124,,experiment,cRDM,1.0,,,,1580.5340873999994,1011,33,female,True
366,0.4446167627696291,25,down,up,1.7964234999999462,1.4007865735792473,,experiment,cRDM,1.0,,,,1582.9173336999993,1011,33,female,True
367,0.4446167627696291,25,up,up,0.7081700999997338,0.9360625613027496,,experiment,cRDM,1.0,,,,1585.9006019999997,1011,33,female,True
368,0.4446167627696291,25,up,up,0.7119399000002886,0.3101268482151948,,experiment,cRDM,1.0,,,,1587.1837876,1011,33,female,True
369,0.4446167627696291,25,down,down,0.5869942999997875,1.8374530832571985,,experiment,cRDM,1.0,,,,1589.9837914,1011,33,female,True
370,0.4446167627696291,25,up,up,0.6460722000001624,0.4963672447668237,,experiment,cRDM,1.0,,,,1591.3336844999994,1011,33,female,True
371,0.4446167627696291,25,down,down,0.5411615000002712,1.7940088288051863,,experiment,cRDM,1.0,,,,1594.0335833,1011,33,female,True
372,0.4446167627696291,25,down,up,0.4486694999995961,1.517799534395607,,experiment,cRDM,1.0,,,,1596.3501751999993,1011,33,female,True
373,0.4446167627696291,25,down,up,0.9849586999998792,0.3152800644730247,,experiment,cRDM,1.0,,,,1597.3667808,1011,33,female,True
374,0.4446167627696291,25,up,down,0.536337900000035,0.4266143670225545,,experiment,cRDM,1.0,,,,1599.0334035999997,1011,33,female,True
375,0.4446167627696291,25,up,up,0.5887101000007533,1.7711295165130936,,experiment,cRDM,1.0,,,,1601.6000242,1011,33,female,True
376,0.4446167627696291,25,up,down,0.38380750000033,0.6399202374525826,,experiment,cRDM,1.0,,,,1603.0999342999994,1011,33,female,True
377,0.4446167627696291,25,down,down,0.3505579000002399,0.8882137278219584,,experiment,cRDM,1.0,,,,1604.6831333,1011,33,female,True
378,0.4446167627696291,25,down,down,0.5806329000006372,1.727409841373435,,experiment,cRDM,1.0,,,,1607.0831399999995,1011,33,female,True
379,0.4446167627696291,25,up,down,0.9807831000007354,1.4537835314756584,,experiment,cRDM,1.0,,,,1609.3829959999994,1011,33,female,True
380,0.4446167627696291,25,down,down,0.3838272000002689,0.9153447634828548,,experiment,cRDM,1.0,,,,1611.5329335999995,1011,33,female,True
381,0.4446167627696291,25,up,down,0.3337882000005265,1.7057003471781425,,experiment,cRDM,1.0,,,,1613.9162317,1011,33,female,True
382,0.4446167627696291,25,up,up,0.638605600000119,1.5210444556220724,,experiment,cRDM,1.0,,,,1616.1161351,1011,33,female,True
383,0.4446167627696291,25,up,up,0.6164468000006309,1.2683570051359605,,experiment,cRDM,1.0,,,,1618.2992965999993,1011,33,female,True
384,0.4446167627696291,25,down,up,0.3838514999997642,0.6897450328335936,,experiment,cRDM,1.0,,,,1619.8493147,1011,33,female,True
385,0.4446167627696291,25,down,down,0.3338858999995864,1.1762125899687468,,experiment,cRDM,1.0,,,,1621.6992237999991,1011,33,female,True
386,0.4446167627696291,25,up,up,0.9888184999999794,0.3377496616156396,,experiment,cRDM,1.0,,,,1622.7159075,1011,33,female,True
387,0.4446167627696291,25,down,down,0.6306217000001197,1.8784337572013392,,experiment,cRDM,1.0,,,,1625.8490894999995,1011,33,female,True
388,0.4446167627696291,25,down,down,0.6444811000001209,1.9360690701407064,,experiment,cRDM,1.0,,,,1628.6823046,1011,33,female,True
389,0.4446167627696291,25,up,down,0.6308391000002302,1.9511202766985207,,experiment,cRDM,1.0,,,,1631.5489020999994,1011,33,female,True
390,0.4446167627696291,25,up,down,0.5379315999998653,1.2039348686952356,,experiment,cRDM,1.0,,,,1633.6488074999995,1011,33,female,True
391,0.4446167627696291,25,down,down,0.4740340999996988,1.3044298706345112,,experiment,cRDM,1.0,,,,1635.7487228999998,1011,33,female,True
392,0.4446167627696291,25,up,down,0.9985226999997394,1.3903485252451897,,experiment,cRDM,1.0,,,,1637.8653108,1011,33,female,True
393,0.4446167627696291,25,down,down,0.5307167000000845,1.1189512130653765,,experiment,cRDM,1.0,,,,1640.2652214,1011,33,female,True
394,0.4446167627696291,25,down,down,0.3838585000003149,0.9200277383745904,,experiment,cRDM,1.0,,,,1641.9818061999997,1011,33,female,True
395,0.4446167627696291,25,down,down,0.5064051999997901,1.9474992179445851,,experiment,cRDM,1.0,,,,1644.5984203999997,1011,33,female,True
396,0.4446167627696291,25,up,up,0.9487693999999464,1.5018606527790883,,experiment,cRDM,1.0,,,,1646.8649741999998,1011,33,female,True
397,0.4446167627696291,25,up,up,0.5465998999998192,0.9139215233466385,,experiment,cRDM,1.0,,,,1648.9981443999995,1011,33,female,True
398,0.4446167627696291,25,down,up,0.4242621999992479,1.5877588309043047,,experiment,cRDM,1.0,,,,1651.3814798999992,1011,33,female,True
399,0.4446167627696291,25,down,up,0.8829332000004797,0.7425340330687957,,experiment,cRDM,1.0,,,,1652.8148063,1011,33,female,True
400,0.4446167627696291,25,up,up,0.6334415000001172,1.9166483831092196,,experiment,cRDM,1.0,,,,1655.8813052999994,1011,33,female,True
401,0.4446167627696291,25,up,up,0.7179640999993353,1.7168713418813524,,experiment,cRDM,1.0,,,,1658.4977979999994,1011,33,female,True
402,0.4446167627696291,25,up,up,0.5752655999995113,1.1876276358414233,,experiment,cRDM,1.0,,,,1660.6644742,1011,33,female,True
403,0.4446167627696291,25,up,up,0.7013126000001648,1.4129714434226477,,experiment,cRDM,1.0,,,,1662.9144305,1011,33,female,True
404,0.4446167627696291,25,up,up,0.6167409999998199,0.3506841449690956,,experiment,cRDM,1.0,,,,1664.2310128999998,1011,33,female,True
405,0.4446167627696291,25,down,up,0.4002669000001333,0.6617221859204017,,experiment,cRDM,1.0,,,,1665.7642864,1011,33,female,True
406,0.4446167627696291,25,down,up,0.7644031999998333,0.958973623263116,,experiment,cRDM,1.0,,,,1667.3974334999994,1011,33,female,True
407,0.4446167627696291,25,up,up,0.416837900000246,0.4494090236446446,,experiment,cRDM,1.0,,,,1668.8808232,1011,33,female,True
408,0.4446167627696291,25,down,up,0.7440086000005977,1.8266051958753096,,experiment,cRDM,1.0,,,,1671.3807382999994,1011,33,female,True
409,0.4446167627696291,25,down,down,0.6927087999993091,1.6380958849346787,,experiment,cRDM,1.0,,,,1674.0140345999998,1011,33,female,True
410,0.4446167627696291,25,down,down,1.0878374000003532,1.3932871720113948,,experiment,cRDM,1.0,,,,1676.3639156,1011,33,female,True
411,0.4446167627696291,25,up,up,0.6136881000002177,1.6832241743543432,,experiment,cRDM,1.0,,,,1679.3970283,1011,33,female,True
412,0.4446167627696291,25,down,up,0.6613905000003797,0.6169339510244998,,experiment,cRDM,1.0,,,,1680.8803748,1011,33,female,True
413,0.4446167627696291,25,down,down,0.4344398000002911,0.9896092944456903,,experiment,cRDM,1.0,,,,1682.7803067999994,1011,33,female,True
414,0.4446167627696291,25,down,down,0.55180830000063,1.1031553641445278,,experiment,cRDM,1.0,,,,1684.5969667999998,1011,33,female,True
415,0.4446167627696291,25,up,down,0.7269226999997045,1.633053045533408,,experiment,cRDM,1.0,,,,1687.0468274999994,1011,33,female,True
416,0.4446167627696291,25,up,up,0.8536403999996764,1.391654832182892,,experiment,cRDM,1.0,,,,1689.4301053,1011,33,female,True
417,0.4446167627696291,25,down,down,0.6137764000004609,1.8834838367872804,,experiment,cRDM,1.0,,,,1692.4299721999996,1011,33,female,True
418,0.4446167627696291,25,up,down,0.6854948999998669,0.6998191083840855,,experiment,cRDM,1.0,,,,1694.0132714,1011,33,female,True
419,0.4446167627696291,25,down,down,0.6899342999995497,1.06735615808367,,experiment,cRDM,1.0,,,,1696.0298414999995,1011,33,female,True
420,0.4446167627696291,25,up,down,0.984205199999451,1.3929977707187575,,experiment,cRDM,1.0,,,,1698.3795621,1011,33,female,True
421,0.4446167627696291,25,up,up,0.6841421999997692,1.4194009434594446,,experiment,cRDM,1.0,,,,1701.0296522999995,1011,33,female,True
422,147.0,25,M,up,0.6696147000002384,1.3819682765969596,,experiment,emotion,1.0,,,,1705.9461377999996,1011,33,female,True
423,115.0,25,M,down,0.7193693999997777,1.4081843135921608,,experiment,emotion,1.0,,,,1708.3294167999993,1011,33,female,True
424,136.0,25,F,up,0.5380888999998206,0.9936556569788496,,experiment,emotion,1.0,,,,1710.3126500999997,1011,33,female,True
425,147.0,25,F,down,0.7661409000002095,1.685689816871522,,experiment,emotion,1.0,,,,1712.812554,1011,33,female,True
426,136.0,25,M,down,0.9216040999999676,0.4705429777125326,,experiment,emotion,1.0,,,,1714.3291451999994,1011,33,female,True
427,126.0,25,F,up,0.6430659999996351,1.6053426934148949,,experiment,emotion,1.0,,,,1717.1457353999997,1011,33,female,True
428,115.0,25,M,down,0.7291175000000294,1.9995698014853072,,experiment,emotion,1.0,,,,1720.0456310999998,1011,33,female,True
429,126.0,25,M,up,1.1231834000000165,0.8008971402180105,,experiment,emotion,1.0,,,,1721.8455619999995,1011,33,female,True
430,147.0,25,F,down,0.822618600000169,0.4759954835417193,,experiment,emotion,1.0,,,,1723.7121646999994,1011,33,female,True
431,126.0,25,F,up,0.6871490000003178,1.5675605174192002,,experiment,emotion,1.0,,,,1726.3786063999996,1011,33,female,True
432,136.0,25,F,up,0.7254806000000826,0.3468557792350138,,experiment,emotion,1.0,,,,1727.6953181999995,1011,33,female,True
433,147.0,25,F,up,0.6554844000002049,1.456993618732523,,experiment,emotion,1.0,,,,1730.1452522,1011,33,female,True
434,136.0,25,F,up,1.0655704000000696,1.6336928891039153,,experiment,emotion,1.0,,,,1732.6951544999993,1011,33,female,True
435,115.0,25,F,down,0.6197288000003027,1.188661246930771,,experiment,emotion,1.0,,,,1735.2450916999996,1011,33,female,True
436,126.0,25,M,down,1.2445492999995622,1.7360389179511675,,experiment,emotion,1.0,,,,1737.8781990999996,1011,33,female,True
437,115.0,25,M,,,1.7458749829454383,,experiment,emotion,1.0,,,,1741.1281848,1011,33,female,True
438,147.0,25,M,down,0.7570287999997163,0.6043487973214567,,experiment,emotion,1.0,,,,1744.4447239,1011,33,female,True
439,115.0,25,M,down,0.6254331999998612,1.441549606194552,,experiment,emotion,1.0,,,,1746.9113005,1011,33,female,True
440,136.0,25,F,down,0.9188736999994944,1.4625824409450126,,experiment,emotion,1.0,,,,1749.2778754,1011,33,female,True
441,136.0,25,M,up,0.6629248999997799,0.4529474363906318,,experiment,emotion,1.0,,,,1750.9278405999994,1011,33,female,True
442,126.0,25,M,up,0.6973360000001776,0.3683157346241141,,experiment,emotion,1.0,,,,1752.2444515999996,1011,33,female,True
443,126.0,25,F,down,1.0204041999995752,1.885380640567396,,experiment,emotion,1.0,,,,1755.0943430999996,1011,33,female,True
444,115.0,25,M,down,0.7181948999996166,0.469793560787324,,experiment,emotion,1.0,,,,1756.8609165999997,1011,33,female,True
445,147.0,25,F,down,0.4167815000000701,0.6518577476331482,,experiment,emotion,1.0,,,,1758.5108948999996,1011,33,female,True
446,136.0,25,F,down,0.6746106999999029,0.6914485471187639,,experiment,emotion,1.0,,,,1759.8941415999998,1011,33,female,True
447,115.0,25,M,up,0.3502064000003884,1.5760780897943694,,experiment,emotion,1.0,,,,1762.4273931999996,1011,33,female,True
448,147.0,25,M,up,0.3168379999997341,0.8231656911276202,,experiment,emotion,1.0,,,,1763.9440175,1011,33,female,True
449,147.0,25,F,up,0.4489168999998583,0.9581073562805305,,experiment,emotion,1.0,,,,1765.5938816999997,1011,33,female,True
450,126.0,25,M,up,0.3168401000002632,1.1119066138331632,,experiment,emotion,1.0,,,,1767.4105638,1011,33,female,True
451,115.0,25,F,up,0.4928975000002538,0.3471539660378498,,experiment,emotion,1.0,,,,1768.4438512999996,1011,33,female,True
452,126.0,25,F,down,0.4403843999998571,1.8850256669603815,,experiment,emotion,1.0,,,,1771.1104385999995,1011,33,female,True
453,136.0,25,F,down,0.3501409999998941,1.0778100654933092,,experiment,emotion,1.0,,,,1772.9103584999991,1011,33,female,True
454,115.0,25,M,down,0.3834937999999965,1.3992146416376774,,experiment,emotion,1.0,,,,1775.0102776999993,1011,33,female,True
455,147.0,25,M,down,0.2836115000000063,1.2863737084503613,,experiment,emotion,1.0,,,,1776.9934276999993,1011,33,female,True
456,136.0,25,M,down,0.3001996000002691,1.5386395139036653,,experiment,emotion,1.0,,,,1779.2101162,1011,33,female,True
457,147.0,25,F,down,0.4723964999993768,1.852159881997688,,experiment,emotion,1.0,,,,1781.7433648999995,1011,33,female,True
458,115.0,25,F,down,0.6421546999999919,1.536707827500111,,experiment,emotion,1.0,,,,1784.026602399999,1011,33,female,True
459,136.0,25,M,down,0.6819289000004574,1.3196671930641488,,experiment,emotion,1.0,,,,1786.2598584999996,1011,33,female,True
460,126.0,25,F,down,0.6786515000003419,1.2126183043350098,,experiment,emotion,1.0,,,,1788.4431048999995,1011,33,female,True
461,126.0,25,M,down,0.5123913999996148,1.3266567839542378,,experiment,emotion,1.0,,,,1790.7263607999994,1011,33,female,True
462,136.0,25,M,down,0.4587655000004815,0.4251049883032214,,experiment,emotion,1.0,,,,1791.9429755,1011,33,female,True
463,147.0,25,M,down,0.5772045000003345,1.4699923915331985,,experiment,emotion,1.0,,,,1794.1595675999995,1011,33,female,True
464,126.0,25,F,down,0.4562368000006245,0.5513187563786325,,experiment,emotion,1.0,,,,1795.5595172999992,1011,33,female,True
465,115.0,25,F,down,0.649047499999142,0.5011918022420423,,experiment,emotion,1.0,,,,1796.7927736,1011,33,female,True
466,115.0,25,M,down,0.4279662999997526,0.4826205524720409,,experiment,emotion,1.0,,,,1798.1928282999995,1011,33,female,True
467,126.0,25,F,down,0.5153933000001416,0.814668855803967,,experiment,emotion,1.0,,,,1799.7093722999998,1011,33,female,True
468,147.0,25,F,down,0.6338044999993144,1.6379847091339033,,experiment,emotion,1.0,,,,1802.1259495999996,1011,33,female,True
469,136.0,25,M,down,0.6009147999993729,1.9869231102320557,,experiment,emotion,1.0,,,,1805.0258361,1011,33,female,True
470,115.0,25,M,down,0.1001706000006379,1.4852334796496964,,experiment,emotion,1.0,,,,1807.3757305,1011,33,female,True
471,147.0,25,F,down,0.6244778999998744,1.7155878299334726,,experiment,emotion,1.0,,,,1809.7922576,1011,33,female,True
472,136.0,25,M,down,0.4001709999993181,0.939417867574968,,experiment,emotion,1.0,,,,1811.6255931,1011,33,female,True
473,136.0,25,F,down,0.3168186000002606,0.7032024393317322,,experiment,emotion,1.0,,,,1813.0089006,1011,33,female,True
474,115.0,25,F,down,0.4235965999996551,1.0931069311076271,,experiment,emotion,1.0,,,,1814.7921548999996,1011,33,female,True
475,126.0,25,F,down,0.3667881000001216,1.3053603915650709,,experiment,emotion,1.0,,,,1816.8087356,1011,33,female,True
476,147.0,25,M,down,0.333517899999606,0.9740242147750184,,experiment,emotion,1.0,,,,1818.4753617,1011,33,female,True
477,126.0,25,M,down,0.3501608999995369,1.379900651979194,,experiment,emotion,1.0,,,,1820.5419329999995,1011,33,female,True
478,126.0,25,F,down,0.3168640000003506,0.8584206497803271,,experiment,emotion,1.0,,,,1822.0751916,1011,33,female,True
479,126.0,25,F,down,0.521868099999665,1.2128243850903575,,experiment,emotion,1.0,,,,1823.974948,1011,33,female,True
480,147.0,25,M,up,0.4553514999997787,1.1424208289129787,,experiment,emotion,1.0,,,,1825.9084024999995,1011,33,female,True
481,136.0,25,M,up,0.7923903000000792,0.7607336620515185,,experiment,emotion,1.0,,,,1827.4083661999996,1011,33,female,True
482,115.0,25,M,up,0.4821608000002015,0.6118794988435456,,experiment,emotion,1.0,,,,1829.0916486999995,1011,33,female,True
483,115.0,25,M,down,0.5042349000004833,1.9517204002154245,,experiment,emotion,1.0,,,,1831.7915231,1011,33,female,True
484,136.0,25,M,up,0.5972985000007611,1.908626461255032,,experiment,emotion,1.0,,,,1834.4914179,1011,33,female,True
485,147.0,25,F,down,0.6180598000000828,1.8792830464981265,,experiment,emotion,1.0,,,,1837.2246841,1011,33,female,True
486,147.0,25,F,down,0.8502447999999276,1.082033763071942,,experiment,emotion,1.0,,,,1839.1745272,1011,33,female,True
487,115.0,25,M,down,0.8714087999996991,1.673687714012996,,experiment,emotion,1.0,,,,1841.9743536999997,1011,33,female,True
488,147.0,25,F,up,0.6736704000004465,1.0730782360880446,,experiment,emotion,1.0,,,,1844.1910738999995,1011,33,female,True
489,126.0,25,F,up,1.1181266000003234,1.3054954735340158,,experiment,emotion,1.0,,,,1846.4576282,1011,33,female,True
490,136.0,25,F,down,0.5812026999992668,0.3377499077805547,,experiment,emotion,1.0,,,,1848.2075863,1011,33,female,True
491,126.0,25,M,down,0.7245843000000605,0.8707926529205063,,experiment,emotion,1.0,,,,1849.9241729,1011,33,female,True
492,115.0,25,F,down,0.9317833000004612,1.152143177338257,,experiment,emotion,1.0,,,,1852.0741075,1011,33,female,True
493,136.0,25,F,up,0.5967719999998735,1.266442162547106,,experiment,emotion,1.0,,,,1854.5240195,1011,33,female,True
494,126.0,25,F,up,1.0008252000006903,0.6216411046630723,,experiment,emotion,1.0,,,,1856.023969,1011,33,female,True
495,136.0,25,M,up,0.8939942999995765,1.4796701012956068,,experiment,emotion,1.0,,,,1858.7747609,1011,33,female,True
496,115.0,25,M,down,0.8703149000002668,0.660089949502712,,experiment,emotion,1.0,,,,1860.5904740999997,1011,33,female,True
497,147.0,25,F,up,0.8060145999997985,0.3318278615276765,,experiment,emotion,1.0,,,,1862.0737259,1011,33,female,True
498,136.0,25,M,down,0.5600100999999995,0.8071339188399498,,experiment,emotion,1.0,,,,1863.9567419999996,1011,33,female,True
499,147.0,25,F,up,0.5658494999997856,1.4766580945785002,,experiment,emotion,1.0,,,,1866.2569060999997,1011,33,female,True
500,115.0,25,M,down,0.6546002000004592,1.750442504934004,,experiment,emotion,1.0,,,,1868.8401405999996,1011,33,female,True
501,126.0,25,M,down,0.8920416999999361,1.6714828860342636,,experiment,emotion,1.0,,,,1871.4567185,1011,33,female,True
502,0.4446167627696291,25,up,up,0.8851052999998501,1.116291660595285,,experiment,cRDM,2.0,,,,1891.3226668,1011,33,female,True
503,0.4446167627696291,25,up,up,0.6592546000001676,1.903190221712968,,experiment,cRDM,2.0,,,,1894.3725442999996,1011,33,female,True
504,0.4446167627696291,25,down,down,0.6716179000004558,0.7445441899080907,,experiment,cRDM,2.0,,,,1896.0391634,1011,33,female,True
505,0.4446167627696291,25,down,down,0.5426647999993293,0.976791848521778,,experiment,cRDM,2.0,,,,1897.9390887,1011,33,female,True
506,0.4446167627696291,25,up,down,0.5500359999996363,0.5648444202516217,,experiment,cRDM,2.0,,,,1899.3057368,1011,33,female,True
507,0.4446167627696291,25,down,down,0.4924718000002031,0.7993398500955693,,experiment,cRDM,2.0,,,,1900.9223171999995,1011,33,female,True
508,0.4446167627696291,25,up,up,1.1719074000002363,0.4977842176889839,,experiment,cRDM,2.0,,,,1902.1888493,1011,33,female,True
509,0.4446167627696291,25,up,down,0.8080806999996639,0.9690813727496586,,experiment,cRDM,2.0,,,,1904.5887367999997,1011,33,female,True
510,0.4446167627696291,25,down,down,0.7020159999992757,0.884556498213023,,experiment,cRDM,2.0,,,,1906.5387732,1011,33,female,True
511,0.4446167627696291,25,down,down,0.6508552000004784,1.6647244626293254,,experiment,cRDM,2.0,,,,1909.171925,1011,33,female,True
512,0.4446167627696291,25,down,down,0.4701923000002352,1.8523121582341755,,experiment,cRDM,2.0,,,,1911.9385758,1011,33,female,True
513,0.4446167627696291,25,down,up,0.6785296999996717,0.537699214334942,,experiment,cRDM,2.0,,,,1913.2052249,1011,33,female,True
514,0.4446167627696291,25,down,down,0.5692650000000867,0.5107744244402496,,experiment,cRDM,2.0,,,,1914.6384939,1011,33,female,True
515,0.4446167627696291,25,down,up,0.6303303999993659,1.6233000032386045,,experiment,cRDM,2.0,,,,1917.088433,1011,33,female,True
516,0.4446167627696291,25,up,down,0.585767699999451,0.4321515367509081,,experiment,cRDM,2.0,,,,1918.4050086,1011,33,female,True
517,0.4446167627696291,25,up,down,0.8842326000003595,1.725093435430296,,experiment,cRDM,2.0,,,,1920.9715411,1011,33,female,True
518,0.4446167627696291,25,up,up,0.7332235000003493,0.3521608922819141,,experiment,cRDM,2.0,,,,1922.4715335,1011,33,female,True
519,0.4446167627696291,25,up,down,0.8113487999999052,0.3117484348532457,,experiment,cRDM,2.0,,,,1923.771408,1011,33,female,True
520,0.4446167627696291,25,down,up,0.893141900000046,0.3277552584476202,,experiment,cRDM,2.0,,,,1925.1716794999995,1011,33,female,True
521,0.4446167627696291,25,up,up,0.7314559999995254,1.4915396727395032,,experiment,cRDM,2.0,,,,1927.8213245,1011,33,female,True
522,0.4446167627696291,25,up,down,0.8742159000003085,1.0942608938710467,,experiment,cRDM,2.0,,,,1929.9045786,1011,33,female,True
523,0.4446167627696291,25,down,down,0.6975247000000309,0.5758767397269915,,experiment,cRDM,2.0,,,,1931.6211864,1011,33,female,True
524,0.4446167627696291,25,up,down,0.511936699999751,1.6189343545639838,,experiment,cRDM,2.0,,,,1934.1878123,1011,33,female,True
525,0.4446167627696291,25,down,down,0.0339088999999148,1.5229571247819236,,experiment,cRDM,2.0,,,,1936.4709803999997,1011,33,female,True
526,0.4446167627696291,25,down,down,0.7805228999995961,1.793884435180232,,experiment,cRDM,2.0,,,,1938.9542336999996,1011,33,female,True
527,0.4446167627696291,25,up,up,0.6672573000005286,1.9443018468143336,,experiment,cRDM,2.0,,,,1941.9375046,1011,33,female,True
528,0.4446167627696291,25,up,up,0.5843515000005937,1.820640048615088,,experiment,cRDM,2.0,,,,1944.6874088999996,1011,33,female,True
529,0.4446167627696291,25,down,up,0.5761818999999377,0.938957700634372,,experiment,cRDM,2.0,,,,1946.4705642,1011,33,female,True
530,0.4446167627696291,25,up,down,0.7058460999996896,1.3891696137860332,,experiment,cRDM,2.0,,,,1948.7038948,1011,33,female,True
531,0.4446167627696291,25,down,down,0.92541059999985,0.3992171905328445,,experiment,cRDM,2.0,,,,1950.0703708,1011,33,female,True
532,0.4446167627696291,25,down,up,0.8123696999991807,1.8628770241199315,,experiment,cRDM,2.0,,,,1953.1203947999995,1011,33,female,True
533,0.4446167627696291,25,down,,,0.6546451915603029,,experiment,cRDM,2.0,,,,1954.8536587,1011,33,female,True
534,0.4446167627696291,25,up,up,0.8678696000006312,0.5107827291446079,,experiment,cRDM,2.0,,,,1958.0368777999995,1011,33,female,True
535,0.4446167627696291,25,up,up,0.8839907000001404,1.503507283240315,,experiment,cRDM,2.0,,,,1960.6868281,1011,33,female,True
536,0.4446167627696291,25,up,up,0.8856907999997929,1.0397714080382925,,experiment,cRDM,2.0,,,,1962.8700726,1011,33,female,True
537,0.4446167627696291,25,down,down,0.5404876000002332,0.8836570113361122,,experiment,cRDM,2.0,,,,1964.9033039999997,1011,33,female,True
538,0.4446167627696291,25,down,down,0.6202004999995552,1.873930436604739,,experiment,cRDM,2.0,,,,1967.58656,1011,33,female,True
539,0.4446167627696291,25,up,up,0.8703040999998848,1.113668928948342,,experiment,cRDM,2.0,,,,1969.5864937,1011,33,female,True
540,0.4446167627696291,25,down,down,0.8250698000001648,0.7115837877327444,,experiment,cRDM,2.0,,,,1971.4197255,1011,33,female,True
541,0.4446167627696291,25,up,down,0.6867996999999377,1.7859027895318431,,experiment,cRDM,2.0,,,,1974.3029443999997,1011,33,female,True
542,0.4446167627696291,25,up,down,0.6402310000003126,1.3824710583189477,,experiment,cRDM,2.0,,,,1976.6195340999996,1011,33,female,True
543,0.4446167627696291,25,up,down,0.5550534000003609,1.6420141416728584,,experiment,cRDM,2.0,,,,1979.1527602,1011,33,female,True
544,0.4446167627696291,25,down,down,0.5817443000005369,0.4585069404648295,,experiment,cRDM,2.0,,,,1980.4360552,1011,33,female,True
545,0.4446167627696291,25,down,down,0.383801000000858,0.5471650978471531,,experiment,cRDM,2.0,,,,1981.8193734999995,1011,33,female,True
546,0.4446167627696291,25,up,up,0.6788098000006357,1.8540335985630445,,experiment,cRDM,2.0,,,,1984.3359549,1011,33,female,True
547,0.4446167627696291,25,down,down,0.5636739000001398,1.6014558661600975,,experiment,cRDM,2.0,,,,1986.8690816,1011,33,female,True
548,0.4446167627696291,25,down,down,0.4986737999997785,1.0177914138966284,,experiment,cRDM,2.0,,,,1988.7190899,1011,33,female,True
549,0.4446167627696291,25,up,up,0.6595036999997319,1.6698003180065282,,experiment,cRDM,2.0,,,,1991.1523266999995,1011,33,female,True
550,0.4446167627696291,25,up,up,0.7295651000004,1.286142633314125,,experiment,cRDM,2.0,,,,1993.3522356999997,1011,33,female,True
551,0.4446167627696291,25,down,down,0.5266135000001668,1.553262635794545,,experiment,cRDM,2.0,,,,1995.9021754999997,1011,33,female,True
552,0.4446167627696291,25,up,up,0.6340514000003168,1.717966891862239,,experiment,cRDM,2.0,,,,1998.4187403999997,1011,33,female,True
553,0.4446167627696291,25,down,down,0.6631062000005841,1.605728995085406,,experiment,cRDM,2.0,,,,2000.918662,1011,33,female,True
554,0.4446167627696291,25,down,down,0.9145117999996728,1.084224552997743,,experiment,cRDM,2.0,,,,2002.9352505,1011,33,female,True
555,0.4446167627696291,25,down,down,0.5779419999998936,1.1830895713034415,,experiment,cRDM,2.0,,,,2005.3018187,1011,33,female,True
556,0.4446167627696291,25,up,up,0.6770464999999604,1.8130259187163476,,experiment,cRDM,2.0,,,,2007.9517244,1011,33,female,True
557,0.4446167627696291,25,up,down,0.5252086000000418,0.4114410228867622,,experiment,cRDM,2.0,,,,2009.3016082999995,1011,33,female,True
558,0.4446167627696291,25,down,down,0.5238693000001149,1.9490361226966744,,experiment,cRDM,2.0,,,,2012.034895,1011,33,female,True
559,0.4446167627696291,25,down,down,0.8309058999993795,0.9167725350090592,,experiment,cRDM,2.0,,,,2013.73486,1011,33,female,True
560,0.4446167627696291,25,up,up,0.5650587999998606,1.0050683910098783,,experiment,cRDM,2.0,,,,2015.8347623,1011,33,female,True
561,0.4446167627696291,25,up,down,0.3838494999999966,1.4895552934846266,,experiment,cRDM,2.0,,,,2018.1513482,1011,33,female,True
562,0.4446167627696291,25,up,down,0.884140799999841,0.6058108954028114,,experiment,cRDM,2.0,,,,2019.4346282999995,1011,33,female,True
563,0.4446167627696291,25,up,up,0.891901300000427,0.9821301502610612,,experiment,cRDM,2.0,,,,2021.5678737,1011,33,female,True
564,0.4446167627696291,25,up,up,0.6222888000002058,1.0620033367536246,,experiment,cRDM,2.0,,,,2023.7844771,1011,33,female,True
565,0.4446167627696291,25,down,up,0.7313634000001912,0.6215893297792678,,experiment,cRDM,2.0,,,,2025.2844488,1011,33,female,True
566,0.4446167627696291,25,down,up,0.8184608999999909,1.5693241279693346,,experiment,cRDM,2.0,,,,2027.8343085999995,1011,33,female,True
567,0.4446167627696291,25,up,up,0.6215213000004951,1.9845168548793608,,experiment,cRDM,2.0,,,,2030.8842408,1011,33,female,True
568,0.4446167627696291,25,down,down,0.6390336000004027,0.8859401137996141,,experiment,cRDM,2.0,,,,2032.6507907999996,1011,33,female,True
569,0.4446167627696291,25,down,down,0.5213469000000259,1.0743962358957173,,experiment,cRDM,2.0,,,,2034.6174021,1011,33,female,True
570,0.4446167627696291,25,down,down,0.3839596999996502,1.7045895558671391,,experiment,cRDM,2.0,,,,2037.1006669,1011,33,female,True
571,0.4446167627696291,25,up,down,0.3835668000001533,0.3977925966505845,,experiment,cRDM,2.0,,,,2038.1675233999997,1011,33,female,True
572,0.4446167627696291,25,down,up,0.4002905999996073,1.0463273356326386,,experiment,cRDM,2.0,,,,2039.9005413999996,1011,33,female,True
573,0.4446167627696291,25,down,down,0.4167864000000918,0.8592607344910692,,experiment,cRDM,2.0,,,,2041.4338113999995,1011,33,female,True
574,0.4446167627696291,25,down,down,0.6633394999998927,0.9986758646505004,,experiment,cRDM,2.0,,,,2043.1004286,1011,33,female,True
575,0.4446167627696291,25,up,up,0.6558752000000823,1.134537311207654,,experiment,cRDM,2.0,,,,2045.1669016,1011,33,female,True
576,0.4446167627696291,25,up,down,0.5694965000002412,1.3345703855865034,,experiment,cRDM,2.0,,,,2047.4002679,1011,33,female,True
577,0.4446167627696291,25,down,down,0.6746496999994633,1.465962550862828,,experiment,cRDM,2.0,,,,2049.7001735999997,1011,33,female,True
578,0.4446167627696291,25,up,up,0.8483152999997401,0.6457877291822574,,experiment,cRDM,2.0,,,,2051.2834966,1011,33,female,True
579,0.4446167627696291,25,down,down,0.350540400000682,0.3961602769059226,,experiment,cRDM,2.0,,,,2052.7834367,1011,33,female,True
580,0.4446167627696291,25,up,up,0.4703520000002754,0.5128051270775833,,experiment,cRDM,2.0,,,,2053.9834039,1011,33,female,True
581,0.4446167627696291,25,up,down,0.5054969000002529,0.8256903279252734,,experiment,cRDM,2.0,,,,2055.5333119,1011,33,female,True
582,147.0,25,M,down,1.9152505999991265,0.4519645097164944,,experiment,emotion,2.0,,,,2239.2265400999995,1011,33,female,True
583,115.0,25,M,down,0.7667921000002025,0.7277966049518831,,experiment,emotion,2.0,,,,2242.1430078999992,1011,33,female,True
584,136.0,25,F,down,0.6237694000001284,1.6812947753333354,,experiment,emotion,2.0,,,,2244.8930103,1011,33,female,True
585,147.0,25,F,down,0.4579354999996212,0.6515084838031926,,experiment,emotion,2.0,,,,2246.4428677,1011,33,female,True
586,136.0,25,M,down,0.7872250999998869,1.34478554626068,,experiment,emotion,2.0,,,,2248.5095592,1011,33,female,True
587,126.0,25,F,down,0.7350000000005821,1.8023660040745917,,experiment,emotion,2.0,,,,2251.3927881,1011,33,female,True
588,115.0,25,M,down,0.5934423999997307,1.7608973358161817,,experiment,emotion,2.0,,,,2254.1593416,1011,33,female,True
589,126.0,25,M,down,0.4992915999991965,0.9216610868437904,,experiment,emotion,2.0,,,,2255.9425595,1011,33,female,True
590,147.0,25,F,down,0.6455358999992313,1.2903482495337713,,experiment,emotion,2.0,,,,2258.0092018999994,1011,33,female,True
591,126.0,25,F,down,0.7149288000000524,0.7131897412052417,,experiment,emotion,2.0,,,,2259.6257971999994,1011,33,female,True
592,136.0,25,F,down,0.7694343000002846,0.8132589859675141,,experiment,emotion,2.0,,,,2261.4423262,1011,33,female,True
593,147.0,25,F,down,0.5811239000004207,1.7845324374865317,,experiment,emotion,2.0,,,,2264.2756449,1011,33,female,True
594,136.0,25,F,down,0.991202200000771,0.6028442742519327,,experiment,emotion,2.0,,,,2265.7255795,1011,33,female,True
595,115.0,25,F,down,0.6730456999994203,1.9280238702886272,,experiment,emotion,2.0,,,,2268.958738,1011,33,female,True
596,126.0,25,M,down,0.6241018000000622,1.8509201398380724,,experiment,emotion,2.0,,,,2271.8086766999995,1011,33,female,True
597,115.0,25,M,down,0.6673036000001957,1.3430812866398745,,experiment,emotion,2.0,,,,2274.0584818,1011,33,female,True
598,147.0,25,M,down,0.9302723000000696,1.9062663497801111,,experiment,emotion,2.0,,,,2276.9585185999995,1011,33,female,True
599,115.0,25,M,down,0.8456718999996156,1.563128524093727,,experiment,emotion,2.0,,,,2279.7250736,1011,33,female,True
600,136.0,25,F,up,0.5851529000001392,0.8617857015279882,,experiment,emotion,2.0,,,,2281.7416350999997,1011,33,female,True
601,136.0,25,M,up,0.6251928000001499,1.2600570039844337,,experiment,emotion,2.0,,,,2283.8415815,1011,33,female,True
602,126.0,25,M,up,0.7909094000006007,0.6908642039850366,,experiment,emotion,2.0,,,,2285.4248689,1011,33,female,True
603,126.0,25,F,down,1.4849871000005803,0.8826093854751611,,experiment,emotion,2.0,,,,2287.3747918,1011,33,female,True
604,115.0,25,M,down,0.744454599999699,1.256511952884287,,experiment,emotion,2.0,,,,2290.3913411999997,1011,33,female,True
605,147.0,25,F,down,1.244555300000684,1.8629750951124864,,experiment,emotion,2.0,,,,2293.2912355,1011,33,female,True
606,136.0,25,F,down,1.786232999999811,0.3564690639889915,,experiment,emotion,2.0,,,,2295.1745243999994,1011,33,female,True
607,115.0,25,M,down,0.7077407999995557,1.857102042120025,,experiment,emotion,2.0,,,,2299.0910371,1011,33,female,True
608,147.0,25,M,down,0.518195999999989,1.786871170228813,,experiment,emotion,2.0,,,,2301.8575797999997,1011,33,female,True
609,147.0,25,F,down,0.4919499000006908,0.834064926796088,,experiment,emotion,2.0,,,,2303.4908576,1011,33,female,True
610,126.0,25,M,down,0.5200057000001834,1.862615086222967,,experiment,emotion,2.0,,,,2306.1407733999995,1011,33,female,True
611,115.0,25,F,down,0.5390838000002987,1.2150271281201015,,experiment,emotion,2.0,,,,2308.1406882,1011,33,female,True
612,126.0,25,F,down,0.4904409000000669,0.455780337623454,,experiment,emotion,2.0,,,,2309.407326,1011,33,female,True
613,136.0,25,F,down,0.3832365999996909,0.4803355244744176,,experiment,emotion,2.0,,,,2310.6575305,1011,33,female,True
614,115.0,25,M,down,0.3335544000001391,0.9020670592234016,,experiment,emotion,2.0,,,,2312.2405199999994,1011,33,female,True
615,147.0,25,M,down,0.4776549999996859,0.6851369900909956,,experiment,emotion,2.0,,,,2313.6071655,1011,33,female,True
616,136.0,25,M,down,0.5223756999994293,0.9750326140314164,,experiment,emotion,2.0,,,,2315.3404166,1011,33,female,True
617,147.0,25,F,down,0.5561631000000489,1.9480574714866608,,experiment,emotion,2.0,,,,2318.0736738,1011,33,female,True
618,115.0,25,F,up,0.350124899999173,0.5130229569917268,,experiment,emotion,2.0,,,,2319.4069471,1011,33,female,True
619,136.0,25,M,up,0.7182579999998779,1.7772767009171209,,experiment,emotion,2.0,,,,2321.8735242,1011,33,female,True
620,126.0,25,F,down,0.7826759999998103,0.9120876799248154,,experiment,emotion,2.0,,,,2323.7901151999995,1011,33,female,True
621,126.0,25,M,up,0.3335680999998658,0.6217464707014186,,experiment,emotion,2.0,,,,2325.4566806,1011,33,female,True
622,136.0,25,M,down,1.6767964000000577,1.0074414229962694,,experiment,emotion,2.0,,,,2327.1399917,1011,33,female,True
623,147.0,25,M,up,0.7862900999998601,1.917788013458762,,experiment,emotion,2.0,,,,2331.00653,1011,33,female,True
624,126.0,25,F,down,0.7082592999995541,1.8770388984898947,,experiment,emotion,2.0,,,,2333.9397321,1011,33,female,True
625,115.0,25,F,down,0.7621203999997306,0.8526249720200159,,experiment,emotion,2.0,,,,2335.7896848,1011,33,female,True
626,115.0,25,M,down,0.7825361000004705,1.3805060673091183,,experiment,emotion,2.0,,,,2338.2062484,1011,33,female,True
627,126.0,25,F,down,0.4776118999998289,0.8584011366047681,,experiment,emotion,2.0,,,,2340.1061942,1011,33,female,True
628,147.0,25,F,up,0.5497597000003225,0.3419041454593126,,experiment,emotion,2.0,,,,2341.2061510999997,1011,33,female,True
629,136.0,25,M,up,0.509797200000321,1.715634163808668,,experiment,emotion,2.0,,,,2343.755999,1011,33,female,True
630,115.0,25,M,up,0.4351269999997385,1.8701068387130475,,experiment,emotion,2.0,,,,2346.4226374,1011,33,female,True
631,147.0,25,F,up,0.7568892999997843,1.8749591808961432,,experiment,emotion,2.0,,,,2349.0058676,1011,33,female,True
632,136.0,25,M,up,0.4947371999996903,0.8321740228794385,,experiment,emotion,2.0,,,,2350.8560762,1011,33,female,True
633,136.0,25,F,up,1.273418899999342,1.7078654519997147,,experiment,emotion,2.0,,,,2353.3223709999997,1011,33,female,True
634,115.0,25,F,up,0.7298924999995506,0.3095918954701238,,experiment,emotion,2.0,,,,2355.1889685999995,1011,33,female,True
635,126.0,25,F,up,0.6319269999994503,0.6906493723883685,,experiment,emotion,2.0,,,,2356.8889063,1011,33,female,True
636,147.0,25,M,up,0.5527097999993202,1.491837129837076,,experiment,emotion,2.0,,,,2359.2721509,1011,33,female,True
637,126.0,25,M,down,0.8267236000001503,0.9526675295387554,,experiment,emotion,2.0,,,,2361.0720675,1011,33,female,True
638,126.0,25,F,up,0.634436999999707,0.8292938673361416,,experiment,emotion,2.0,,,,2363.0053552,1011,33,female,True
639,126.0,25,F,up,0.6145261000001483,1.3033411310975564,,experiment,emotion,2.0,,,,2365.2052636,1011,33,female,True
640,147.0,25,M,up,0.7932850999995935,1.746364906280373,,experiment,emotion,2.0,,,,2367.838479,1011,33,female,True
641,136.0,25,M,up,1.140013600000202,0.7020849277995502,,experiment,emotion,2.0,,,,2369.6217449999995,1011,33,female,True
642,115.0,25,M,down,0.7524264000003313,0.4338128315391405,,experiment,emotion,2.0,,,,2371.4883660999994,1011,33,female,True
643,115.0,25,M,up,0.5684742000003098,0.4687525066853275,,experiment,emotion,2.0,,,,2372.9883117,1011,33,female,True
644,136.0,25,M,down,0.350213700000495,0.3928982448825112,,experiment,emotion,2.0,,,,2374.2215952,1011,33,female,True
645,147.0,25,F,up,0.6646166999998968,0.8463835424269062,,experiment,emotion,2.0,,,,2375.7381882,1011,33,female,True
646,147.0,25,F,up,0.6069885999995677,0.8270982560566904,,experiment,emotion,2.0,,,,2377.5048029,1011,33,female,True
647,115.0,25,M,down,0.954398900000342,0.7260426991515468,,experiment,emotion,2.0,,,,2379.1214303,1011,33,female,True
648,147.0,25,F,up,0.6994408000000476,0.9685961131551082,,experiment,emotion,2.0,,,,2381.3213448,1011,33,female,True
649,126.0,25,F,down,0.7495447999999669,1.36107113007481,,experiment,emotion,2.0,,,,2383.6712482,1011,33,female,True
650,136.0,25,F,up,0.6595935999994254,0.5217836971121167,,experiment,emotion,2.0,,,,2385.2211981,1011,33,female,True
651,126.0,25,M,down,0.5680056000001059,0.7917958598133958,,experiment,emotion,2.0,,,,2386.9377859,1011,33,female,True
652,115.0,25,F,down,1.0340901999998096,1.3622486575767472,,experiment,emotion,2.0,,,,2389.1377041,1011,33,female,True
653,136.0,25,F,down,1.5671731000002185,1.2580504186779102,,experiment,emotion,2.0,,,,2391.6876159999997,1011,33,female,True
654,126.0,25,F,down,0.681630000000041,1.882703836364902,,experiment,emotion,2.0,,,,2395.4041445,1011,33,female,True
655,136.0,25,M,down,0.534674300000006,0.5971139805139936,,experiment,emotion,2.0,,,,2396.9541157999997,1011,33,female,True
656,115.0,25,M,down,0.5591450000001714,1.9591491134625647,,experiment,emotion,2.0,,,,2399.7206436,1011,33,female,True
657,147.0,25,F,down,0.5422463999993852,1.3361483571981383,,experiment,emotion,2.0,,,,2401.9205643999994,1011,33,female,True
658,136.0,25,M,down,0.4265864999997575,1.255348306279309,,experiment,emotion,2.0,,,,2403.9871889,1011,33,female,True
659,147.0,25,F,down,0.6300096999993912,1.6270740604063212,,experiment,emotion,2.0,,,,2406.3037810999995,1011,33,female,True
660,115.0,25,M,down,0.4001825999994253,0.9841414586767931,,experiment,emotion,2.0,,,,2408.1870019,1011,33,female,True
661,126.0,25,M,down,0.4601956000005884,0.8074828482983314,,experiment,emotion,2.0,,,,2409.7036201,1011,33,female,True
662,0.4446167627696291,25,up,down,1.2843935000000783,0.848069201610778,,experiment,cRDM,3.0,,,,2421.6363997,1011,33,female,True
663,0.4446167627696291,25,up,up,0.545581299999867,0.6180533439257718,,experiment,cRDM,3.0,,,,2423.7864752999994,1011,33,female,True
664,0.4446167627696291,25,down,down,0.5301081999996313,1.390629235926249,,experiment,cRDM,3.0,,,,2425.9696858,1011,33,female,True
665,0.4446167627696291,25,down,down,0.6228436999999758,1.8966617764204068,,experiment,cRDM,3.0,,,,2428.6529494,1011,33,female,True
666,0.4446167627696291,25,up,up,0.705323899999712,1.8035850530096775,,experiment,cRDM,3.0,,,,2431.3194935,1011,33,female,True
667,0.4446167627696291,25,down,down,0.4459601999997176,1.3796264139100896,,experiment,cRDM,3.0,,,,2433.686071,1011,33,female,True
668,0.4446167627696291,25,up,down,0.6987579999995432,0.481244093517778,,experiment,cRDM,3.0,,,,2434.8860417999995,1011,33,female,True
669,0.4446167627696291,25,up,up,0.6241448000000673,1.801153702714704,,experiment,cRDM,3.0,,,,2437.6526607999995,1011,33,female,True
670,0.4446167627696291,25,down,up,0.4882454999997208,1.1640591795611843,,experiment,cRDM,3.0,,,,2439.7025264999997,1011,33,female,True
671,0.4446167627696291,25,down,down,0.4167698999999629,1.0918840984627056,,experiment,cRDM,3.0,,,,2441.5524939,1011,33,female,True
672,0.4446167627696291,25,down,down,0.3837255000007644,0.719949308970971,,experiment,cRDM,3.0,,,,2442.9524311,1011,33,female,True
673,0.4446167627696291,25,down,down,0.4277873000000909,0.335826943263414,,experiment,cRDM,3.0,,,,2443.9690249999994,1011,33,female,True
674,0.4446167627696291,25,down,down,0.5314599000003,1.0094322844085049,,experiment,cRDM,3.0,,,,2445.6523290999994,1011,33,female,True
675,0.4446167627696291,25,down,down,0.5022272000005614,1.1536124170217956,,experiment,cRDM,3.0,,,,2447.5855615,1011,33,female,True
676,0.4446167627696291,25,up,up,0.5995883999994476,0.9984553044725336,,experiment,cRDM,3.0,,,,2449.3522078999995,1011,33,female,True
677,0.4446167627696291,25,up,down,0.5367118000003757,1.8771367099385887,,experiment,cRDM,3.0,,,,2452.1020794,1011,33,female,True
678,0.4446167627696291,25,up,down,1.4358164000004765,1.616906610140615,,experiment,cRDM,3.0,,,,2454.5019730999998,1011,33,female,True
679,0.4446167627696291,25,up,up,0.634840499999882,1.247786033441623,,experiment,cRDM,3.0,,,,2457.451931,1011,33,female,True
680,0.4446167627696291,25,down,down,0.591984699999557,1.453304307897237,,experiment,cRDM,3.0,,,,2459.8017939,1011,33,female,True
681,0.4446167627696291,25,up,up,0.5934755999996923,0.5664003375793614,,experiment,cRDM,3.0,,,,2461.2184038,1011,33,female,True
682,0.4446167627696291,25,up,down,0.4754477999995288,0.7486468339653969,,experiment,cRDM,3.0,,,,2462.818349,1011,33,female,True
683,0.4446167627696291,25,down,up,0.5521646000006513,0.8029142102752447,,experiment,cRDM,3.0,,,,2464.3516618999997,1011,33,female,True
684,0.4446167627696291,25,up,,,1.3295210540359377,,experiment,cRDM,3.0,,,,2466.4849004,1011,33,female,True
685,0.4446167627696291,25,down,up,0.7023346999994828,0.5805602355644777,,experiment,cRDM,3.0,,,,2469.7514549,1011,33,female,True
686,0.4446167627696291,25,down,down,0.2505326000000423,0.9975324107901014,,experiment,cRDM,3.0,,,,2471.7180058999998,1011,33,female,True
687,0.4446167627696291,25,up,up,0.5501812000002246,1.9343912999959971,,experiment,cRDM,3.0,,,,2474.3346132,1011,33,female,True
688,0.4446167627696291,25,up,down,0.3004944000003888,0.703324837861929,,experiment,cRDM,3.0,,,,2475.8512114999994,1011,33,female,True
689,0.4446167627696291,25,down,up,0.4168041999992056,1.220953347690872,,experiment,cRDM,3.0,,,,2477.7678116,1011,33,female,True
690,0.4446167627696291,25,up,down,0.4002670999998372,1.364066332506187,,experiment,cRDM,3.0,,,,2479.8010469,1011,33,female,True
691,0.4446167627696291,25,down,up,0.5414362000001347,0.3474721502738014,,experiment,cRDM,3.0,,,,2480.8343565999994,1011,33,female,True
692,0.4446167627696291,25,down,down,0.3671634000002086,1.5810914624993306,,experiment,cRDM,3.0,,,,2483.2175882,1011,33,female,True
693,0.4446167627696291,25,down,down,1.376623099999961,0.8274014749712284,,experiment,cRDM,3.0,,,,2484.7341896,1011,33,female,True
694,0.4446167627696291,25,up,up,0.5057901999998649,1.650007929751717,,experiment,cRDM,3.0,,,,2488.0340616999997,1011,33,female,True
695,0.4446167627696291,25,up,down,0.5251121000001149,0.6436634089013079,,experiment,cRDM,3.0,,,,2489.4506644,1011,33,female,True
696,0.4446167627696291,25,up,up,0.3671561999999539,0.3689706472771294,,experiment,cRDM,3.0,,,,2490.6006613,1011,33,female,True
697,0.4446167627696291,25,down,down,0.6748502999998891,0.9062266876088354,,experiment,cRDM,3.0,,,,2492.1839368,1011,33,female,True
698,0.4446167627696291,25,down,up,0.6853122000002259,1.57545520795791,,experiment,cRDM,3.0,,,,2494.7004983,1011,33,female,True
699,0.4446167627696291,25,up,down,0.2837954999995418,1.0070409709092034,,experiment,cRDM,3.0,,,,2496.6504678,1011,33,female,True
700,0.4446167627696291,25,down,up,0.3505546000005779,0.3587700459792122,,experiment,cRDM,3.0,,,,2497.7004007,1011,33,female,True
701,0.4446167627696291,25,up,down,0.250460799999928,0.6884183152432037,,experiment,cRDM,3.0,,,,2499.0670144,1011,33,female,True
702,0.4446167627696291,25,up,up,0.6398230999993757,1.1361605598600168,,experiment,cRDM,3.0,,,,2500.8669707,1011,33,female,True
703,0.4446167627696291,25,up,up,0.8905895999996574,1.0408005338647994,,experiment,cRDM,3.0,,,,2502.8001954,1011,33,female,True
704,0.4446167627696291,25,down,down,0.7460363000000143,1.865290116534797,,experiment,cRDM,3.0,,,,2505.8167613,1011,33,female,True
705,0.4446167627696291,25,down,up,0.7581648999994286,0.8866816184647968,,experiment,cRDM,3.0,,,,2507.7166861999995,1011,33,female,True
706,0.4446167627696291,25,up,down,0.3671673999997438,1.3893150245417814,,experiment,cRDM,3.0,,,,2510.1332535,1011,33,female,True
707,0.4446167627696291,25,down,down,0.5646296999993865,1.5690442861369116,,experiment,cRDM,3.0,,,,2512.3831973,1011,33,female,True
708,0.4446167627696291,25,down,down,0.6536469000002398,1.069576760148485,,experiment,cRDM,3.0,,,,2514.2831123,1011,33,female,True
709,0.4446167627696291,25,up,up,0.4387380999996821,0.4821060810417545,,experiment,cRDM,3.0,,,,2515.6830623999995,1011,33,female,True
710,0.4446167627696291,25,up,down,0.4494678999999451,1.9775502890504304,,experiment,cRDM,3.0,,,,2518.3663295999995,1011,33,female,True
711,0.4446167627696291,25,down,,,1.316410722101021,,experiment,cRDM,3.0,,,,2520.3995582,1011,33,female,True
712,0.4446167627696291,25,up,up,0.5803496999997151,0.3739773771499441,,experiment,cRDM,3.0,,,,2523.4494763,1011,33,female,True
713,0.4446167627696291,25,down,down,0.5474254000000656,1.358358707810945,,experiment,cRDM,3.0,,,,2525.6493649999998,1011,33,female,True
714,0.4446167627696291,25,down,up,0.566490000000158,1.2888533522304415,,experiment,cRDM,3.0,,,,2527.749314,1011,33,female,True
715,0.4446167627696291,25,down,down,1.578362900000684,0.8005546352069783,,experiment,cRDM,3.0,,,,2529.3825394,1011,33,female,True
716,0.4446167627696291,25,up,up,0.6103885000002265,1.4025900941147558,,experiment,cRDM,3.0,,,,2532.6324380999995,1011,33,female,True
717,0.4446167627696291,25,up,down,0.7851175000005242,1.8035245461101228,,experiment,cRDM,3.0,,,,2535.3156844,1011,33,female,True
718,0.4446167627696291,25,down,down,0.7615572000004249,1.81872974059149,,experiment,cRDM,3.0,,,,2538.1822372999995,1011,33,female,True
719,0.4446167627696291,25,down,down,0.674215699999877,0.7573140080831728,,experiment,cRDM,3.0,,,,2539.9655798999997,1011,33,female,True
720,0.4446167627696291,25,up,up,0.7606794000002992,0.5401905822863713,,experiment,cRDM,3.0,,,,2541.4321137,1011,33,female,True
721,0.4446167627696291,25,up,down,0.9284077000002072,1.3884741402940384,,experiment,cRDM,3.0,,,,2543.8654228999994,1011,33,female,True
722,0.4446167627696291,25,up,down,0.7768299999997907,0.6331330363070968,,experiment,cRDM,3.0,,,,2545.6819737,1011,33,female,True
723,0.4446167627696291,25,up,down,0.6585101000000577,0.4431591220813711,,experiment,cRDM,3.0,,,,2547.1652852,1011,33,female,True
724,0.4446167627696291,25,up,down,0.3668829999996887,0.950908078983416,,experiment,cRDM,3.0,,,,2549.0487671,1011,33,female,True
725,0.4446167627696291,25,down,down,0.5099926999992022,0.9567727860983888,,experiment,cRDM,3.0,,,,2550.6817796999994,1011,33,female,True
726,0.4446167627696291,25,down,down,0.5632611999999426,0.3350198586241079,,experiment,cRDM,3.0,,,,2551.7817539,1011,33,female,True
727,0.4446167627696291,25,up,down,0.3506148000005851,0.7222420220993521,,experiment,cRDM,3.0,,,,2553.3316726,1011,33,female,True
728,0.4446167627696291,25,down,,,1.6031849416157815,,experiment,cRDM,3.0,,,,2555.6149416,1011,33,female,True
729,0.4446167627696291,25,down,down,0.434922400000687,1.365481736142376,,experiment,cRDM,3.0,,,,2559.6648357999998,1011,33,female,True
730,0.4446167627696291,25,down,down,0.4168346999995265,0.5057931613504796,,experiment,cRDM,3.0,,,,2560.8647653,1011,33,female,True
