,stimLvl,stimTime,rand,response,rt,precedingITI,trialNumber,trialType,stimuli,block,estIntens,estThres,estSlope,trialStart,subject,age,gender,headRest
0,150.0,100,F,,,0.3649101133612674,,introTrial,emotion,,,,,340.8098042999991,1009,20,female,True
1,0.9,100,down,,,1.7454981136062742,,introTrial,cRDM,,,,,346.4761600999991,1009,20,female,True
2,200.0,25,F,up,0.7712972999979684,1.1739337169868298,,tutorial,emotion,,,,,397.7910531999987,1009,20,female,True
3,200.0,25,M,up,0.462102400000731,1.835574858857944,,tutorial,emotion,,,,,400.6742841999985,1009,20,female,True
4,200.0,25,F,up,0.3835311999973783,1.938578014605199,,tutorial,emotion,,,,,403.3574632999989,1009,20,female,True
5,0.0,25,M,down,0.5685701000002155,1.9816640475608005,,tutorial,emotion,,,,,406.0907651999987,1009,20,female,True
6,0.0,25,F,down,0.8715349999984028,0.3384677132939593,,tutorial,emotion,,,,,407.27382729999954,1009,20,female,True
7,200.0,25,M,down,0.5438164000006509,1.8092592541053265,,tutorial,emotion,,,,,410.2405786999989,1009,20,female,True
8,0.0,25,M,down,0.7081369000006816,0.3485977309279712,,tutorial,emotion,,,,,411.4072115999989,1009,20,female,True
9,200.0,25,F,up,0.5907331000016711,1.3714229810433234,,tutorial,emotion,,,,,413.77361409999867,1009,20,female,True
10,0.0,25,M,down,0.5663697999989381,0.5236253020427054,,tutorial,emotion,,,,,415.1570111999972,1009,20,female,True
11,0.0,25,F,down,0.5859909999999218,1.976511829762304,,tutorial,emotion,,,,,417.9903331999994,1009,20,female,True
12,0.9,25,up,up,0.4202858999997261,0.6717331968286413,,tutorial,cRDM,,,,,428.0730758999998,1009,20,female,True
13,0.9,25,up,up,0.367236199999752,0.3070157188631253,,tutorial,cRDM,,,,,429.0731409999971,1009,20,female,True
14,0.9,25,down,down,0.4242005999985849,0.760938487023604,,tutorial,cRDM,,,,,430.52316959999735,1009,20,female,True
15,0.9,25,down,down,0.5536250000004657,1.6245838181361043,,tutorial,cRDM,,,,,432.839746499998,1009,20,female,True
16,0.9,25,up,up,0.3838369000004604,1.6487968973891032,,tutorial,cRDM,,,,,435.3063264999983,1009,20,female,True
17,0.9,25,down,down,0.4720613999998022,1.3991542379474091,,tutorial,cRDM,,,,,437.406269199997,1009,20,female,True
18,0.9,25,up,up,0.716492700001254,1.2743699097138126,,tutorial,cRDM,,,,,439.4228511999973,1009,20,female,True
19,0.9,25,up,up,0.4945843999994395,1.7981251660883466,,tutorial,cRDM,,,,,442.222735299998,1009,20,female,True
20,0.9,25,down,down,0.4463758999991114,0.9770294503629504,,tutorial,cRDM,,,,,443.95598999999856,1009,20,female,True
21,0.9,25,down,down,0.5360086000000592,1.085873767936739,,tutorial,cRDM,,,,,445.7392896999991,1009,20,female,True
22,100.0,25,M,up,0.3834525999991456,1.786389140291793,,psi_staircase_training,emotion,,100.0,100.0,25.00050000000001,457.60552649999954,1009,20,female,True
23,55.0,25,M,down,0.6302433999990171,1.2855096693751833,,psi_staircase_training,emotion,,54.7428094675419,54.7428094675419,25.00050000000011,459.6720931999989,1009,20,female,True
24,79.0,25,F,down,0.5503377999993972,1.580078730762987,,psi_staircase_training,emotion,,79.636070985635,79.636070985635,25.713269254886413,462.22202639999887,1009,20,female,True
25,103.0,25,F,down,0.4647724000024027,1.880552375949632,,psi_staircase_training,emotion,,97.61123893914808,97.61123893914808,26.1463337262867,465.0385926999989,1009,20,female,True
26,127.0,25,M,up,0.447903000000224,1.432782837262348,,psi_staircase_training,emotion,,117.15641007867752,117.15641007867752,31.432291447829705,467.2885092999968,1009,20,female,True
27,116.0,25,F,up,0.5889457999983279,0.8436439686311121,,psi_staircase_training,emotion,,105.03864224082596,105.03864224082596,29.694064005485792,468.9384192999969,1009,20,female,True
28,88.0,25,M,down,0.4001859999989392,0.9296547946273492,,psi_staircase_training,emotion,,98.16151255584974,98.16151255584974,27.875884705401127,470.8216850999997,1009,20,female,True
29,116.0,25,F,up,0.4170989000012923,1.269699361318826,,psi_staircase_training,emotion,,103.47850698803556,103.47850698803556,26.16750556784877,472.8382658999981,1009,20,female,True
30,88.0,25,F,down,0.775132400001894,0.9443064952607793,,psi_staircase_training,emotion,,99.56005942312154,99.56005942312154,24.06105184598684,474.5382076999995,1009,20,female,True
31,114.0,25,M,up,0.7427981999971962,0.6906897826136573,,psi_staircase_training,emotion,,102.72882116735806,102.72882116735806,21.995508974139536,476.3714779000002,1009,20,female,True
32,91.0,25,F,down,0.6249760999999125,1.5339430499392286,,psi_staircase_training,emotion,,100.16193162697256,100.16193162697256,19.864494810872905,479.0213815999996,1009,20,female,True
33,111.0,25,F,down,0.6666786999994656,0.3470483291879605,,psi_staircase_training,emotion,,102.4211771670208,102.4211771670208,17.85650179871387,480.354641599999,1009,20,female,True
34,124.0,25,F,up,0.5000523000016983,0.3298912304375309,,psi_staircase_training,emotion,,107.30642837932848,107.30642837932848,22.871454661285057,481.7212903999971,1009,20,female,True
35,122.0,25,M,up,0.7402368000002753,1.8801868838314055,,psi_staircase_training,emotion,,105.61221779373751,105.61221779373751,20.87066499523032,484.4711021000003,1009,20,female,True
36,91.0,25,M,down,0.6205889999982901,1.090399907023015,,psi_staircase_training,emotion,,104.41082160618552,104.41082160618552,19.14693168673465,486.6377675999975,1009,20,female,True
37,93.0,25,F,down,0.8903119999995397,1.7060119429168554,,psi_staircase_training,emotion,,105.75066642869768,105.75066642869768,17.404320035846332,489.32100569999966,1009,20,female,True
38,119.0,25,F,up,0.3836835000001883,1.425897507341299,,psi_staircase_training,emotion,,106.79159857760789,106.79159857760789,15.908847745809137,491.97070149999854,1009,20,female,True
39,109.0,25,M,down,1.4592511000009836,1.314329436581424,,psi_staircase_training,emotion,,105.8844079360228,105.8844079360228,14.39895198796918,494.07108049999806,1009,20,female,True
40,109.0,25,M,up,0.9840196000004652,1.8733395861920052,,psi_staircase_training,emotion,,108.22895922829372,108.22895922829372,14.71936413218114,497.7373467999969,1009,20,female,True
41,93.0,25,M,down,0.8197192999978142,0.8630619970530422,,psi_staircase_training,emotion,,106.33417897738222,106.33417897738222,15.379288928801392,499.9206147999976,1009,20,female,True
42,120.0,25,M,up,1.3115099999995437,1.2818314180750618,,psi_staircase_training,emotion,,106.97749781974608,106.97749781974608,14.1361252688041,502.3708243999972,1009,20,female,True
43,96.0,25,F,down,0.7699637000005168,1.5614902492982954,,psi_staircase_training,emotion,,106.44256748332116,106.44256748332116,12.999642369649468,505.6204085999998,1009,20,female,True
44,98.0,25,F,down,0.6176830000003974,0.6665359136394888,,psi_staircase_training,emotion,,107.03895070862752,107.03895070862752,11.998957502824153,507.4036850999983,1009,20,female,True
45,118.0,25,F,up,0.5804806999985885,1.285945035650262,,psi_staircase_training,emotion,,107.58262523934776,107.58262523934776,11.153765024613536,509.6369143999982,1009,20,female,True
46,101.0,25,M,down,0.6184427000007418,0.7587603923198344,,psi_staircase_training,emotion,,107.15525041298125,107.15525041298125,10.336956491466534,511.3368722999985,1009,20,female,True
47,103.0,25,M,down,1.7109098000000813,0.7424590570260141,,psi_staircase_training,emotion,,107.75265090053874,107.75265090053874,9.67623150343749,513.0534446999991,1009,20,female,True
48,105.0,25,F,down,0.9800439999999072,1.0547014446694407,,psi_staircase_training,emotion,,108.368302026453,108.368302026453,9.117955351838969,516.1533399,1009,20,female,True
49,106.0,25,F,up,0.8367556000011973,1.5759725130481794,,psi_staircase_training,emotion,,109.0263949641854,109.0263949641854,8.648625696941783,519.0865814999997,1009,20,female,True
50,117.0,25,M,down,1.361557000000175,1.3432560853829718,,psi_staircase_training,emotion,,107.84666826196734,107.84666826196734,9.511250707559974,521.6198095999971,1009,20,female,True
51,123.0,25,M,down,1.7173953999990772,0.3099973414719714,,psi_staircase_training,emotion,,109.54654789327437,109.54654789327437,12.680778933268064,523.6529774999981,1009,20,female,True
52,0.29,25,up,up,0.5052628999983426,0.4486430391252623,,psi_staircase_training,cRDM,,0.25,0.2569312402994632,0.105,531.4861247999979,1009,20,female,True
53,0.25,25,up,down,0.3671245000005001,1.607250529415786,,psi_staircase_training,cRDM,,0.2191026665318312,0.2260132002683492,0.1046863203387393,533.8693739999981,1009,20,female,True
54,0.36,25,down,down,0.4002633999989484,1.775106073343815,,psi_staircase_training,cRDM,,0.3202997408361979,0.3276103223604739,0.1107465658214764,536.3359257999982,1009,20,female,True
55,0.33,25,down,down,1.0781231999972078,0.7379107190660444,,psi_staircase_training,cRDM,,0.2990372097977385,0.3064139828071687,0.1117492876491608,537.7692209999987,1009,20,female,True
56,0.31,25,up,up,0.6835790000004636,1.766021663669643,,psi_staircase_training,cRDM,,0.2780189805609542,0.2853981109641391,0.1117849993448387,540.8857723999972,1009,20,female,True
57,0.31,25,down,down,0.4513398999988567,1.0761344671382225,,psi_staircase_training,cRDM,,0.2582073586141265,0.2655339603556145,0.1109892529502702,542.9190143999986,1009,20,female,True
58,0.29,25,up,up,0.4992196999992302,1.0936437585619685,,psi_staircase_training,cRDM,,0.2413824040928039,0.2485489846939696,0.1085651240775294,544.7521388999994,1009,20,female,True
59,0.24,25,down,down,0.445472499999596,1.1038097848664057,,psi_staircase_training,cRDM,,0.2254490558334334,0.2325152283915249,0.107044062324179,546.6188909999983,1009,20,female,True
60,0.24,25,down,down,0.617160400001012,1.4814448587018072,,psi_staircase_training,cRDM,,0.2047474993923183,0.2122731702078401,0.1140049113130558,548.8021655999983,1009,20,female,True
61,0.23,25,up,down,0.9769233000006352,1.580315129599548,,psi_staircase_training,cRDM,,0.1850396237580905,0.1928548615388246,0.1183915044816175,551.2854063999985,1009,20,female,True
62,0.3,25,down,down,0.6330629000003682,1.2479834622865078,,psi_staircase_training,cRDM,,0.2473427156657095,0.2546333010435143,0.1104436481200593,553.7853106999974,1009,20,female,True
63,0.27,25,down,down,0.9765279999992345,1.9320835128960872,,psi_staircase_training,cRDM,,0.2368086877340671,0.2438399713195461,0.1065155361202039,556.6518372999999,1009,20,female,True
64,0.24,25,down,down,0.9049688000013704,0.6670722879684827,,psi_staircase_training,cRDM,,0.224518354876968,0.2316368477711804,0.1078366528354498,558.5683573999995,1009,20,female,True
65,0.23,25,up,up,0.586312800001906,1.7431989773201506,,psi_staircase_training,cRDM,,0.209206043971849,0.2169066774968508,0.1166553870867533,561.485015299997,1009,20,female,True
66,0.23,25,up,down,0.4867204000001948,0.5616056896340724,,psi_staircase_training,cRDM,,0.1935636153002167,0.201806700378545,0.1248728792870582,562.9016308999999,1009,20,female,True
67,0.28,25,down,down,0.5694356999993033,0.5683073012287205,,psi_staircase_training,cRDM,,0.237870873382124,0.2449448489058278,0.107162267919987,564.2349082999972,1009,20,female,True
68,0.27,25,down,down,0.90441120000105,0.4838043295951645,,psi_staircase_training,cRDM,,0.2299086264889353,0.2367737079204299,0.1039977722836644,565.5848974,1009,20,female,True
69,0.23,25,up,up,0.588604699998541,1.3697362875151862,,psi_staircase_training,cRDM,,0.2222227935976495,0.2289821658667678,0.1023964049136163,568.134767399999,1009,20,female,True
70,0.22,25,up,down,0.5226203999991412,1.7795175710564426,,psi_staircase_training,cRDM,,0.2095834373457251,0.2171013797894367,0.1138878357241267,570.7846981999974,1009,20,female,True
71,0.27,25,up,down,0.6477277999983926,1.157845353337707,,psi_staircase_training,cRDM,,0.2398520515688399,0.2457339559265189,0.0891038156048515,572.7346010999972,1009,20,female,True
72,0.31,25,up,up,1.0255219000027864,1.6445047278672786,,psi_staircase_training,cRDM,,0.2659218591682163,0.2729152338501863,0.1059412615753223,575.3178144999983,1009,20,female,True
73,0.3,25,down,down,0.5996125999990909,1.302246685143386,,psi_staircase_training,cRDM,,0.2597474724265594,0.2663190581818865,0.0995516638433065,577.9177463999986,1009,20,female,True
74,0.3,25,down,up,0.8133586000003561,1.3454319795689098,,psi_staircase_training,cRDM,,0.2547363006885942,0.2608929516799517,0.0932658984774482,580.1509983999968,1009,20,female,True
75,0.33,25,down,down,0.6740506999994977,1.449248919385391,,psi_staircase_training,cRDM,,0.2785485282861515,0.2873715676445636,0.1336584929402898,582.6842528999987,1009,20,female,True
76,0.32,25,up,up,0.7511474000020826,0.5060177700897062,,psi_staircase_training,cRDM,,0.2710174614961307,0.2795874081229004,0.1298244407830593,584.1341777999987,1009,20,female,True
77,0.32,25,up,down,0.3338030999984767,1.729971830841528,,psi_staircase_training,cRDM,,0.2644362739139871,0.2727284148860251,0.1256160174004376,586.8840888999985,1009,20,female,True
78,0.36,25,down,down,0.3674154000000271,1.796310524429279,,psi_staircase_training,cRDM,,0.2923003932401053,0.302139340218905,0.1490482782502817,589.3839864999973,1009,20,female,True
79,0.35,25,down,down,0.5243886000025668,0.7044803949686661,,psi_staircase_training,cRDM,,0.2848134362935158,0.2945244920113167,0.1471108786183695,590.7839824999974,1009,20,female,True
80,0.34,25,up,up,0.5537788000001456,0.5740434404368746,,psi_staircase_training,cRDM,,0.2779579200585325,0.2875255019965806,0.1449374224657664,592.150552199997,1009,20,female,True
81,0.34,25,up,down,0.6915011999990384,1.208607876684175,,psi_staircase_training,cRDM,,0.271643499593633,0.2810596932989875,0.1426440718176779,594.183826299999,1009,20,female,True
82,100.0,25,M,down,0.771394400002464,1.763004976577411,,psi_staircase,emotion,,100.0,100.0,25.00050000000001,616.4829834999982,1009,20,female,True
83,145.0,25,M,up,0.4167582000009133,1.6571518411357116,,psi_staircase,emotion,,145.25719053245996,145.25719053245996,25.00050000000028,619.2828725999971,1009,20,female,True
84,121.0,25,F,up,0.5325510000002396,1.435661381921763,,psi_staircase,emotion,,120.36392901436103,120.36392901436103,25.71326925488699,621.482815299998,1009,20,female,True
85,97.0,25,F,down,0.5249354000006861,0.438932893552065,,psi_staircase,emotion,,102.3887610608496,102.3887610608496,26.14633372628729,622.7994203999988,1009,20,female,True
86,113.0,25,M,up,0.4592128999975102,0.9492390092804456,,psi_staircase,emotion,,114.01123255420406,114.01123255420406,23.00305641778335,624.649161399997,1009,20,female,True
87,105.0,25,F,down,0.6480456000026606,1.0241131074871606,,psi_staircase,emotion,,104.94359593877375,104.94359593877375,22.15060322358215,626.4992876999968,1009,20,female,True
88,116.0,25,M,down,0.400182000001223,0.6152150368721151,,psi_staircase,emotion,,111.58377353439042,111.58377353439042,20.59785325106301,628.1325515999997,1009,20,female,True
89,131.0,25,F,up,0.4275214000008418,1.8177130446699572,,psi_staircase,emotion,,119.22444233711109,119.22444233711109,26.33379145122974,630.7158051999977,1009,20,female,True
90,129.0,25,F,down,0.3501587999999174,1.8235230586225228,,psi_staircase,emotion,,115.25120882513642,115.25120882513642,23.77356239496929,633.3323633,1009,20,female,True
91,142.0,25,M,up,0.5577311999986705,1.3492515665418423,,psi_staircase,emotion,,122.57294279240776,122.57294279240776,30.139849138468914,635.4656219999997,1009,20,female,True
92,140.0,25,F,up,0.4398449000000255,1.1232392592281293,,psi_staircase,emotion,,119.77628838378554,119.77628838378554,28.47026549348546,637.5155354999988,1009,20,female,True
93,98.0,25,F,down,0.4172800999986066,1.766637321252615,,psi_staircase,emotion,,117.6758541015243,117.6758541015243,26.95601244367461,640.0820723999968,1009,20,female,True
94,139.0,25,F,up,0.5980041999973764,1.2547074412033554,,psi_staircase,emotion,,119.63949856356452,119.63949856356452,25.261631096630925,642.1153782000001,1009,20,female,True
95,100.0,25,M,down,0.4786749999984749,1.0748137017953965,,psi_staircase,emotion,,118.09694995894256,118.09694995894256,23.72357628526197,644.1486802999971,1009,20,female,True
96,138.0,25,M,up,0.513445500000671,0.9585044253025908,,psi_staircase,emotion,,119.58568847468308,119.58568847468308,22.081271753044533,645.9318793999992,1009,20,female,True
97,101.0,25,F,down,0.7428120999975363,0.986406468834416,,psi_staircase,emotion,,118.43852921542845,118.43852921542845,20.63124267208774,647.7985001999987,1009,20,female,True
98,135.0,25,F,up,0.7659108000007109,1.0436270101406748,,psi_staircase,emotion,,119.53491451019524,119.53491451019524,19.163236948319536,649.9484132999969,1009,20,female,True
99,104.0,25,M,down,0.5846960999988369,1.1461588199535446,,psi_staircase,emotion,,118.56393773633492,118.56393773633492,17.867328650929213,652.2316692999993,1009,20,female,True
100,132.0,25,M,up,0.5815710999995645,1.4883808029141994,,psi_staircase,emotion,,119.48356599421324,119.48356599421324,16.600231645170545,654.6647588999986,1009,20,female,True
101,107.0,25,M,down,0.4965467000001808,1.2790881176178577,,psi_staircase,emotion,,118.607077943844,118.607077943844,15.501390055673692,656.8648021999979,1009,20,female,True
102,128.0,25,M,up,0.5788792999992438,1.0596449439444091,,psi_staircase,emotion,,119.43661853800238,119.43661853800238,14.464516415811014,658.7814517999977,1009,20,female,True
103,120.0,25,F,up,0.9699954999996409,0.6599287721646712,,psi_staircase,emotion,,118.50965052388116,118.50965052388116,13.589631397217886,660.3813648999967,1009,20,female,True
104,106.0,25,F,down,0.5140567999987979,0.767439733193453,,psi_staircase,emotion,,117.065395547115,117.065395547115,13.295888747534438,662.4812998999987,1009,20,female,True
105,122.0,25,F,down,0.759895700000925,1.5099078977924985,,psi_staircase,emotion,,117.65348716631247,117.65348716631247,12.400102860926184,664.8644237999979,1009,20,female,True
106,107.0,25,M,down,0.6882004999970377,0.7849651062474761,,psi_staircase,emotion,,119.54220331687112,119.54220331687112,13.694865723457069,666.7311199999967,1009,20,female,True
107,132.0,25,M,up,0.6173458000012033,1.934163075410947,,psi_staircase,emotion,,119.9939153826584,119.9939153826584,12.944998317321822,669.7310268000001,1009,20,female,True
108,109.0,25,F,down,0.6866593000013381,0.3921226633999666,,psi_staircase,emotion,,119.53975785053797,119.53975785053797,12.241892905464992,671.0976461999999,1009,20,female,True
109,130.0,25,F,up,0.4167595999970217,1.4071069431339025,,psi_staircase,emotion,,119.97360337047957,119.97360337047957,11.642952843036507,673.5642214999971,1009,20,female,True
110,110.0,25,M,down,0.4355796000018017,1.3707340328427555,,psi_staircase,emotion,,119.53729439441204,119.53729439441204,11.07613463262734,675.730796099997,1009,20,female,True
111,129.0,25,M,down,0.588981099997909,1.101624772033076,,psi_staircase,emotion,,119.93091206623365,119.93091206623365,10.591465804124834,677.6472783999998,1009,20,female,True
112,135.0,25,F,up,0.7517297999984294,0.6333670522380852,,psi_staircase,emotion,,121.57785284355232,121.57785284355232,12.508200156716718,679.2306537999975,1009,20,female,True
113,110.0,25,M,down,0.4811019000007945,0.7788265812049568,,psi_staircase,emotion,,121.279031565789,121.279031565789,11.973014020588469,681.0972546999983,1009,20,female,True
114,133.0,25,F,up,1.0328348999973969,0.9891661375784412,,psi_staircase,emotion,,121.60420975680653,121.60420975680653,11.499321726000352,682.930530499998,1009,20,female,True
115,111.0,25,M,up,0.8585566000001563,0.5358158221653284,,psi_staircase,emotion,,121.309693965175,121.309693965175,11.063190491609143,684.8637873999978,1009,20,female,True
116,106.0,25,F,down,0.6513021999999182,1.3146543499227423,,psi_staircase,emotion,,119.87787638763204,119.87787638763204,12.885752750707567,687.3970651999989,1009,20,female,True
117,133.0,25,M,up,0.5896580000007816,1.178788088690631,,psi_staircase,emotion,,120.12595910965798,120.12595910965798,12.432967525183845,689.563625499999,1009,20,female,True
118,108.0,25,F,down,0.6947691999994277,0.5085052683698805,,psi_staircase,emotion,,119.8615665231876,119.8615665231876,12.00789739971976,691.0135918999986,1009,20,female,True
119,132.0,25,M,up,0.4951818999979878,1.5052126942820576,,psi_staircase,emotion,,120.11984628122566,120.11984628122566,11.630629913154172,693.5801477999994,1009,20,female,True
120,109.0,25,M,up,0.8355262000004586,0.8608977014474628,,psi_staircase,emotion,,119.87061525153736,119.87061525153736,11.279319058145576,695.2968034999976,1009,20,female,True
121,132.0,25,F,up,0.4399577000003773,0.917076990781039,,psi_staircase,emotion,,118.65756121281242,118.65756121281242,12.813183058826382,697.3633319,1009,20,female,True
122,105.0,25,F,down,0.5814687000020058,1.5760413118436556,,psi_staircase,emotion,,118.43312405755375,118.43312405755375,12.43628987662451,699.7468410999973,1009,20,female,True
123,131.0,25,F,up,0.383515500001522,1.7816046884587446,,psi_staircase,emotion,,118.64887416661236,118.64887416661236,12.083545805123586,702.4798147000001,1009,20,female,True
124,106.0,25,M,down,0.6732910999999149,1.1518731423740356,,psi_staircase,emotion,,118.43028556000384,118.43028556000384,11.766313269951208,704.4130708999983,1009,20,female,True
125,130.0,25,M,up,0.5736424000024272,0.53959555117196,,psi_staircase,emotion,,118.63674243232504,118.63674243232504,11.469805266551274,705.9796820999982,1009,20,female,True
126,107.0,25,F,down,0.5254085999986273,1.4809073527083711,,psi_staircase,emotion,,118.41988904873648,118.41988904873648,11.196776456047616,708.4129295999992,1009,20,female,True
127,129.0,25,F,up,0.5104957000003196,0.949443396514849,,psi_staircase,emotion,,118.62219862104573,118.62219862104573,10.942145337591134,710.262853799999,1009,20,female,True
128,128.0,25,F,up,1.0247499000033713,1.3592678742678113,,psi_staircase,emotion,,118.40382801215328,118.40382801215328,10.702191045313496,712.5127867999981,1009,20,female,True
129,108.0,25,M,down,0.4223313000002235,0.8738242630932447,,psi_staircase,emotion,,118.18180822420176,118.18180822420176,10.480201860869798,714.7960212999969,1009,20,female,True
130,128.0,25,M,up,0.4920488999996451,1.9424324718085648,,psi_staircase,emotion,,118.38341675050296,118.38341675050296,10.264804994878888,717.4792781999968,1009,20,female,True
131,109.0,25,M,down,1.0412266999992426,0.3897703629316948,,psi_staircase,emotion,,118.18052169654996,118.18052169654996,10.06651117631634,718.7461394999991,1009,20,female,True
132,0.29,25,up,down,0.9660973999998532,1.559555924703656,,psi_staircase,cRDM,,0.25,0.2569312402994632,0.105,751.5612609999989,1009,20,female,True
133,0.39,25,up,up,0.4735017000020889,1.8836440532672205,,psi_staircase,cRDM,,0.3546095744690496,0.3616109212953642,0.1060620300265678,754.6778827999988,1009,20,female,True
134,0.38,25,down,down,0.6548567000027106,0.3163053207503973,,psi_staircase,cRDM,,0.3357987849034938,0.3429317268363466,0.1080555384881884,755.7445007999995,1009,20,female,True
135,0.35,25,down,down,0.6149071999971056,0.7275933570308315,,psi_staircase,cRDM,,0.3178220825339425,0.3249720550198983,0.1083135309972574,757.3944450999988,1009,20,female,True
136,0.34,25,up,up,0.5649971999991976,0.674186008943602,,psi_staircase,cRDM,,0.2987461380195291,0.3059673319859477,0.1093924512374306,758.9443948999979,1009,20,female,True
137,0.33,25,down,down,0.5266367000003811,0.4055955214178302,,psi_staircase,cRDM,,0.280506144113461,0.287744293960811,0.1096493125524172,760.1777083999987,1009,20,female,True
138,0.28,25,up,up,0.8774155000028259,0.797613669371685,,psi_staircase,cRDM,,0.2631708811203834,0.270405956671748,0.1096027406454384,761.7607983999987,1009,20,female,True
139,0.28,25,down,down,0.4651245999993989,1.9126398459409943,,psi_staircase,cRDM,,0.2406343605712441,0.2483363748915043,0.1166763044833327,764.7941813999969,1009,20,female,True
140,0.27,25,down,down,0.709038100001635,1.9309533248513624,,psi_staircase,cRDM,,0.2188476723625075,0.226847789634261,0.1211922076340611,767.4443496999993,1009,20,female,True
141,0.25,25,up,up,0.5326316999999108,0.5884547597834722,,psi_staircase,cRDM,,0.1983960949977236,0.2065544546361134,0.1235893902130719,769.0106945999978,1009,20,female,True
142,0.22,25,down,down,0.4001901999981783,0.8665999771523172,,psi_staircase,cRDM,,0.1794125197260426,0.1876039230106271,0.1240899619290316,770.6605595000001,1009,20,female,True
143,0.19,25,down,down,0.8051443999975163,1.3756841642985764,,psi_staircase,cRDM,,0.1614935390589006,0.169632292397648,0.1232923782248112,772.7272159999993,1009,20,female,True
144,0.16,25,down,down,0.7415169999985665,1.0414580614952331,,psi_staircase,cRDM,,0.1445961397716333,0.1526234640544177,0.1216043613085576,774.8438042999987,1009,20,female,True
145,0.14,25,up,up,0.8678610999995726,0.9132482926042996,,psi_staircase,cRDM,,0.128698098975465,0.1365741317735637,0.1193124762770674,776.760478799999,1009,20,female,True
146,0.12,25,up,down,0.7258308000018587,1.4440231128138648,,psi_staircase,cRDM,,0.1141380750420161,0.1218074664647383,0.1161821066062579,779.3435329999993,1009,20,female,True
147,0.19,25,down,down,0.7934059000035631,1.0055922695012596,,psi_staircase,cRDM,,0.1574775410936974,0.1659434745688988,0.1282487659481349,781.3268959999987,1009,20,female,True
148,0.18,25,down,down,0.7299266000009084,0.9588082967917386,,psi_staircase,cRDM,,0.1451222266549762,0.1534187385119458,0.1256822310790861,783.3434179999967,1009,20,female,True
149,0.17,25,up,up,0.52906190000067,0.6120941214725781,,psi_staircase,cRDM,,0.1344234412188164,0.1424953983988087,0.1222804963153312,784.9432890999997,1009,20,female,True
150,0.17,25,up,up,0.933224299998983,0.9743966756927328,,psi_staircase,cRDM,,0.1251732319654595,0.1329891264958676,0.1184014534536333,786.7100453999992,1009,20,female,True
151,0.16,25,up,up,0.7463336999971943,1.1474404896425834,,psi_staircase,cRDM,,0.1176483266850561,0.1251541349861231,0.1137040179768495,789.0599887999997,1009,20,female,True
152,0.11,25,up,down,0.6815188000000489,1.4953081713500636,,psi_staircase,cRDM,,0.1110703018399117,0.1182787470021395,0.1091993221029338,791.559886199997,1009,20,female,True
153,0.17,25,down,up,1.1215393999991647,1.4487860517430151,,psi_staircase,cRDM,,0.1333621762663075,0.1395601848198962,0.0938924160769913,793.9597801999989,1009,20,female,True
154,0.2,25,down,down,0.6275542000003043,0.3232149600560817,,psi_staircase,cRDM,,0.1616174612132958,0.1704102629176284,0.1332004286485957,795.6597672999997,1009,20,female,True
155,0.2,25,down,down,0.5610728999999992,1.681753438754936,,psi_staircase,cRDM,,0.1529593091176802,0.1615422221726605,0.1300208666611536,798.2262814999995,1009,20,female,True
156,0.19,25,up,down,0.6801570999996329,1.4230178567733502,,psi_staircase,cRDM,,0.145696162705551,0.1540203825864196,0.1261019744992669,800.4762000999981,1009,20,female,True
157,0.23,25,up,up,0.7131852999991679,0.7672116677835935,,psi_staircase,cRDM,,0.1744269757491067,0.1840328395141925,0.1455173463560508,802.1761314999967,1009,20,female,True
158,0.22,25,down,down,0.5299254999990808,0.901794315730823,,psi_staircase,cRDM,,0.1663592123666404,0.1758738675799171,0.144135645891748,804.059427799999,1009,20,female,True
159,0.22,25,down,down,0.6743920000008075,1.820549680099784,,psi_staircase,cRDM,,0.1590919369695673,0.1684926218256337,0.1424091313012773,806.6759671,1009,20,female,True
160,0.22,25,up,up,0.7824678999968455,0.7243966618567801,,psi_staircase,cRDM,,0.1527850979640142,0.1620427365888331,0.140242151997133,808.342835899999,1009,20,female,True
161,0.17,25,up,down,0.6405712000014319,1.8411881939591568,,psi_staircase,cRDM,,0.1473397386272204,0.1564306692699012,0.1377167254690914,811.2257863999985,1009,20,female,True
162,0.22,25,down,down,0.564682799998991,0.4073264171546359,,psi_staircase,cRDM,,0.1698942746467882,0.1786378388607103,0.1324545395624091,812.5426846999981,1009,20,female,True
163,0.22,25,up,down,0.6296446000014839,0.5641920326565164,,psi_staircase,cRDM,,0.1647638469147946,0.1732799388460986,0.1290086065629791,813.9256933999968,1009,20,female,True
164,0.25,25,down,down,0.8123817999985476,0.6928555738995512,,psi_staircase,cRDM,,0.1859662697580672,0.1957317129530706,0.1479347838444956,815.5089776999994,1009,20,female,True
165,0.24,25,up,up,0.5291642999982287,0.3463823547530584,,psi_staircase,cRDM,,0.1799546747517459,0.1896271816908115,0.1465269107291711,816.9422325999985,1009,20,female,True
166,0.24,25,down,down,0.716190999999526,1.8380708287016247,,psi_staircase,cRDM,,0.1744018873829157,0.1839732577867318,0.1449948131907232,819.5921694999997,1009,20,female,True
167,0.24,25,up,up,0.892401000000973,1.776905052648381,,psi_staircase,cRDM,,0.1694628574276385,0.1789176246180323,0.1432284139778309,822.3419189999986,1009,20,female,True
168,0.24,25,down,down,0.5479615999975067,0.3110235239835523,,psi_staircase,cRDM,,0.1650774894949123,0.1744023460490173,0.1412604232256737,823.825358099999,1009,20,female,True
169,0.17,25,up,down,0.8283567000034964,0.3461366768832455,,psi_staircase,cRDM,,0.1611957966233415,0.1703789019116024,0.1391130610984676,824.9919577999972,1009,20,female,True
170,0.24,25,up,up,0.5491183000012825,1.1971426075319034,,psi_staircase,cRDM,,0.1784993504293692,0.1870161671577102,0.1290195863711508,827.2752206999976,1009,20,female,True
171,0.24,25,down,down,0.6234399000022677,0.3462281810451339,,psi_staircase,cRDM,,0.1751116302834145,0.1833964215736981,0.125504678512899,828.4418365999991,1009,20,female,True
172,0.24,25,down,down,0.7062464000009641,1.4685257475434377,,psi_staircase,cRDM,,0.172249426165601,0.180286410604607,0.1217507011206907,830.825072399999,1009,20,female,True
173,0.2,25,down,down,0.4789664000018092,0.9597377124244546,,psi_staircase,cRDM,,0.1698780257271348,0.1776534848668598,0.1177889056500252,832.7583562999971,1009,20,female,True
174,0.21,25,up,up,0.7046883000002708,0.6859543642354899,,psi_staircase,cRDM,,0.1653271689774078,0.1731599816462033,0.118657743014221,834.191637699998,1009,20,female,True
175,0.16,25,up,down,0.8141174000011233,0.539486267790066,,psi_staircase,cRDM,,0.1621919004997287,0.1698810139156087,0.1164808712128937,835.7082387999981,1009,20,female,True
176,0.21,25,down,down,0.9874068999997688,1.283014309569571,,psi_staircase,cRDM,,0.1765120532985433,0.1829243768783916,0.0971390323801369,838.0748275999977,1009,20,female,True
177,0.21,25,down,down,0.8295673000029637,1.0936355707215444,,psi_staircase,cRDM,,0.1741191470098572,0.1802697895208538,0.0931748771867933,840.4247331999977,1009,20,female,True
178,0.21,25,down,up,0.6336746999986644,1.4608998784624778,,psi_staircase,cRDM,,0.1722452443202447,0.1781015712875298,0.0887163487337975,842.9746392999987,1009,20,female,True
179,0.24,25,up,down,1.0614375000004657,1.1016971354316014,,psi_staircase,cRDM,,0.1802174826359942,0.1878860181855348,0.1161691411512771,844.9579103999968,1009,20,female,True
180,0.25,25,up,down,1.7544106999994256,1.865932922908452,,psi_staircase,cRDM,,0.190694708276783,0.200014997218445,0.1411912293605375,848.140888599999,1009,20,female,True
181,0.33,25,up,up,0.9129769999999552,0.380401121913675,,psi_staircase,cRDM,,0.2061236463933795,0.2159705918563498,0.1491694457183861,850.5243580999995,1009,20,female,True
182,122.0,25,F,up,0.9793196999999054,1.6789109986607322,,experiment,emotion,0.0,,,,860.1240116999979,1009,20,female,True
183,114.0,25,M,up,0.5430560999993759,0.7499300994872924,,experiment,emotion,0.0,,,,862.1572643,1009,20,female,True
184,119.0,25,F,down,0.3836369999989983,1.429035854709665,,experiment,emotion,0.0,,,,864.4403794999998,1009,20,female,True
185,122.0,25,M,down,0.5042267999997421,1.498592928560413,,experiment,emotion,0.0,,,,866.6401243999971,1009,20,female,True
186,119.0,25,F,down,0.9929550999986532,0.9711568132226333,,experiment,emotion,0.0,,,,868.390360399997,1009,20,female,True
187,117.0,25,F,down,0.8813592000005883,0.6991042017848603,,experiment,emotion,0.0,,,,870.4069563999983,1009,20,female,True
188,114.0,25,M,up,0.4824080999969737,0.6313777831628782,,experiment,emotion,0.0,,,,872.2068860999971,1009,20,female,True
189,117.0,25,F,down,0.8545860999984143,1.4358876287192517,,experiment,emotion,0.0,,,,874.4068114000002,1009,20,female,True
190,122.0,25,M,up,0.4216773000007379,1.7154799937122287,,experiment,emotion,0.0,,,,877.2567106999995,1009,20,female,True
191,117.0,25,M,up,0.4504446999999345,1.9087830416982652,,experiment,emotion,0.0,,,,879.8398714999967,1009,20,female,True
192,119.0,25,F,up,0.6210528999981761,0.4051723159965486,,experiment,emotion,0.0,,,,880.9732504999993,1009,20,female,True
193,122.0,25,M,down,0.4848057000017434,1.4841078564117094,,experiment,emotion,0.0,,,,883.3564834999997,1009,20,female,True
194,119.0,25,M,up,0.4167804999997315,0.5732076976394519,,experiment,emotion,0.0,,,,884.689770099998,1009,20,female,True
195,114.0,25,M,up,0.7896590000018477,1.3150380020102437,,experiment,emotion,0.0,,,,886.6896820999973,1009,20,female,True
196,117.0,25,F,up,0.4969697000015003,0.4432964503914558,,experiment,emotion,0.0,,,,888.2062968999999,1009,20,female,True
197,114.0,25,F,down,0.5798625999996148,1.3665667066369696,,experiment,emotion,0.0,,,,890.3394766999991,1009,20,female,True
198,122.0,25,M,up,0.4167495000001509,1.564737610474576,,experiment,emotion,0.0,,,,892.7728203999977,1009,20,female,True
199,114.0,25,M,up,0.4742377000002307,0.6919647313529496,,experiment,emotion,0.0,,,,894.1560888999993,1009,20,female,True
200,119.0,25,F,up,0.6040992000016558,0.4309659583169313,,experiment,emotion,0.0,,,,895.3392102999969,1009,20,female,True
201,119.0,25,F,up,0.8437333000001672,1.3683264679349991,,experiment,emotion,0.0,,,,897.5726168999972,1009,20,female,True
202,117.0,25,M,up,0.6207929999982298,1.2915680035222608,,experiment,emotion,0.0,,,,899.9725440999973,1009,20,female,True
203,117.0,25,F,down,0.5732276999988244,1.2204063880549845,,experiment,emotion,0.0,,,,902.0891223,1009,20,female,True
204,114.0,25,M,up,0.4889517999981763,1.0404354512443492,,experiment,emotion,0.0,,,,903.9723851999988,1009,20,female,True
205,122.0,25,F,up,0.8296907000003557,1.7858999472579669,,experiment,emotion,0.0,,,,906.5556268999972,1009,20,female,True
206,119.0,25,F,up,1.039116299998568,0.6186441779903047,,experiment,emotion,0.0,,,,908.2722371999988,1009,20,female,True
207,114.0,25,M,down,0.4169514999994135,1.75242004495736,,experiment,emotion,0.0,,,,911.3386484000002,1009,20,female,True
208,122.0,25,M,up,0.4402771000022767,1.653415587893471,,experiment,emotion,0.0,,,,913.6720500999982,1009,20,female,True
209,122.0,25,F,up,0.5994208000010985,0.7846511657526617,,experiment,emotion,0.0,,,,915.1719940999974,1009,20,female,True
210,117.0,25,M,down,1.1330278999994334,1.8457198097428515,,experiment,emotion,0.0,,,,917.9383731999988,1009,20,female,True
211,114.0,25,F,up,0.4202205000001413,1.5119640181560543,,experiment,emotion,0.0,,,,920.8550972999984,1009,20,female,True
212,117.0,25,M,down,0.7791113999992376,0.3954342690575048,,experiment,emotion,0.0,,,,921.9382168999982,1009,20,female,True
213,119.0,25,F,down,0.5120970999996644,1.3147710986573395,,experiment,emotion,0.0,,,,924.338183099997,1009,20,female,True
214,114.0,25,M,down,0.4893820999968739,1.541362082445624,,experiment,emotion,0.0,,,,926.6548851999978,1009,20,female,True
215,122.0,25,F,up,0.5105671000019356,1.3730150696612715,,experiment,emotion,0.0,,,,928.8047895999988,1009,20,female,True
216,119.0,25,M,up,0.6065536999994947,0.406602565944122,,experiment,emotion,0.0,,,,930.0047702999982,1009,20,female,True
217,122.0,25,F,up,0.6439730999991298,1.3723761407234103,,experiment,emotion,0.0,,,,932.2713379999988,1009,20,female,True
218,114.0,25,M,down,0.4167882000001555,0.9376606254004884,,experiment,emotion,0.0,,,,934.1212578999985,1009,20,female,True
219,119.0,25,F,up,0.8105490000016289,1.0255991590020124,,experiment,emotion,0.0,,,,935.8377572999998,1009,20,female,True
220,117.0,25,M,up,1.0458113000022422,0.4417685448665654,,experiment,emotion,0.0,,,,937.4045045999992,1009,20,female,True
221,117.0,25,F,up,0.876258999996935,0.3286102167404491,,experiment,emotion,0.0,,,,939.0710612000004,1009,20,female,True
222,119.0,25,F,up,2.1398827000011806,0.3248686162287348,,experiment,emotion,0.0,,,,940.554430799999,1009,20,female,True
223,122.0,25,M,down,0.6060899000003701,1.1866914497469212,,experiment,emotion,0.0,,,,944.154228899999,1009,20,female,True
224,117.0,25,F,up,0.8611376000008022,0.4339531267952025,,experiment,emotion,0.0,,,,945.4541995,1009,20,female,True
225,114.0,25,M,down,0.7572562999994261,1.834317887353623,,experiment,emotion,0.0,,,,948.4540777999972,1009,20,female,True
226,114.0,25,M,up,0.7622240000018792,0.8783088405165018,,experiment,emotion,0.0,,,,950.3540876999978,1009,20,female,True
227,117.0,25,F,up,1.189361500000814,1.0717552819189562,,experiment,emotion,0.0,,,,952.4539491999968,1009,20,female,True
228,122.0,25,F,up,1.2998153000007733,1.8036204817222143,,experiment,emotion,0.0,,,,955.7204953,1009,20,female,True
229,119.0,25,M,down,0.4418842999984917,1.3438475838035049,,experiment,emotion,0.0,,,,958.6703841999988,1009,20,female,True
230,114.0,25,F,up,0.4973648000013781,1.3897670846618015,,experiment,emotion,0.0,,,,960.7869718000002,1009,20,female,True
231,122.0,25,M,up,1.0964323000007423,0.3281054411001744,,experiment,emotion,0.0,,,,961.8869191999984,1009,20,female,True
232,119.0,25,M,,,0.6628758924176996,,experiment,emotion,0.0,,,,963.9035225999978,1009,20,female,True
233,119.0,25,M,down,1.571729499999492,0.6308463901395848,,experiment,emotion,0.0,,,,967.236565299998,1009,20,female,True
234,114.0,25,M,down,0.8198926000004576,1.163007704278871,,experiment,emotion,0.0,,,,970.2364026999968,1009,20,female,True
235,117.0,25,M,down,0.6967785000015283,0.8786639308961768,,experiment,emotion,0.0,,,,972.236497599999,1009,20,female,True
236,122.0,25,F,up,0.89521319999767,1.967352416191328,,experiment,emotion,0.0,,,,975.2030963999968,1009,20,female,True
237,117.0,25,F,down,0.8966241000016453,1.293476468526393,,experiment,emotion,0.0,,,,977.6696912999978,1009,20,female,True
238,117.0,25,F,down,0.809456400002091,1.776927874510483,,experiment,emotion,0.0,,,,980.6029019999988,1009,20,female,True
239,117.0,25,M,down,1.7712188000004971,1.8108154467394435,,experiment,emotion,0.0,,,,983.4861210999989,1009,20,female,True
240,122.0,25,F,up,1.163970400000835,0.452641790654627,,experiment,emotion,0.0,,,,985.9693441999988,1009,20,female,True
241,119.0,25,F,down,0.8469538999997894,0.3864830067769129,,experiment,emotion,0.0,,,,987.819318599999,1009,20,female,True
242,114.0,25,F,down,0.5820127000006323,1.6716240871529815,,experiment,emotion,0.0,,,,990.6523267999984,1009,20,female,True
243,114.0,25,M,up,1.0969160000022384,0.9605249903762134,,experiment,emotion,0.0,,,,992.4524457999978,1009,20,female,True
244,119.0,25,F,down,0.8766253000030702,1.6864955796258934,,experiment,emotion,0.0,,,,995.4856852999984,1009,20,female,True
245,122.0,25,M,down,1.1840794999989157,1.7616138770783418,,experiment,emotion,0.0,,,,998.4022332999994,1009,20,female,True
246,122.0,25,M,up,0.6592294999973092,0.7017578823595989,,experiment,emotion,0.0,,,,1000.5521489999992,1009,20,female,True
247,114.0,25,F,up,1.1676018000034674,0.5339407191115895,,experiment,emotion,0.0,,,,1002.0187510999968,1009,20,female,True
248,122.0,25,M,up,1.0305981999990763,1.181302767062678,,experiment,emotion,0.0,,,,1004.6186753000002,1009,20,female,True
249,117.0,25,F,down,0.7748009999995702,1.8677966395553611,,experiment,emotion,0.0,,,,1007.8185438999972,1009,20,female,True
250,119.0,25,M,up,0.7664518999990833,0.68815087789163,,experiment,emotion,0.0,,,,1009.5518568999978,1009,20,female,True
251,117.0,25,F,down,0.922208200001478,1.03925502424766,,experiment,emotion,0.0,,,,1011.6351025999976,1009,20,female,True
252,114.0,25,M,down,0.5529920000008133,0.4326534370960606,,experiment,emotion,0.0,,,,1013.2683584999976,1009,20,female,True
253,119.0,25,F,,,1.010704162764064,,experiment,emotion,0.0,,,,1015.0849535999988,1009,20,female,True
254,117.0,25,F,up,1.3064611999980116,0.997473346140473,,experiment,emotion,0.0,,,,1018.7848572000004,1009,20,female,True
255,119.0,25,F,up,0.8265667999985453,1.3069817872996032,,experiment,emotion,0.0,,,,1021.6847455999996,1009,20,female,True
256,114.0,25,F,down,0.7143557999988843,0.7772326176342832,,experiment,emotion,0.0,,,,1023.5679819999968,1009,20,female,True
257,122.0,25,F,down,0.8304360000001907,1.926739666590824,,experiment,emotion,0.0,,,,1026.5178530999983,1009,20,female,True
258,119.0,25,M,down,0.6321945000017877,0.8185618971242636,,experiment,emotion,0.0,,,,1028.451143899998,1009,20,female,True
259,122.0,25,M,up,0.6305917999998201,1.3634828258473752,,experiment,emotion,0.0,,,,1030.7177053999983,1009,20,female,True
260,114.0,25,M,down,0.7803468000020075,0.5848281268180439,,experiment,emotion,0.0,,,,1032.2009967999984,1009,20,female,True
261,117.0,25,M,down,0.7434898999999859,1.8140654266252247,,experiment,emotion,0.0,,,,1035.1008907999967,1009,20,female,True
262,0.2032915922009553,25,up,down,1.0089486000033503,1.665451465505175,,experiment,cRDM,0.0,,,,1058.483361399998,1009,20,female,True
263,0.2032915922009553,25,up,up,0.6263999999973748,1.79098832128051,,experiment,cRDM,0.0,,,,1061.5499106999996,1009,20,female,True
264,0.2032915922009553,25,down,down,0.3504955999997037,1.2834258325128525,,experiment,cRDM,0.0,,,,1063.716489899998,1009,20,female,True
265,0.2032915922009553,25,down,down,0.5542139000026509,0.5895236264647821,,experiment,cRDM,0.0,,,,1064.9831178999991,1009,20,female,True
266,0.2032915922009553,25,up,up,0.6035830000000715,1.3688223425384038,,experiment,cRDM,0.0,,,,1067.1497232999973,1009,20,female,True
267,0.2032915922009553,25,down,down,0.4168099999988044,0.3463330002561027,,experiment,cRDM,0.0,,,,1068.349681399999,1009,20,female,True
268,0.2032915922009553,25,up,up,0.983134300000529,1.8455075597218955,,experiment,cRDM,0.0,,,,1070.8662222999992,1009,20,female,True
269,0.2032915922009553,25,up,down,0.3171103999993647,1.9383834503936064,,experiment,cRDM,0.0,,,,1074.049487999997,1009,20,female,True
270,0.2032915922009553,25,down,up,1.0012805000005756,1.3888003726021472,,experiment,cRDM,0.0,,,,1076.1160297999995,1009,20,female,True
271,0.2032915922009553,25,down,down,0.3171666999987792,0.7080461437242636,,experiment,cRDM,0.0,,,,1078.082617299999,1009,20,female,True
272,0.2032915922009553,25,down,up,0.8163941999991948,1.4702543127349443,,experiment,cRDM,0.0,,,,1080.2158775999997,1009,20,female,True
273,0.2032915922009553,25,down,down,0.5429646999982651,1.5261536491153145,,experiment,cRDM,0.0,,,,1082.832357899999,1009,20,female,True
274,0.2032915922009553,25,down,up,0.8460942000019713,1.29692166056839,,experiment,cRDM,0.0,,,,1084.9322294999984,1009,20,female,True
275,0.2032915922009553,25,down,down,0.5496237999977893,1.117400421291288,,experiment,cRDM,0.0,,,,1087.1656494999988,1009,20,female,True
276,0.2032915922009553,25,up,up,1.0052116000006208,0.5587358053947709,,experiment,cRDM,0.0,,,,1088.5320964999992,1009,20,female,True
277,0.2032915922009553,25,up,down,0.660152399999788,1.2790970821577587,,experiment,cRDM,0.0,,,,1091.0821634999993,1009,20,female,True
278,0.2032915922009553,25,up,down,0.5084504000005836,1.8366364667900847,,experiment,cRDM,0.0,,,,1093.8318094999995,1009,20,female,True
279,0.2032915922009553,25,up,up,1.752013100001932,1.6597463457821826,,experiment,cRDM,0.0,,,,1096.2652936999984,1009,20,female,True
280,0.2032915922009553,25,down,down,0.6495681000014883,1.0584034913609632,,experiment,cRDM,0.0,,,,1099.3317203999975,1009,20,female,True
281,0.2032915922009553,25,up,down,1.0716079000012542,0.3747901158736997,,experiment,cRDM,0.0,,,,1100.6317151999974,1009,20,female,True
282,0.2032915922009553,25,up,down,0.993282100000215,1.2502070913998766,,experiment,cRDM,0.0,,,,1103.2150256999994,1009,20,female,True
283,0.2032915922009553,25,down,up,1.0080397999990964,1.879923905680409,,experiment,cRDM,0.0,,,,1106.3482814999988,1009,20,female,True
284,0.2032915922009553,25,up,down,1.1824813000021095,0.9928960335254396,,experiment,cRDM,0.0,,,,1108.6148522999974,1009,20,female,True
285,0.2032915922009553,25,down,down,1.062258000001748,1.8409642257961485,,experiment,cRDM,0.0,,,,1111.8980470999995,1009,20,female,True
286,0.2032915922009553,25,down,down,0.6390460999973584,1.5662082617790594,,experiment,cRDM,0.0,,,,1114.7812919999997,1009,20,female,True
287,0.2032915922009553,25,up,up,0.4927341000002343,0.4816792501913325,,experiment,cRDM,0.0,,,,1116.1645733999976,1009,20,female,True
288,0.2032915922009553,25,up,down,0.7974751000001561,1.5709124826626322,,experiment,cRDM,0.0,,,,1118.4978376,1009,20,female,True
289,0.2032915922009553,25,down,up,0.4167793999986315,1.685658772758105,,experiment,cRDM,0.0,,,,1121.2477137999997,1009,20,female,True
290,0.2032915922009553,25,up,up,0.9906120000014198,0.525210204288755,,experiment,cRDM,0.0,,,,1122.4476995999976,1009,20,female,True
291,0.2032915922009553,25,down,down,0.4293765000002167,0.4211001840001375,,experiment,cRDM,0.0,,,,1124.1309544999967,1009,20,female,True
292,0.2032915922009553,25,down,down,0.4168385000011767,1.3446808825964889,,experiment,cRDM,0.0,,,,1126.1808722999997,1009,20,female,True
293,0.2032915922009553,25,down,down,0.383821600000374,1.4111767344312995,,experiment,cRDM,0.0,,,,1128.2641172999977,1009,20,female,True
294,0.2032915922009553,25,up,up,0.8659394000023894,1.849475410712512,,experiment,cRDM,0.0,,,,1130.7973661999968,1009,20,female,True
295,0.2032915922009553,25,up,down,0.3505034000008891,1.4763623760853692,,experiment,cRDM,0.0,,,,1133.4139075999992,1009,20,female,True
296,0.2032915922009553,25,up,down,1.102961000000505,1.3351949386013615,,experiment,cRDM,0.0,,,,1135.430347499998,1009,20,female,True
297,0.2032915922009553,25,down,down,0.5322768999976688,1.6029584809811666,,experiment,cRDM,0.0,,,,1138.3970646999987,1009,20,female,True
298,0.2032915922009553,25,down,down,0.6998257000013837,1.813376101468344,,experiment,cRDM,0.0,,,,1141.0134953999986,1009,20,female,True
299,0.2032915922009553,25,up,down,0.5768654999992577,1.6397800716362037,,experiment,cRDM,0.0,,,,1143.6134588999994,1009,20,female,True
300,0.2032915922009553,25,down,down,0.619125899997016,0.3151091008967887,,experiment,cRDM,0.0,,,,1144.7801793,1009,20,female,True
301,0.2032915922009553,25,up,down,0.79614600000059,0.5817266372660825,,experiment,cRDM,0.0,,,,1146.2301458999973,1009,20,female,True
302,0.2032915922009553,25,up,up,0.7693443999996816,1.897150348142508,,experiment,cRDM,0.0,,,,1149.1800388999982,1009,20,female,True
303,0.2032915922009553,25,up,up,0.8153268999994907,0.317395460245331,,experiment,cRDM,0.0,,,,1150.5299976999995,1009,20,female,True
304,0.2032915922009553,25,down,down,1.2180810999998355,1.054623334144285,,experiment,cRDM,0.0,,,,1152.663227699999,1009,20,female,True
305,0.2032915922009553,25,down,down,1.1802055000007383,1.6521631977557334,,experiment,cRDM,0.0,,,,1155.8130893999987,1009,20,female,True
306,0.2032915922009553,25,up,up,0.8638183000002755,1.9696107304382413,,experiment,cRDM,0.0,,,,1159.2295062999983,1009,20,female,True
307,0.2032915922009553,25,down,down,0.7007134999985283,0.974793043768314,,experiment,cRDM,0.0,,,,1161.3295892999995,1009,20,female,True
308,0.2032915922009553,25,down,up,0.931831299996702,1.0371983381247112,,experiment,cRDM,0.0,,,,1163.3295145999982,1009,20,female,True
309,0.2032915922009553,25,up,down,0.7105694999991101,1.744816843224232,,experiment,cRDM,0.0,,,,1166.2627391999995,1009,20,female,True
310,0.2032915922009553,25,up,up,0.920316499999899,1.3036241013165408,,experiment,cRDM,0.0,,,,1168.5459736999985,1009,20,female,True
311,0.2032915922009553,25,down,down,0.6224432000017259,1.6224513383166366,,experiment,cRDM,0.0,,,,1171.345863999999,1009,20,female,True
312,0.2032915922009553,25,up,up,0.9393992999976036,1.7826005107336478,,experiment,cRDM,0.0,,,,1174.0289540999984,1009,20,female,True
313,0.2032915922009553,25,down,down,0.6036439999988943,1.5675249099478104,,experiment,cRDM,0.0,,,,1176.7956601999977,1009,20,female,True
314,0.2032915922009553,25,down,up,0.816054200000508,1.9495500223183424,,experiment,cRDM,0.0,,,,1179.612214599998,1009,20,female,True
315,0.2032915922009553,25,down,down,0.595567199998186,1.8885575326015565,,experiment,cRDM,0.0,,,,1182.5787885999998,1009,20,female,True
316,0.2032915922009553,25,up,up,0.6602466000003915,1.5376898332399662,,experiment,cRDM,0.0,,,,1184.9620458999998,1009,20,female,True
317,0.2032915922009553,25,up,up,0.8529853000000003,0.9651426705390792,,experiment,cRDM,0.0,,,,1186.845323999998,1009,20,female,True
318,0.2032915922009553,25,down,down,0.5024553000002925,1.9464284427644545,,experiment,cRDM,0.0,,,,1189.9118533999972,1009,20,female,True
319,0.2032915922009553,25,down,up,0.4851607000018703,0.8595497784519666,,experiment,cRDM,0.0,,,,1191.5451488,1009,20,female,True
320,0.2032915922009553,25,up,up,0.7805990999986534,1.6683535275416264,,experiment,cRDM,0.0,,,,1193.961703699999,1009,20,female,True
321,0.2032915922009553,25,up,up,0.827993000002607,0.4655150673237649,,experiment,cRDM,0.0,,,,1195.4783073,1009,20,female,True
322,0.2032915922009553,25,up,down,0.4732676999992691,1.1620610495805483,,experiment,cRDM,0.0,,,,1197.728092999998,1009,20,female,True
323,0.2032915922009553,25,up,up,0.86449850000281,1.8777269164463732,,experiment,cRDM,0.0,,,,1200.344815499997,1009,20,female,True
324,0.2032915922009553,25,up,up,0.6182219000002078,1.3178920871318462,,experiment,cRDM,0.0,,,,1202.7780422999967,1009,20,female,True
325,0.2032915922009553,25,down,down,0.5699687000014819,1.408920326725682,,experiment,cRDM,0.0,,,,1205.0612832999975,1009,20,female,True
326,0.2032915922009553,25,down,down,0.5037579000018013,1.855307459581894,,experiment,cRDM,0.0,,,,1207.744544899997,1009,20,female,True
327,0.2032915922009553,25,up,up,0.7077762999979313,0.54154804119148,,experiment,cRDM,0.0,,,,1209.044507999999,1009,20,female,True
328,0.2032915922009553,25,down,down,0.7238265999985742,1.8125206115341472,,experiment,cRDM,0.0,,,,1211.827543899999,1009,20,female,True
329,0.2032915922009553,25,down,up,0.6784081999976479,0.4827668948875487,,experiment,cRDM,0.0,,,,1213.3109673,1009,20,female,True
330,0.2032915922009553,25,down,up,0.5357190000031551,0.624660678935145,,experiment,cRDM,0.0,,,,1214.8775843999974,1009,20,female,True
331,0.2032915922009553,25,up,down,0.7848071000007621,1.1929227972711356,,experiment,cRDM,0.0,,,,1216.877499099999,1009,20,female,True
332,0.2032915922009553,25,down,down,0.6571784000007028,1.5075762103787909,,experiment,cRDM,0.0,,,,1219.4441131999993,1009,20,female,True
333,0.2032915922009553,25,down,up,1.2406706000001575,1.5817813350801275,,experiment,cRDM,0.0,,,,1221.9606660999998,1009,20,female,True
334,0.2032915922009553,25,down,up,0.905040599998756,1.109259975621312,,experiment,cRDM,0.0,,,,1224.5772593000002,1009,20,female,True
335,0.2032915922009553,25,up,up,0.9298598999994284,1.2716955574866573,,experiment,cRDM,0.0,,,,1227.0104804000002,1009,20,female,True
336,0.2032915922009553,25,up,up,0.6548843999989913,0.75690660944204,,experiment,cRDM,0.0,,,,1228.9604450999975,1009,20,female,True
337,0.2032915922009553,25,down,up,0.7384934999972756,1.854847552159658,,experiment,cRDM,0.0,,,,1231.7268138,1009,20,female,True
338,0.2032915922009553,25,up,up,0.6674094999980298,1.1516352553997913,,experiment,cRDM,0.0,,,,1233.876893499997,1009,20,female,True
339,0.2032915922009553,25,down,up,0.8375184999968042,1.6649377421750828,,experiment,cRDM,0.0,,,,1236.4767850999997,1009,20,female,True
340,0.2032915922009553,25,up,down,0.3336853999971936,1.3229593708661913,,experiment,cRDM,0.0,,,,1238.8933765000002,1009,20,female,True
341,0.2032915922009553,25,up,down,0.441779900000256,1.550695388888318,,experiment,cRDM,0.0,,,,1241.1265231999969,1009,20,female,True
342,122.0,25,M,up,0.5539979999994102,0.7870849099767174,,experiment,emotion,1.0,,,,1267.8423215000005,1009,20,female,True
343,114.0,25,M,down,0.4877297999992152,1.536648431809133,,experiment,emotion,1.0,,,,1270.2255656999987,1009,20,female,True
344,119.0,25,F,down,0.6891251999986707,0.4285190465074786,,experiment,emotion,1.0,,,,1271.442178199999,1009,20,female,True
345,122.0,25,F,up,0.6785576000002038,0.9513425688261096,,experiment,emotion,1.0,,,,1273.3587642999992,1009,20,female,True
346,119.0,25,M,down,0.7445981999990181,0.9615571118187368,,experiment,emotion,1.0,,,,1275.258700499999,1009,20,female,True
347,117.0,25,F,down,0.5993656999999075,0.7107318014290631,,experiment,emotion,1.0,,,,1276.9919569999984,1009,20,female,True
348,114.0,25,M,down,0.4657249999982014,1.392971574747418,,experiment,emotion,1.0,,,,1279.2585703999976,1009,20,female,True
349,117.0,25,M,down,0.4874745999986771,1.4040123468938543,,experiment,emotion,1.0,,,,1281.3918282999985,1009,20,female,True
350,122.0,25,F,up,0.4405843999993521,1.8053435323354647,,experiment,emotion,1.0,,,,1283.991719499998,1009,20,female,True
351,117.0,25,F,down,0.5410338000001502,1.9949336554587416,,experiment,emotion,1.0,,,,1286.7082668999974,1009,20,female,True
352,119.0,25,F,down,0.5761470999968878,1.8857009685663584,,experiment,emotion,1.0,,,,1289.4581733999985,1009,20,female,True
353,122.0,25,F,down,0.499237300002278,0.9525104891227668,,experiment,emotion,1.0,,,,1291.258117999998,1009,20,female,True
354,119.0,25,F,down,0.6272430999997596,0.4253132405252496,,experiment,emotion,1.0,,,,1292.4580653999983,1009,20,female,True
355,114.0,25,F,down,0.8166467000010016,1.0111335746294028,,experiment,emotion,1.0,,,,1294.3746619999984,1009,20,female,True
356,117.0,25,M,down,0.7786957000025723,1.229661495739626,,experiment,emotion,1.0,,,,1296.6745953999998,1009,20,female,True
357,114.0,25,M,down,0.7791574999973818,1.726357939627096,,experiment,emotion,1.0,,,,1299.441141299998,1009,20,female,True
358,122.0,25,M,down,0.7395947000004526,1.3791186812282994,,experiment,emotion,1.0,,,,1301.8577098999997,1009,20,female,True
359,114.0,25,M,down,0.7086273999993864,0.5779427602223683,,experiment,emotion,1.0,,,,1303.457668899999,1009,20,female,True
360,119.0,25,F,down,0.72540950000257,1.768209920078757,,experiment,emotion,1.0,,,,1306.240888299999,1009,20,female,True
361,119.0,25,M,down,0.6938396000005014,1.4346656862993574,,experiment,emotion,1.0,,,,1308.657464,1009,20,female,True
362,117.0,25,M,up,0.8366526999998314,1.3821550300910668,,experiment,emotion,1.0,,,,1311.0407503999995,1009,20,female,True
363,117.0,25,F,down,0.5826911000003747,0.9010393247104558,,experiment,emotion,1.0,,,,1313.040632199998,1009,20,female,True
364,114.0,25,M,up,0.8750651000009384,1.5802118966873435,,experiment,emotion,1.0,,,,1315.4572348999973,1009,20,female,True
365,122.0,25,F,up,0.5561658000005991,1.238353888663775,,experiment,emotion,1.0,,,,1317.8571342999967,1009,20,female,True
366,119.0,25,F,down,0.6582393999997294,1.8841951902313148,,experiment,emotion,1.0,,,,1320.5570683999977,1009,20,female,True
367,114.0,25,M,up,0.5919993000024988,0.5950830747556796,,experiment,emotion,1.0,,,,1322.0902928999967,1009,20,female,True
368,122.0,25,M,down,0.4730845000012778,1.0355565470930737,,experiment,emotion,1.0,,,,1323.9902393999982,1009,20,female,True
369,122.0,25,F,down,0.6661404999977094,1.5690684148046974,,experiment,emotion,1.0,,,,1326.2901466999974,1009,20,female,True
370,117.0,25,M,up,0.6258765999991738,0.8639974284252236,,experiment,emotion,1.0,,,,1328.1234232999996,1009,20,female,True
371,114.0,25,F,down,0.4329259999976784,1.567285501643548,,experiment,emotion,1.0,,,,1330.5733398999982,1009,20,female,True
372,117.0,25,F,down,0.4848569999994652,1.633455080402038,,experiment,emotion,1.0,,,,1332.906491099999,1009,20,female,True
373,119.0,25,F,down,0.6909204999974463,1.6191146753660952,,experiment,emotion,1.0,,,,1335.306379499998,1009,20,female,True
374,114.0,25,M,down,0.593569299999217,0.9302146298920158,,experiment,emotion,1.0,,,,1337.1897331,1009,20,female,True
375,122.0,25,M,up,0.8863071000014315,1.872049805630294,,experiment,emotion,1.0,,,,1339.9729899999984,1009,20,female,True
376,119.0,25,M,up,0.4168071999993117,0.8121670365022384,,experiment,emotion,1.0,,,,1341.9395695999992,1009,20,female,True
377,122.0,25,F,down,0.5383011999983864,1.1827963640183894,,experiment,emotion,1.0,,,,1343.806023699999,1009,20,female,True
378,114.0,25,F,down,1.4441468000004534,0.4392704327828652,,experiment,emotion,1.0,,,,1345.0561308999968,1009,20,female,True
379,119.0,25,M,down,0.9896073999989312,1.2164555783710616,,experiment,emotion,1.0,,,,1347.9726811,1009,20,female,True
380,117.0,25,F,up,0.4587090999993961,1.3002689414837827,,experiment,emotion,1.0,,,,1350.5726108999988,1009,20,female,True
381,117.0,25,M,up,0.6800820999997086,0.9440722458051878,,experiment,emotion,1.0,,,,1352.2392166999998,1009,20,female,True
382,119.0,25,M,down,0.952709799999866,1.6221714618919951,,experiment,emotion,1.0,,,,1354.8055870999997,1009,20,female,True
383,122.0,25,M,up,0.4269586999980674,1.4407409977862222,,experiment,emotion,1.0,,,,1357.4723404999968,1009,20,female,True
384,117.0,25,F,down,1.1073692999998457,1.667676942923061,,experiment,emotion,1.0,,,,1359.838926299999,1009,20,female,True
385,114.0,25,F,down,0.6177771999973629,0.3239737483402924,,experiment,emotion,1.0,,,,1361.5555244999996,1009,20,female,True
386,114.0,25,M,down,1.0139945000009902,1.0451377366746042,,experiment,emotion,1.0,,,,1363.5052617999972,1009,20,female,True
387,117.0,25,F,down,1.2022828999979538,1.634241770984989,,experiment,emotion,1.0,,,,1366.4220115999997,1009,20,female,True
388,122.0,25,F,up,0.3834965000023658,1.1774401126737246,,experiment,emotion,1.0,,,,1369.0719052999991,1009,20,female,True
389,119.0,25,M,down,0.7405139000002237,1.8485528412032424,,experiment,emotion,1.0,,,,1371.6218188999992,1009,20,female,True
390,114.0,25,M,down,0.539890000000014,0.657310262996965,,experiment,emotion,1.0,,,,1373.2884271999974,1009,20,female,True
391,122.0,25,F,up,0.7929550000008021,0.8447387506027437,,experiment,emotion,1.0,,,,1374.938339299999,1009,20,female,True
392,119.0,25,M,down,0.7266744000007748,1.2172149868895572,,experiment,emotion,1.0,,,,1377.221624599999,1009,20,female,True
393,119.0,25,F,down,0.8387875000007625,0.6659604393841666,,experiment,emotion,1.0,,,,1378.8715561999998,1009,20,female,True
394,114.0,25,F,down,0.7207955999983824,0.6956968335209194,,experiment,emotion,1.0,,,,1380.6714977999982,1009,20,female,True
395,117.0,25,F,up,0.4218834999992396,0.9809626499696632,,experiment,emotion,1.0,,,,1382.6714171999993,1009,20,female,True
396,122.0,25,M,up,0.4779449000016029,1.811030600210227,,experiment,emotion,1.0,,,,1385.1713244999992,1009,20,female,True
397,117.0,25,M,down,0.6750492999999551,1.4007073851319032,,experiment,emotion,1.0,,,,1387.3212365,1009,20,female,True
398,117.0,25,F,up,0.5564999999987776,1.7659374798567082,,experiment,emotion,1.0,,,,1390.0377999999982,1009,20,female,True
399,117.0,25,F,up,0.7232308999991801,1.002295111000535,,experiment,emotion,1.0,,,,1391.8710655999969,1009,20,female,True
400,122.0,25,M,up,0.7761030000001483,0.928599026527542,,experiment,emotion,1.0,,,,1393.8041798999984,1009,20,female,True
401,119.0,25,M,down,0.907736200002546,0.7081226945041312,,experiment,emotion,1.0,,,,1395.5876033999994,1009,20,female,True
402,114.0,25,M,down,0.8719400000009045,1.2887983699722927,,experiment,emotion,1.0,,,,1398.0875138999982,1009,20,female,True
403,114.0,25,M,down,0.7841977999996743,1.0372254093044977,,experiment,emotion,1.0,,,,1400.2540859999972,1009,20,female,True
404,119.0,25,M,down,0.6582608999997319,0.7488589973884572,,experiment,emotion,1.0,,,,1402.0540402999975,1009,20,female,True
405,122.0,25,F,down,0.5576679000005242,0.6638274095669072,,experiment,emotion,1.0,,,,1403.6706275999968,1009,20,female,True
406,122.0,25,F,up,0.7490883000027679,1.926187771684117,,experiment,emotion,1.0,,,,1406.4372057999972,1009,20,female,True
407,114.0,25,M,down,0.6421702000006917,0.3851313239218678,,experiment,emotion,1.0,,,,1407.8371232999998,1009,20,female,True
408,122.0,25,F,up,0.4322315999997954,0.5343282704192877,,experiment,emotion,1.0,,,,1409.2870890999984,1009,20,female,True
409,117.0,25,F,down,0.6959184000006644,1.986431767630618,,experiment,emotion,1.0,,,,1412.020346199999,1009,20,female,True
410,119.0,25,F,up,0.4563407000023289,0.8432900756167443,,experiment,emotion,1.0,,,,1413.836936399999,1009,20,female,True
411,117.0,25,M,up,0.5684051999996882,0.4804212204138646,,experiment,emotion,1.0,,,,1415.0368925999974,1009,20,female,True
412,114.0,25,F,down,0.5541374000022188,0.6908251589845299,,experiment,emotion,1.0,,,,1416.570162699998,1009,20,female,True
413,119.0,25,F,down,1.0905276000012236,0.3083072346509449,,experiment,emotion,1.0,,,,1417.6867628999971,1009,20,female,True
414,117.0,25,F,down,1.1783772000017052,0.915344013818475,,experiment,emotion,1.0,,,,1419.9700329999978,1009,20,female,True
415,119.0,25,M,up,0.7784092000001692,1.892691255606717,,experiment,emotion,1.0,,,,1423.319917599998,1009,20,female,True
416,114.0,25,M,down,0.7307493000007526,0.3168636177572799,,experiment,emotion,1.0,,,,1424.6865532999982,1009,20,female,True
417,122.0,25,F,up,0.5385870999998588,1.009249533018179,,experiment,emotion,1.0,,,,1426.7197334999985,1009,20,female,True
418,119.0,25,M,down,0.5135578000008536,0.3558281201641545,,experiment,emotion,1.0,,,,1427.8697426,1009,20,female,True
419,122.0,25,F,down,0.5116017000000284,0.9094491347978332,,experiment,emotion,1.0,,,,1429.5696927999998,1009,20,female,True
420,114.0,25,M,up,0.383471199998894,1.2425907762646156,,experiment,emotion,1.0,,,,1431.586284099998,1009,20,female,True
421,117.0,25,M,down,0.3001698999978544,1.00787271918032,,experiment,emotion,1.0,,,,1433.2862036999977,1009,20,female,True
422,0.2032915922009553,25,up,down,0.6826355999983207,1.658849334383713,,experiment,cRDM,1.0,,,,1457.268671599999,1009,20,female,True
423,0.2032915922009553,25,up,down,0.8040811000028043,1.8609717996550852,,experiment,cRDM,1.0,,,,1460.0851994999975,1009,20,female,True
424,0.2032915922009553,25,down,up,0.5114852000006067,1.6022661627090768,,experiment,cRDM,1.0,,,,1462.7517924999993,1009,20,female,True
425,0.2032915922009553,25,down,down,0.3504662999985157,1.0056920649007313,,experiment,cRDM,1.0,,,,1464.535065,1009,20,female,True
426,0.2032915922009553,25,up,up,0.5689427000033902,0.5969244124668622,,experiment,cRDM,1.0,,,,1465.8183675,1009,20,female,True
427,0.2032915922009553,25,down,down,0.4168449999997392,1.5989682274649453,,experiment,cRDM,1.0,,,,1468.251583199999,1009,20,female,True
428,0.2032915922009553,25,up,up,0.926095200000418,1.8487649916461768,,experiment,cRDM,1.0,,,,1470.7681976999993,1009,20,female,True
429,0.2032915922009553,25,up,up,0.7159103999983927,1.7896233447048586,,experiment,cRDM,1.0,,,,1473.7513830999997,1009,20,female,True
430,0.2032915922009553,25,down,down,0.4206535999983316,1.7017660638120131,,experiment,cRDM,1.0,,,,1476.4346448999968,1009,20,female,True
431,0.2032915922009553,25,down,up,0.6587188999983482,0.6168230148122928,,experiment,cRDM,1.0,,,,1477.7345967,1009,20,female,True
432,0.2032915922009553,25,down,down,0.4776549999987765,0.85857906987476,,experiment,cRDM,1.0,,,,1479.5176698999967,1009,20,female,True
433,0.2032915922009553,25,down,down,0.5655938999989303,0.9510739271123024,,experiment,cRDM,1.0,,,,1481.2177029999984,1009,20,female,True
434,0.2032915922009553,25,down,up,0.9692546000005676,1.0476675340676622,,experiment,cRDM,1.0,,,,1483.101033699997,1009,20,female,True
435,0.2032915922009553,25,down,down,0.656835099998716,1.880733237422226,,experiment,cRDM,1.0,,,,1486.2174896999968,1009,20,female,True
436,0.2032915922009553,25,up,up,0.5454327000006742,1.303266781894704,,experiment,cRDM,1.0,,,,1488.4508658999985,1009,20,female,True
437,0.2032915922009553,25,up,up,1.1148917999998955,1.8573811956731416,,experiment,cRDM,1.0,,,,1491.1174345,1009,20,female,True
438,0.2032915922009553,25,up,down,0.589848499999789,0.8051571568572635,,experiment,cRDM,1.0,,,,1493.3004703999975,1009,20,female,True
439,0.2032915922009553,25,up,up,0.583050600002025,1.405084861361751,,experiment,cRDM,1.0,,,,1495.5672417999997,1009,20,female,True
440,0.2032915922009553,25,down,down,0.912324200002331,0.997856837628587,,experiment,cRDM,1.0,,,,1497.4169691999996,1009,20,female,True
441,0.2032915922009553,25,up,up,0.622123000001011,0.5769169820955155,,experiment,cRDM,1.0,,,,1499.1671154999967,1009,20,female,True
442,0.2032915922009553,25,up,up,0.5736151999990398,1.1381082107747786,,experiment,cRDM,1.0,,,,1501.183704799998,1009,20,female,True
443,0.2032915922009553,25,down,down,0.4003440000014961,1.5995861073004174,,experiment,cRDM,1.0,,,,1503.6168738999986,1009,20,female,True
444,0.2032915922009553,25,up,up,1.1117473000012978,0.9527513763207156,,experiment,cRDM,1.0,,,,1505.2335996999973,1009,20,female,True
445,0.2032915922009553,25,down,down,0.4411933000010322,1.689443938958212,,experiment,cRDM,1.0,,,,1508.300099599997,1009,20,female,True
446,0.2032915922009553,25,down,down,1.238730500001111,1.811295314402404,,experiment,cRDM,1.0,,,,1510.816558999999,1009,20,female,True
447,0.2032915922009553,25,up,up,0.5063332999998238,0.5358253974293159,,experiment,cRDM,1.0,,,,1512.8499436999991,1009,20,female,True
448,0.2032915922009553,25,up,down,0.9251162000000476,1.4614729081585844,,experiment,cRDM,1.0,,,,1515.083229799999,1009,20,female,True
449,0.2032915922009553,25,down,up,0.5371545999987575,0.3127156810019941,,experiment,cRDM,1.0,,,,1516.5831375999987,1009,20,female,True
450,0.2032915922009553,25,up,down,0.9512490000015532,0.8686356127695403,,experiment,cRDM,1.0,,,,1518.2331018999976,1009,20,female,True
451,0.2032915922009553,25,down,up,0.8315987000023597,0.9493982558203278,,experiment,cRDM,1.0,,,,1520.399648999999,1009,20,female,True
452,0.2032915922009553,25,down,down,0.6126793999974325,1.0507681639383806,,experiment,cRDM,1.0,,,,1522.5496054999967,1009,20,female,True
453,0.2032915922009553,25,down,up,0.3004697999967902,1.2091983410770375,,experiment,cRDM,1.0,,,,1524.6328996999982,1009,20,female,True
454,0.2032915922009553,25,up,up,0.851332000002003,0.8175967242801023,,experiment,cRDM,1.0,,,,1526.115958899998,1009,20,female,True
455,0.2032915922009553,25,up,up,0.9069398999999976,1.6337947809616291,,experiment,cRDM,1.0,,,,1528.8493667999974,1009,20,female,True
456,0.2032915922009553,25,up,up,0.770977899999707,0.4655653214943949,,experiment,cRDM,1.0,,,,1530.499310799998,1009,20,female,True
457,0.2032915922009553,25,down,up,0.8497445999964839,1.192980727364363,,experiment,cRDM,1.0,,,,1532.7325676999972,1009,20,female,True
458,0.2032915922009553,25,down,down,0.3340696999985084,0.6515126931514204,,experiment,cRDM,1.0,,,,1534.4825017999974,1009,20,female,True
459,0.2032915922009553,25,up,down,0.6415773000007903,1.2034613089976058,,experiment,cRDM,1.0,,,,1536.3657432,1009,20,female,True
460,0.2032915922009553,25,down,down,0.4608549000004132,1.1497673855681625,,experiment,cRDM,1.0,,,,1538.415465099999,1009,20,female,True
461,0.2032915922009553,25,up,up,0.4167942000021867,0.5189573890329395,,experiment,cRDM,1.0,,,,1539.665621199998,1009,20,female,True
462,0.2032915922009553,25,up,up,0.8578799000024446,1.8719481781487088,,experiment,cRDM,1.0,,,,1542.2154164999993,1009,20,female,True
463,0.2032915922009553,25,up,down,0.3670343000012508,1.0048014149239937,,experiment,cRDM,1.0,,,,1544.3487742999969,1009,20,female,True
464,0.2032915922009553,25,down,down,0.7352225000031467,1.800308763247311,,experiment,cRDM,1.0,,,,1546.832050399997,1009,20,female,True
465,0.2032915922009553,25,down,down,0.7417890000033367,1.8822073132790889,,experiment,cRDM,1.0,,,,1549.715498899997,1009,20,female,True
466,0.2032915922009553,25,up,up,0.4584881999981007,1.4199832730930804,,experiment,cRDM,1.0,,,,1552.1318546000002,1009,20,female,True
467,0.2032915922009553,25,down,down,0.5015400000011141,1.9274297598773849,,experiment,cRDM,1.0,,,,1554.781753299998,1009,20,female,True
468,0.2032915922009553,25,down,down,0.7299746999997296,1.103137115765617,,experiment,cRDM,1.0,,,,1556.6483284999997,1009,20,female,True
469,0.2032915922009553,25,up,down,0.8250786999997217,1.859558428589697,,experiment,cRDM,1.0,,,,1559.498214299998,1009,20,female,True
470,0.2032915922009553,25,up,down,0.7372309999991558,1.717600458364379,,experiment,cRDM,1.0,,,,1562.298125199999,1009,20,female,True
471,0.2032915922009553,25,down,up,0.5022910000006959,1.8437078030000404,,experiment,cRDM,1.0,,,,1565.1480193999996,1009,20,female,True
472,0.2032915922009553,25,up,down,0.7249750000009954,0.9688102576266704,,experiment,cRDM,1.0,,,,1566.881286599997,1009,20,female,True
473,0.2032915922009553,25,down,down,0.7104479999979958,1.7409838536529838,,experiment,cRDM,1.0,,,,1569.597827499998,1009,20,female,True
474,0.2032915922009553,25,down,down,0.7766303999997035,1.826132819441689,,experiment,cRDM,1.0,,,,1572.397757499999,1009,20,female,True
475,0.2032915922009553,25,down,down,0.670286100001249,1.4472470095909649,,experiment,cRDM,1.0,,,,1574.8810032999972,1009,20,female,True
476,0.2032915922009553,25,up,up,0.5230042000002868,1.3976729243280068,,experiment,cRDM,1.0,,,,1577.2142706999985,1009,20,female,True
477,0.2032915922009553,25,up,up,0.8419834999986051,1.197004624081781,,experiment,cRDM,1.0,,,,1579.1973197999978,1009,20,female,True
478,0.2032915922009553,25,down,,,0.710541786626143,,experiment,cRDM,1.0,,,,1580.9974029999976,1009,20,female,True
479,0.2032915922009553,25,down,down,0.0671933999983593,0.9275072913597642,,experiment,cRDM,1.0,,,,1584.5972796999995,1009,20,female,True
480,0.2032915922009553,25,up,down,1.201083899999503,0.5204512233336416,,experiment,cRDM,1.0,,,,1585.7972415999975,1009,20,female,True
481,0.2032915922009553,25,up,up,0.8798218999982055,1.6150184843353412,,experiment,cRDM,1.0,,,,1588.8804693999991,1009,20,female,True
482,0.2032915922009553,25,up,down,0.416776200003369,1.0439769863010748,,experiment,cRDM,1.0,,,,1591.0470922999991,1009,20,female,True
483,0.2032915922009553,25,up,up,1.0129005999988294,0.9103608221211688,,experiment,cRDM,1.0,,,,1592.6303506999975,1009,20,female,True
484,0.2032915922009553,25,up,up,0.819019999999,1.56444387297897,,experiment,cRDM,1.0,,,,1595.4802651999998,1009,20,female,True
485,0.2032915922009553,25,down,down,0.4301553000004787,1.906739539410211,,experiment,cRDM,1.0,,,,1598.4801259999986,1009,20,female,True
486,0.2032915922009553,25,down,up,0.7492603999999119,0.9514666198440092,,experiment,cRDM,1.0,,,,1600.1300601999974,1009,20,female,True
487,0.2032915922009553,25,up,down,1.260769500000606,0.5453084252276242,,experiment,cRDM,1.0,,,,1601.696516199998,1009,20,female,True
488,0.2032915922009553,25,down,up,0.7721025999999256,1.6372599556362624,,experiment,cRDM,1.0,,,,1604.8632208999989,1009,20,female,True
489,0.2032915922009553,25,down,down,0.511485700000776,1.4862470905075251,,experiment,cRDM,1.0,,,,1607.3797796,1009,20,female,True
490,0.2032915922009553,25,down,up,0.5822082999984559,0.3084934117149365,,experiment,cRDM,1.0,,,,1608.4630781999986,1009,20,female,True
491,0.2032915922009553,25,up,up,0.6946205999993253,1.5628804728530044,,experiment,cRDM,1.0,,,,1610.8796650999975,1009,20,female,True
492,0.2032915922009553,25,down,down,1.1867082999997365,1.5495585151127984,,experiment,cRDM,1.0,,,,1613.379575699997,1009,20,female,True
493,0.2032915922009553,25,down,up,0.6528472999998485,1.0470917665335555,,experiment,cRDM,1.0,,,,1615.8794817999988,1009,20,female,True
494,0.2032915922009553,25,down,up,0.637529399999039,0.4798282221701711,,experiment,cRDM,1.0,,,,1617.262764499999,1009,20,female,True
495,0.2032915922009553,25,up,down,0.5172472000012931,0.7848461075890488,,experiment,cRDM,1.0,,,,1618.9460362999998,1009,20,female,True
496,0.2032915922009553,25,up,down,0.7839988000014273,1.8087767667311487,,experiment,cRDM,1.0,,,,1621.5292745999975,1009,20,female,True
497,0.2032915922009553,25,down,up,0.6617602000005718,1.1868586940184933,,experiment,cRDM,1.0,,,,1623.7625150999993,1009,20,female,True
498,0.2032915922009553,25,up,up,0.6777999000005366,0.6414305325279714,,experiment,cRDM,1.0,,,,1625.3124962000002,1009,20,female,True
499,0.2032915922009553,25,down,down,0.718215799999598,0.6786727812835975,,experiment,cRDM,1.0,,,,1626.9290667999994,1009,20,female,True
500,0.2032915922009553,25,up,up,0.7673052999998617,1.0670372279811853,,experiment,cRDM,1.0,,,,1628.9789816999985,1009,20,female,True
501,0.2032915922009553,25,up,up,1.1896661999999196,1.399158106487411,,experiment,cRDM,1.0,,,,1631.3955940999986,1009,20,female,True
502,122.0,25,M,up,0.6130499999999302,1.947376949288245,,experiment,emotion,2.0,,,,1677.4272160999972,1009,20,female,True
503,114.0,25,M,down,0.6538043000000471,0.5086239883073816,,experiment,emotion,2.0,,,,1678.860525,1009,20,female,True
504,119.0,25,F,down,0.539932100000442,1.784954603875693,,experiment,emotion,2.0,,,,1681.610381999999,1009,20,female,True
505,122.0,25,F,up,0.4780023000021174,1.6492898322554832,,experiment,emotion,2.0,,,,1684.0602875999975,1009,20,female,True
506,119.0,25,M,up,0.7506802000025345,0.3348512712447247,,experiment,emotion,2.0,,,,1685.1435996999971,1009,20,female,True
507,117.0,25,F,up,0.5888692999978957,0.4030191935614442,,experiment,emotion,2.0,,,,1686.5934163999991,1009,20,female,True
508,114.0,25,M,down,1.021465600002557,1.6878513466225191,,experiment,emotion,2.0,,,,1689.126790299997,1009,20,female,True
509,117.0,25,M,down,0.8948926000011852,0.6175493320675027,,experiment,emotion,2.0,,,,1691.043387499998,1009,20,female,True
510,122.0,25,F,up,0.7513609000016004,1.2502684862626878,,experiment,emotion,2.0,,,,1693.4599731999988,1009,20,female,True
511,117.0,25,F,down,0.6723941000018385,0.9247979117619194,,experiment,emotion,2.0,,,,1695.4098896999967,1009,20,female,True
512,119.0,25,F,up,0.7461460999984411,1.0818781389474668,,experiment,emotion,2.0,,,,1697.4431377,1009,20,female,True
513,122.0,25,F,up,0.855374099999608,1.7383464626238814,,experiment,emotion,2.0,,,,1700.1929385999974,1009,20,female,True
514,119.0,25,F,down,0.689952099997754,0.6031752880689869,,experiment,emotion,2.0,,,,1701.9263333999988,1009,20,female,True
515,114.0,25,F,down,0.567542400000093,1.2952335482264468,,experiment,emotion,2.0,,,,1704.192771599999,1009,20,female,True
516,117.0,25,M,down,0.8617733999999473,1.1689627670913618,,experiment,emotion,2.0,,,,1706.209519699998,1009,20,female,True
517,114.0,25,M,down,0.5575366999983089,0.503917450351132,,experiment,emotion,2.0,,,,1707.8427448999971,1009,20,female,True
518,122.0,25,M,down,0.6577937000001839,1.331920098051262,,experiment,emotion,2.0,,,,1709.992523599998,1009,20,female,True
519,114.0,25,M,down,0.5647871000001032,0.9744433577488758,,experiment,emotion,2.0,,,,1711.892499499998,1009,20,female,True
520,119.0,25,F,down,0.7268571999993583,0.4681606126894972,,experiment,emotion,2.0,,,,1713.1925045999997,1009,20,female,True
521,119.0,25,M,up,0.4001760999999533,0.567403595636108,,experiment,emotion,2.0,,,,1714.7591810999984,1009,20,female,True
522,117.0,25,M,down,0.4169779000003473,1.3628283520063031,,experiment,emotion,2.0,,,,1716.7922736,1009,20,female,True
523,117.0,25,F,down,0.4000986999999441,1.208665654230884,,experiment,emotion,2.0,,,,1718.6922937999989,1009,20,female,True
524,114.0,25,M,down,0.3668160999986867,1.6601682920227334,,experiment,emotion,2.0,,,,1721.042290399997,1009,20,female,True
525,122.0,25,F,down,0.4787536000003456,1.3696419714411825,,experiment,emotion,2.0,,,,1723.125523199997,1009,20,female,True
526,119.0,25,F,up,0.3834777000010945,1.1907197306575843,,experiment,emotion,2.0,,,,1725.0588070999984,1009,20,female,True
527,114.0,25,M,down,0.4369765999981609,1.936033622392288,,experiment,emotion,2.0,,,,1727.6753381999988,1009,20,female,True
528,122.0,25,M,down,0.554652900002111,1.4231989782970378,,experiment,emotion,2.0,,,,1729.8086282999975,1009,20,female,True
529,122.0,25,F,up,0.8061402999992424,1.8373261799709608,,experiment,emotion,2.0,,,,1732.4751596999995,1009,20,female,True
530,117.0,25,M,down,0.5647233999989112,0.828086816126006,,experiment,emotion,2.0,,,,1734.3915696999975,1009,20,female,True
531,114.0,25,F,up,0.4713368000011542,1.3748145435828296,,experiment,emotion,2.0,,,,1736.5919536,1009,20,female,True
532,117.0,25,F,down,0.416999000000942,0.9546427257856998,,experiment,emotion,2.0,,,,1738.2914568999986,1009,20,female,True
533,119.0,25,F,down,0.5647353000022122,1.3436860842602278,,experiment,emotion,2.0,,,,1740.3415529999984,1009,20,female,True
534,114.0,25,M,down,0.5791133999991871,1.2773254149876576,,experiment,emotion,2.0,,,,1742.458151499999,1009,20,female,True
535,122.0,25,M,up,0.5812475999991875,1.806234043153352,,experiment,emotion,2.0,,,,1745.108038399998,1009,20,female,True
536,119.0,25,M,down,0.6420231000010972,1.2751281547206246,,experiment,emotion,2.0,,,,1747.2413190999978,1009,20,female,True
537,122.0,25,F,up,0.6226994000026025,1.0745635979417587,,experiment,emotion,2.0,,,,1749.224579499998,1009,20,female,True
538,114.0,25,F,down,0.5217918999987887,0.4624672138888323,,experiment,emotion,2.0,,,,1750.5744988999977,1009,20,female,True
539,119.0,25,M,up,0.7014751999995497,0.4486670341182374,,experiment,emotion,2.0,,,,1751.8078010999998,1009,20,female,True
540,117.0,25,F,down,0.4301827999988745,0.4635137727874235,,experiment,emotion,2.0,,,,1753.2410998999983,1009,20,female,True
541,117.0,25,M,down,0.6820049000016297,1.7369473721861852,,experiment,emotion,2.0,,,,1755.6743195999989,1009,20,female,True
542,119.0,25,M,down,0.5395561000004818,1.8568040279040248,,experiment,emotion,2.0,,,,1758.4907238999986,1009,20,female,True
543,122.0,25,M,up,0.4721179000007396,0.8590273777221087,,experiment,emotion,2.0,,,,1760.1741648999996,1009,20,female,True
544,117.0,25,F,down,0.5308436000013899,1.5489436826516194,,experiment,emotion,2.0,,,,1762.4574424999992,1009,20,female,True
545,114.0,25,F,down,0.5576868999996805,1.857834739061777,,experiment,emotion,2.0,,,,1765.1406016,1009,20,female,True
546,114.0,25,M,down,0.695042100000137,1.4892156067560167,,experiment,emotion,2.0,,,,1767.4572348000002,1009,20,female,True
547,117.0,25,F,down,0.6681667000011657,1.1767293262526508,,experiment,emotion,2.0,,,,1769.6071489999997,1009,20,female,True
548,122.0,25,F,up,0.4354975999995076,0.6218551339104319,,experiment,emotion,2.0,,,,1771.173738499998,1009,20,female,True
549,119.0,25,M,down,0.6179432000026281,1.2178573223383933,,experiment,emotion,2.0,,,,1773.140363999999,1009,20,female,True
550,114.0,25,M,down,0.5321230000008654,0.8636194408716258,,experiment,emotion,2.0,,,,1774.8902415999985,1009,20,female,True
551,122.0,25,F,down,0.6261780000022554,0.4810223503508279,,experiment,emotion,2.0,,,,1776.1901380999989,1009,20,female,True
552,119.0,25,M,down,0.8410842000012053,0.7583486093894588,,experiment,emotion,2.0,,,,1777.840196699999,1009,20,female,True
553,119.0,25,F,down,0.804878999999346,1.166711211386559,,experiment,emotion,2.0,,,,1780.1234192999982,1009,20,female,True
554,114.0,25,F,down,0.929247000000032,0.6389322554407135,,experiment,emotion,2.0,,,,1781.840039499999,1009,20,female,True
555,117.0,25,F,down,1.095676500000991,0.7577354718226542,,experiment,emotion,2.0,,,,1783.8066218999993,1009,20,female,True
556,122.0,25,M,up,0.8980725000001257,0.6530689930193464,,experiment,emotion,2.0,,,,1785.8232100999994,1009,20,female,True
557,117.0,25,M,up,0.7568971000000602,1.85981236246908,,experiment,emotion,2.0,,,,1788.8564367,1009,20,female,True
558,117.0,25,F,up,0.6302648999990197,1.1740089360687476,,experiment,emotion,2.0,,,,1791.073015799997,1009,20,female,True
559,117.0,25,F,down,1.2648524999967776,1.8219404404893955,,experiment,emotion,2.0,,,,1793.7894581,1009,20,female,True
560,122.0,25,M,up,1.0479873999975098,0.7772836283904587,,experiment,emotion,2.0,,,,1796.0892896999976,1009,20,female,True
561,119.0,25,M,down,1.1321967000003497,1.2614760558037408,,experiment,emotion,2.0,,,,1798.706076099999,1009,20,female,True
562,114.0,25,M,up,0.5051429000013741,1.8305123436211292,,experiment,emotion,2.0,,,,1801.9891160999975,1009,20,female,True
563,114.0,25,M,down,0.9037501999991946,1.3570537830912488,,experiment,emotion,2.0,,,,1804.1225347,1009,20,female,True
564,119.0,25,M,up,0.4578622999979416,1.3977589660275114,,experiment,emotion,2.0,,,,1806.672444599997,1009,20,female,True
565,122.0,25,F,down,0.9109678999993776,1.577341535470145,,experiment,emotion,2.0,,,,1808.9723453999975,1009,20,female,True
566,122.0,25,F,up,0.7724985000022571,1.2371122506190668,,experiment,emotion,2.0,,,,1811.388771599999,1009,20,female,True
567,114.0,25,M,down,0.8491791999986162,1.5274608348735244,,experiment,emotion,2.0,,,,1813.9721572999988,1009,20,female,True
568,122.0,25,F,up,0.8761402000018279,0.7459478237761026,,experiment,emotion,2.0,,,,1815.8221065,1009,20,female,True
569,117.0,25,F,down,0.7812701999973797,0.7385143620220345,,experiment,emotion,2.0,,,,1817.7220431999997,1009,20,female,True
570,119.0,25,F,down,0.5933430000004591,0.3090474214391653,,experiment,emotion,2.0,,,,1819.1219848,1009,20,female,True
571,117.0,25,M,down,0.6640293999989808,1.2107495211272132,,experiment,emotion,2.0,,,,1821.205250699997,1009,20,female,True
572,114.0,25,F,up,0.8514438000020164,0.9277050087698542,,experiment,emotion,2.0,,,,1823.0718304,1009,20,female,True
573,119.0,25,F,up,1.2201566999974602,1.213100687667393,,experiment,emotion,2.0,,,,1825.4050704,1009,20,female,True
574,117.0,25,F,down,0.8642601999999897,0.8649166113191105,,experiment,emotion,2.0,,,,1827.7550187999989,1009,20,female,True
575,119.0,25,M,down,0.8346859000012046,0.5371217209228202,,experiment,emotion,2.0,,,,1829.4216009999984,1009,20,female,True
576,114.0,25,M,up,0.8415716999988945,0.6802577827922929,,experiment,emotion,2.0,,,,1831.2049066,1009,20,female,True
577,122.0,25,F,up,0.737874099999317,1.7670766564900957,,experiment,emotion,2.0,,,,1834.1214323999995,1009,20,female,True
578,119.0,25,M,up,0.7845915999969293,0.8188031934729132,,experiment,emotion,2.0,,,,1835.954715699998,1009,20,female,True
579,122.0,25,F,down,0.4400156000010611,1.4300865792413804,,experiment,emotion,2.0,,,,1838.4212854999969,1009,20,female,True
580,114.0,25,M,down,0.619409099999757,1.6085740753535926,,experiment,emotion,2.0,,,,1840.7378643999984,1009,20,female,True
581,117.0,25,M,up,0.4311817999987397,0.7322006977220132,,experiment,emotion,2.0,,,,1842.3711255999988,1009,20,female,True
582,0.2032915922009553,25,up,up,0.7593693999988318,0.9343011557021624,,experiment,cRDM,2.0,,,,1879.8029112999973,1009,20,female,True
583,0.2032915922009553,25,up,down,0.4326235999978962,0.6859429292714656,,experiment,cRDM,2.0,,,,1881.5196827,1009,20,female,True
584,0.2032915922009553,25,down,down,0.3504181999996945,1.242871923031876,,experiment,cRDM,2.0,,,,1883.4362803999973,1009,20,female,True
585,0.2032915922009553,25,down,down,0.5807509000005666,1.399356605587613,,experiment,cRDM,2.0,,,,1885.5195325999996,1009,20,female,True
586,0.2032915922009553,25,up,up,0.5077802999985579,0.3922438024739761,,experiment,cRDM,2.0,,,,1886.7694936999976,1009,20,female,True
587,0.2032915922009553,25,down,down,0.6242203000001609,0.454430451655609,,experiment,cRDM,2.0,,,,1887.9860529,1009,20,female,True
588,0.2032915922009553,25,up,up,0.6118682999986049,0.3375768988606484,,experiment,cRDM,2.0,,,,1889.2194281999984,1009,20,female,True
589,0.2032915922009553,25,up,up,0.7289888999985124,0.6789232972105892,,experiment,cRDM,2.0,,,,1890.7693205999967,1009,20,female,True
590,0.2032915922009553,25,down,down,0.3171693999975105,0.8511035163320977,,experiment,cRDM,2.0,,,,1892.6192957999992,1009,20,female,True
591,0.2032915922009553,25,down,down,0.6427672999998322,1.760109940470114,,experiment,cRDM,2.0,,,,1895.0525105999984,1009,20,female,True
592,0.2032915922009553,25,down,down,0.5698513999996067,1.9089425504665043,,experiment,cRDM,2.0,,,,1897.8524212999985,1009,20,female,True
593,0.2032915922009553,25,down,up,0.644950300000346,1.4878128135673854,,experiment,cRDM,2.0,,,,1900.1523339999983,1009,20,female,True
594,0.2032915922009553,25,down,up,0.6530639000011433,1.9977713589164852,,experiment,cRDM,2.0,,,,1903.052213699997,1009,20,female,True
595,0.2032915922009553,25,down,up,0.7070840000014869,1.0283001984735234,,experiment,cRDM,2.0,,,,1905.002162599998,1009,20,female,True
596,0.2032915922009553,25,up,down,0.5315511000007973,1.134499102127993,,experiment,cRDM,2.0,,,,1907.1187527,1009,20,female,True
597,0.2032915922009553,25,up,up,0.8286297999984527,0.6035451289137587,,experiment,cRDM,2.0,,,,1908.518680899997,1009,20,female,True
598,0.2032915922009553,25,up,up,0.7900585000024876,0.6731663247720443,,experiment,cRDM,2.0,,,,1910.2852188,1009,20,female,True
599,0.2032915922009553,25,up,up,0.8144921000020986,1.6674710539884268,,experiment,cRDM,2.0,,,,1913.001881199998,1009,20,female,True
600,0.2032915922009553,25,down,down,0.85417900000175,1.248937338872319,,experiment,cRDM,2.0,,,,1915.335118699997,1009,20,female,True
601,0.2032915922009553,25,up,up,0.7723225000008824,1.2283168351705254,,experiment,cRDM,2.0,,,,1917.6849495999995,1009,20,female,True
602,0.2032915922009553,25,up,up,0.8280133999978716,1.5942411037079256,,experiment,cRDM,2.0,,,,1920.318263099998,1009,20,female,True
603,0.2032915922009553,25,down,down,0.6088205999985803,1.8401233366515908,,experiment,cRDM,2.0,,,,1923.251480699997,1009,20,female,True
604,0.2032915922009553,25,up,down,0.5605790999979945,0.704451594846921,,experiment,cRDM,2.0,,,,1924.834755099997,1009,20,female,True
605,0.2032915922009553,25,down,up,1.0262824999990698,1.8630701865466504,,experiment,cRDM,2.0,,,,1927.5179952,1009,20,female,True
606,0.2032915922009553,25,down,down,0.8081117999972776,1.3378977776463268,,experiment,cRDM,2.0,,,,1930.151233499997,1009,20,female,True
607,0.2032915922009553,25,up,down,0.8781423000000359,1.8732401125787048,,experiment,cRDM,2.0,,,,1933.1011352999997,1009,20,female,True
608,0.2032915922009553,25,up,up,0.9587701000018568,1.9145843857272795,,experiment,cRDM,2.0,,,,1936.1675314999995,1009,20,female,True
609,0.2032915922009553,25,down,up,0.8917524999997113,0.4191168033389807,,experiment,cRDM,2.0,,,,1937.8175902000005,1009,20,female,True
610,0.2032915922009553,25,up,down,0.6280639999968116,0.3591221421337572,,experiment,cRDM,2.0,,,,1939.3342412999991,1009,20,female,True
611,0.2032915922009553,25,down,down,0.6254062000007252,0.8733651594076284,,experiment,cRDM,2.0,,,,1941.100849999999,1009,20,female,True
612,0.2032915922009553,25,down,up,0.4658447000001615,0.9913812072874936,,experiment,cRDM,2.0,,,,1942.9674275,1009,20,female,True
613,0.2032915922009553,25,down,up,0.4408949000026041,0.616977792375516,,experiment,cRDM,2.0,,,,1944.3173780999969,1009,20,female,True
614,0.2032915922009553,25,up,down,0.768927099998109,1.2901006887559978,,experiment,cRDM,2.0,,,,1946.3173126,1009,20,female,True
615,0.2032915922009553,25,up,up,0.7910909999991418,1.8296093029908584,,experiment,cRDM,2.0,,,,1949.1671814,1009,20,female,True
616,0.2032915922009553,25,up,down,0.65842309999789,0.910131749693628,,experiment,cRDM,2.0,,,,1951.1337991,1009,20,female,True
617,0.2032915922009553,25,down,down,0.6732463000007556,0.8135371644073683,,experiment,cRDM,2.0,,,,1952.867027999997,1009,20,female,True
618,0.2032915922009553,25,down,up,0.8868789999978617,1.8858295374596052,,experiment,cRDM,2.0,,,,1955.6834351,1009,20,female,True
619,0.2032915922009553,25,up,up,0.6787950000034471,0.900808810872094,,experiment,cRDM,2.0,,,,1957.733537199998,1009,20,female,True
620,0.2032915922009553,25,down,down,0.4741766000006464,1.7821648006420372,,experiment,cRDM,2.0,,,,1960.4501249999996,1009,20,female,True
621,0.2032915922009553,25,up,up,0.5665334000004805,1.3363013853269343,,experiment,cRDM,2.0,,,,1962.5167049999984,1009,20,female,True
622,0.2032915922009553,25,up,up,0.7298595000029309,1.6196512335291258,,experiment,cRDM,2.0,,,,1964.9664151999968,1009,20,female,True
623,0.2032915922009553,25,up,up,0.7569933000013407,0.8368488280125197,,experiment,cRDM,2.0,,,,1966.7832636999992,1009,20,female,True
624,0.2032915922009553,25,down,down,0.487467300001299,1.497362092900172,,experiment,cRDM,2.0,,,,1969.2998082999984,1009,20,female,True
625,0.2032915922009553,25,down,down,1.3538905999994313,1.0211392011734164,,experiment,cRDM,2.0,,,,1971.0663642,1009,20,female,True
626,0.2032915922009553,25,up,up,0.5916738999985682,1.414814328300768,,experiment,cRDM,2.0,,,,1974.0996282999984,1009,20,female,True
627,0.2032915922009553,25,down,down,0.957083400000556,1.0166366400316191,,experiment,cRDM,2.0,,,,1975.9661848,1009,20,female,True
628,0.2032915922009553,25,down,up,0.6427675000013551,0.5214825598448833,,experiment,cRDM,2.0,,,,1977.6994975999987,1009,20,female,True
629,0.2032915922009553,25,up,up,0.617299000001367,0.9639214465480056,,experiment,cRDM,2.0,,,,1979.566047799999,1009,20,female,True
630,0.2032915922009553,25,up,down,0.4602745000011055,1.2751372557390386,,experiment,cRDM,2.0,,,,1981.715984999999,1009,20,female,True
631,0.2032915922009553,25,down,down,0.6338622000002943,0.7479627568311427,,experiment,cRDM,2.0,,,,1983.1824138999984,1009,20,female,True
632,0.2032915922009553,25,up,up,0.6830337999999756,0.653424694216505,,experiment,cRDM,2.0,,,,1984.7492242999976,1009,20,female,True
633,0.2032915922009553,25,down,down,1.1301907999986724,1.9049130937623384,,experiment,cRDM,2.0,,,,1987.5991295999995,1009,20,female,True
634,0.2032915922009553,25,down,down,0.7263117999973474,1.297745597632667,,experiment,cRDM,2.0,,,,1990.2990135,1009,20,female,True
635,0.2032915922009553,25,down,down,0.6773229000027641,1.8179057334552544,,experiment,cRDM,2.0,,,,1993.0989211999984,1009,20,female,True
636,0.2032915922009553,25,up,up,0.300505899998825,1.856212859482082,,experiment,cRDM,2.0,,,,1995.8988045999977,1009,20,female,True
637,0.2032915922009553,25,up,up,0.6369898999982979,0.7850820054753627,,experiment,cRDM,2.0,,,,1997.365264299999,1009,20,female,True
638,0.2032915922009553,25,down,down,0.4499595999986923,1.996158923151044,,experiment,cRDM,2.0,,,,2000.2652992999972,1009,20,female,True
639,0.2032915922009553,25,down,down,0.7083821999985958,1.2655153301461644,,experiment,cRDM,2.0,,,,2002.231892599997,1009,20,female,True
640,0.2032915922009553,25,up,up,0.601113599997916,0.4258025534524293,,experiment,cRDM,2.0,,,,2003.6151861,1009,20,female,True
641,0.2032915922009553,25,up,down,0.90184230000159,1.313613728150796,,experiment,cRDM,2.0,,,,2005.7984612,1009,20,female,True
642,0.2032915922009553,25,up,up,1.0263187999989896,1.0055747547425398,,experiment,cRDM,2.0,,,,2007.9649537999976,1009,20,female,True
643,0.2032915922009553,25,up,up,0.5273298000029172,0.7286657618310857,,experiment,cRDM,2.0,,,,2009.9649357999988,1009,20,female,True
644,0.2032915922009553,25,up,down,0.4550937999993039,1.7795091373174887,,experiment,cRDM,2.0,,,,2012.5481573999969,1009,20,female,True
645,0.2032915922009553,25,down,down,0.8838476000019,1.3168986571189043,,experiment,cRDM,2.0,,,,2014.5814525999997,1009,20,female,True
646,0.2032915922009553,25,down,down,1.1825487999994948,0.6959111250868955,,experiment,cRDM,2.0,,,,2016.414729,1009,20,female,True
647,0.2032915922009553,25,up,up,0.865337900002487,1.4952540883057357,,experiment,cRDM,2.0,,,,2019.3479353,1009,20,female,True
648,0.2032915922009553,25,down,up,0.9113457999992534,0.525179504898672,,experiment,cRDM,2.0,,,,2020.9979090999989,1009,20,female,True
649,0.2032915922009553,25,down,up,0.9891749000016716,1.76225917922879,,experiment,cRDM,2.0,,,,2023.931096599997,1009,20,female,True
650,0.2032915922009553,25,down,up,0.9140364000013506,1.129095057310033,,experiment,cRDM,2.0,,,,2026.3143614,1009,20,female,True
651,0.2032915922009553,25,up,down,0.5383825999997498,0.6422294327766533,,experiment,cRDM,2.0,,,,2028.130944299999,1009,20,female,True
652,0.2032915922009553,25,down,up,0.8127225999996881,0.5189051502267511,,experiment,cRDM,2.0,,,,2029.4475572999984,1009,20,female,True
653,0.2032915922009553,25,down,down,0.6867793000019446,1.7762907863647723,,experiment,cRDM,2.0,,,,2032.297495699997,1009,20,female,True
654,0.2032915922009553,25,down,down,0.8302376999999979,1.473019279033306,,experiment,cRDM,2.0,,,,2034.714035699999,1009,20,female,True
655,0.2032915922009553,25,up,down,0.9886976000016148,1.6145647411535875,,experiment,cRDM,2.0,,,,2037.4306015,1009,20,female,True
656,0.2032915922009553,25,up,up,0.7225061999997706,1.4887730314202707,,experiment,cRDM,2.0,,,,2040.1807682,1009,20,female,True
657,0.2032915922009553,25,down,down,0.560861300000397,1.364029063681341,,experiment,cRDM,2.0,,,,2042.5304163,1009,20,female,True
658,0.2032915922009553,25,up,down,0.7202944000018761,1.980168489588809,,experiment,cRDM,2.0,,,,2045.3469941999972,1009,20,female,True
659,0.2032915922009553,25,down,down,1.0033684999980323,1.565151075183215,,experiment,cRDM,2.0,,,,2047.896902999997,1009,20,female,True
660,0.2032915922009553,25,up,down,0.8411403999998583,1.258559899691078,,experiment,cRDM,2.0,,,,2050.430139199998,1009,20,female,True
661,0.2032915922009553,25,up,up,0.721908200001053,1.3789635719346836,,experiment,cRDM,2.0,,,,2052.9133655999976,1009,20,female,True
662,122.0,25,M,up,0.7343373000003339,0.9461936008869432,,experiment,emotion,3.0,,,,2090.1619724999982,1009,20,female,True
663,114.0,25,M,up,0.4953429999986838,0.5685776330597482,,experiment,emotion,3.0,,,,2091.761923899998,1009,20,female,True
664,119.0,25,F,down,0.4940429000016593,1.84253422739764,,experiment,emotion,3.0,,,,2094.395196899997,1009,20,female,True
665,122.0,25,F,up,0.977844199998799,1.768910983234965,,experiment,emotion,3.0,,,,2096.9284132,1009,20,female,True
666,119.0,25,M,up,0.526844699998037,0.3417895785953057,,experiment,emotion,3.0,,,,2098.528376899998,1009,20,female,True
667,117.0,25,F,down,0.729645100000198,1.1588187793289415,,experiment,emotion,3.0,,,,2100.511623999999,1009,20,female,True
668,114.0,25,M,up,0.5517162999967695,0.8411016626273908,,experiment,emotion,3.0,,,,2102.361552399998,1009,20,female,True
669,117.0,25,M,up,0.3500772000006691,0.8508695178306849,,experiment,emotion,3.0,,,,2104.0281509999986,1009,20,female,True
670,122.0,25,F,down,0.5379790000006324,1.1612492307961793,,experiment,emotion,3.0,,,,2105.878342799999,1009,20,female,True
671,117.0,25,F,down,0.822224899999128,1.3470887164441152,,experiment,emotion,3.0,,,,2108.0280009999988,1009,20,female,True
672,119.0,25,F,up,0.5070859999977984,1.7755416727848374,,experiment,emotion,3.0,,,,2110.9112585000003,1009,20,female,True
673,122.0,25,F,up,0.6107849999971222,1.7042406089420112,,experiment,emotion,3.0,,,,2113.394488099999,1009,20,female,True
674,119.0,25,F,down,0.4582003999967128,1.643094036860061,,experiment,emotion,3.0,,,,2115.911070999998,1009,20,female,True
675,114.0,25,F,up,0.4244717000001401,1.5108236538427056,,experiment,emotion,3.0,,,,2118.1608036,1009,20,female,True
676,117.0,25,M,up,1.0797198000000208,1.425154444907038,,experiment,emotion,3.0,,,,2120.2775483999976,1009,20,female,True
677,114.0,25,M,down,0.8054792000002635,1.029720282400364,,experiment,emotion,3.0,,,,2122.6607885999983,1009,20,female,True
678,122.0,25,M,up,0.7051758999987214,0.5995845066533991,,experiment,emotion,3.0,,,,2124.3440881999995,1009,20,female,True
679,114.0,25,M,down,0.7326414000017394,1.9859218716671048,,experiment,emotion,3.0,,,,2127.3106224000003,1009,20,female,True
680,119.0,25,F,down,0.7133833000007144,1.6516651282066974,,experiment,emotion,3.0,,,,2129.993884899999,1009,20,female,True
681,119.0,25,M,down,0.6125064999978349,0.306872376543769,,experiment,emotion,3.0,,,,2131.293801699998,1009,20,female,True
682,117.0,25,M,up,0.4166767000024265,1.2402661356760694,,experiment,emotion,3.0,,,,2133.4437002999985,1009,20,female,True
683,117.0,25,F,down,0.4219335999987379,0.6738475224592982,,experiment,emotion,3.0,,,,2134.810351799999,1009,20,female,True
684,114.0,25,M,down,0.5446320000010019,0.8428111658414259,,experiment,emotion,3.0,,,,2136.3436323999995,1009,20,female,True
685,122.0,25,F,down,0.5777506999984325,0.4941534058816764,,experiment,emotion,3.0,,,,2137.643562199999,1009,20,female,True
686,119.0,25,F,down,0.54539979999754,0.697289802045063,,experiment,emotion,3.0,,,,2139.1768630999977,1009,20,female,True
687,114.0,25,M,down,0.5291324999998324,0.4968265802400792,,experiment,emotion,3.0,,,,2140.510145799999,1009,20,female,True
688,122.0,25,M,down,0.7712192000035429,1.7067050894861335,,experiment,emotion,3.0,,,,2143.0100510999982,1009,20,female,True
689,122.0,25,F,up,0.6393295000016224,1.6614213085009335,,experiment,emotion,3.0,,,,2145.709939199998,1009,20,female,True
690,117.0,25,M,down,0.4740383999996993,0.6173048080817207,,experiment,emotion,3.0,,,,2147.2432217999994,1009,20,female,True
691,114.0,25,F,down,0.9211461000013514,0.6601464091319711,,experiment,emotion,3.0,,,,2148.6431655999986,1009,20,female,True
692,117.0,25,F,down,0.7091347999994468,0.3684429702605457,,experiment,emotion,3.0,,,,2150.19313,1009,20,female,True
693,119.0,25,F,down,1.159239600001456,1.1648739176153469,,experiment,emotion,3.0,,,,2152.343023399997,1009,20,female,True
694,114.0,25,M,down,0.783739800001058,1.8960302523115748,,experiment,emotion,3.0,,,,2155.6595770999998,1009,20,female,True
695,122.0,25,M,up,0.3835192000005918,0.9067910959081228,,experiment,emotion,3.0,,,,2157.6261767999968,1009,20,female,True
696,119.0,25,M,up,0.6285253999994893,1.7178232186180884,,experiment,emotion,3.0,,,,2160.0427619999973,1009,20,female,True
697,122.0,25,F,down,0.5449731000007887,0.8052754755070144,,experiment,emotion,3.0,,,,2161.7593229999984,1009,20,female,True
698,114.0,25,F,down,0.9905981999982032,1.3560067604125454,,experiment,emotion,3.0,,,,2163.9426329999988,1009,20,female,True
699,119.0,25,M,up,0.7567569999991974,1.452503693358575,,experiment,emotion,3.0,,,,2166.6425076999985,1009,20,female,True
700,117.0,25,F,down,0.7391743000007409,1.3749899525946836,,experiment,emotion,3.0,,,,2169.0590973,1009,20,female,True
701,117.0,25,M,up,1.276135300002352,1.2302058056520784,,experiment,emotion,3.0,,,,2171.2923304,1009,20,female,True
702,119.0,25,M,down,0.5029711999995925,0.3008334991833862,,experiment,emotion,3.0,,,,2173.1422809,1009,20,female,True
703,122.0,25,M,down,0.6980174000018451,0.521958313524533,,experiment,emotion,3.0,,,,2174.442231199999,1009,20,female,True
704,117.0,25,F,down,0.585568599999533,1.9456969354038147,,experiment,emotion,3.0,,,,2177.3587716999973,1009,20,female,True
705,114.0,25,F,up,0.4169465000013588,1.0165423502276083,,experiment,emotion,3.0,,,,2179.258608199998,1009,20,female,True
706,114.0,25,M,down,1.0172887000007904,1.6518240951025804,,experiment,emotion,3.0,,,,2181.5919772999987,1009,20,female,True
707,117.0,25,F,down,0.7824091000002227,1.749886500106228,,experiment,emotion,3.0,,,,2184.6418502999986,1009,20,female,True
708,122.0,25,F,up,0.9202081999974324,1.2974401075422224,,experiment,emotion,3.0,,,,2187.0250597999984,1009,20,female,True
709,119.0,25,M,down,0.6729964000005566,1.1578994886267793,,experiment,emotion,3.0,,,,2189.4083278,1009,20,female,True
710,114.0,25,M,down,0.5016994000034174,1.3715628578699766,,experiment,emotion,3.0,,,,2191.7415564000003,1009,20,female,True
711,122.0,25,F,up,0.9407954999987852,1.6261245380777467,,experiment,emotion,3.0,,,,2194.1414749999967,1009,20,female,True
712,119.0,25,M,down,1.27584090000164,1.442737887695045,,experiment,emotion,3.0,,,,2196.791381799998,1009,20,female,True
713,119.0,25,F,up,1.137664699999732,1.1998191103739728,,experiment,emotion,3.0,,,,2199.5246009999973,1009,20,female,True
714,114.0,25,F,up,1.1525680999984615,0.3268434078935957,,experiment,emotion,3.0,,,,2201.257675099998,1009,20,female,True
715,117.0,25,F,down,0.6408478999983345,1.376015542446242,,experiment,emotion,3.0,,,,2204.074445299997,1009,20,female,True
716,122.0,25,M,up,1.0445626999971864,0.8367522270217469,,experiment,emotion,3.0,,,,2205.8077381999974,1009,20,female,True
717,117.0,25,M,up,1.3756285999988904,1.144344796338244,,experiment,emotion,3.0,,,,2208.2576358999977,1009,20,female,True
718,117.0,25,F,up,1.1463755000004312,0.9875688637840264,,experiment,emotion,3.0,,,,2210.890885599998,1009,20,female,True
719,117.0,25,F,down,0.7727986000027158,0.9044809736259248,,experiment,emotion,3.0,,,,2213.207441399998,1009,20,female,True
720,122.0,25,M,up,1.317267600003106,1.906336579355972,,experiment,emotion,3.0,,,,2216.174019299997,1009,20,female,True
721,119.0,25,M,down,0.7189964999997756,1.2214669831611529,,experiment,emotion,3.0,,,,2219.0072774,1009,20,female,True
722,114.0,25,M,down,0.5450701000008848,0.9684896915981848,,experiment,emotion,3.0,,,,2221.0071955999992,1009,20,female,True
723,114.0,25,M,up,0.9051552999990236,0.8783208532924605,,experiment,emotion,3.0,,,,2222.7071056999994,1009,20,female,True
724,119.0,25,M,up,0.8338661000016145,0.7032313262214491,,experiment,emotion,3.0,,,,2224.590374399999,1009,20,female,True
725,122.0,25,F,up,0.7192810000015015,0.4338352167549682,,experiment,emotion,3.0,,,,2226.1069809,1009,20,female,True
726,122.0,25,F,up,0.741952799999126,0.6482908822903792,,experiment,emotion,3.0,,,,2227.7402667999995,1009,20,female,True
727,114.0,25,M,up,0.890090599998075,1.0374012424867027,,experiment,emotion,3.0,,,,2229.790174899997,1009,20,female,True
