,stimLvl,stimTime,rand,response,rt,precedingITI,trialNumber,trialType,stimuli,block,estIntens,estThres,estSlope,trialStart,subject,age,gender,headRest
0,150.0,100,F,,,1.560090026073639,,introTrial,emotion,,,,,288.2113838000005,1003,24,female,True
1,0.9,100,down,,,1.4687581625764194,,introTrial,cRDM,,,,,293.61119569999937,1003,24,female,True
2,0.9,25,up,up,1.348581199999899,1.112710581237532,,tutorial,cRDM,,,,,324.5100540000003,1003,24,female,True
3,0.9,25,up,up,1.6866512999986298,0.4320865383385806,,tutorial,cRDM,,,,,326.5599760999994,1003,24,female,True
4,0.9,25,up,up,1.2527459999982966,0.367529545492983,,tutorial,cRDM,,,,,328.9098775000002,1003,24,female,True
5,0.9,25,down,down,0.5254658999983803,0.5615404636764005,,tutorial,cRDM,,,,,330.9931747999999,1003,24,female,True
6,0.9,25,down,down,0.5255867000014405,0.5650129146179133,,tutorial,cRDM,,,,,332.3430924000004,1003,24,female,True
7,0.9,25,down,down,0.6025414999985514,1.2464111700936007,,tutorial,cRDM,,,,,334.39306360000046,1003,24,female,True
8,0.9,25,down,down,0.692034200001217,1.546853976429179,,tutorial,cRDM,,,,,336.80960269999923,1003,24,female,True
9,0.9,25,down,down,1.0161256000010326,1.632815755803657,,tutorial,cRDM,,,,,339.4095118999994,1003,24,female,True
10,0.9,25,up,up,0.6109291000011581,1.4412917252170825,,tutorial,cRDM,,,,,342.14271329999974,1003,24,female,True
11,0.9,25,up,up,0.5986006999992242,1.1556007573111773,,tutorial,cRDM,,,,,344.1759808999996,1003,24,female,True
12,200.0,25,M,up,0.789184600000226,0.5700825035150554,,tutorial,emotion,,,,,350.34245589999955,1003,24,female,True
13,200.0,25,M,up,0.5902810999996291,1.225188149237639,,tutorial,emotion,,,,,352.6423428999988,1003,24,female,True
14,200.0,25,F,up,0.5476271999996243,0.5503958699366114,,tutorial,emotion,,,,,354.05897410000034,1003,24,female,True
15,0.0,25,F,down,0.5098116000008304,1.5470411815046392,,tutorial,emotion,,,,,356.458847599999,1003,24,female,True
16,0.0,25,M,down,0.350205000000642,1.5133642092069242,,tutorial,emotion,,,,,358.75877050000054,1003,24,female,True
17,200.0,25,F,up,0.641492400000061,0.9292668569010732,,tutorial,emotion,,,,,360.3920827000002,1003,24,female,True
18,0.0,25,M,down,0.5203069999988656,1.8130721870010191,,tutorial,emotion,,,,,363.1252876999988,1003,24,female,True
19,200.0,25,M,up,0.5303779999994731,0.7875214517902374,,tutorial,emotion,,,,,364.7252435999999,1003,24,female,True
20,0.0,25,F,down,0.6340955000014219,0.4756066828301059,,tutorial,emotion,,,,,366.0085411,1003,24,female,True
21,0.0,25,F,down,0.7042068000009749,1.57154674114812,,tutorial,emotion,,,,,368.5084239999997,1003,24,female,True
22,0.29,25,up,up,0.6455671000003349,0.6229805933223904,,psi_staircase_training,cRDM,,0.25,0.2569312402994632,0.105,377.3080959999989,1003,24,female,True
23,0.25,25,up,up,1.0132946000012453,1.0993083969719444,,psi_staircase_training,cRDM,,0.2191026665318312,0.2260132002683492,0.1046863203387393,379.3413370999988,1003,24,female,True
24,0.21,25,down,down,0.6861325999998371,1.4372850605584817,,psi_staircase_training,cRDM,,0.1900540959403307,0.1968497961554001,0.1029467298424999,382.0744947000003,1003,24,female,True
25,0.18,25,down,up,1.0014283000000432,1.5092601238234982,,psi_staircase_training,cRDM,,0.1635257589279754,0.1701521334256793,0.1003816477568649,384.541160499999,1003,24,female,True
26,0.28,25,up,up,0.9336906999997154,0.830919196394184,,psi_staircase_training,cRDM,,0.2462894156509761,0.253676874431043,0.111911164292932,386.6410892999993,1003,24,female,True
27,0.26,25,down,down,0.6932452999990346,1.269232092585148,,psi_staircase_training,cRDM,,0.224020924517144,0.2312720210897802,0.1098454399547734,389.124337199999,1003,24,female,True
28,0.23,25,up,up,1.2076268999990134,0.6472448163477815,,psi_staircase_training,cRDM,,0.2047781477371871,0.211824604656558,0.106745393979666,390.74093729999913,1003,24,female,True
29,0.23,25,down,down,0.8061806999994587,1.5239537331866235,,psi_staircase_training,cRDM,,0.1874201716315257,0.1943184465858974,0.1045006144520947,393.75739559999965,1003,24,female,True
30,0.21,25,down,down,0.7334878999990906,0.4244488138391392,,psi_staircase_training,cRDM,,0.1734597158637905,0.1801271287888497,0.1010033308447589,395.2740909000004,1003,24,female,True
31,0.17,25,up,up,0.5839383000002272,1.4057055999006365,,psi_staircase_training,cRDM,,0.1604596670362223,0.167027966793554,0.0995018849040958,397.69066659999953,1003,24,female,True
32,0.17,25,down,up,0.7833284000007552,0.43745478097415,,psi_staircase_training,cRDM,,0.1444495168362478,0.1514653128703286,0.1062809182413607,399.0072887999995,1003,24,female,True
33,0.23,25,down,up,0.8338031000002957,1.6481858669142395,,psi_staircase_training,cRDM,,0.1885396328642048,0.1947389701384431,0.0939125446055344,401.72385589999976,1003,24,female,True
34,0.28,25,down,up,0.6926428999995551,1.8028276761917157,,psi_staircase_training,cRDM,,0.2359689715877968,0.244202373679338,0.124726193619166,404.6569447999991,1003,24,female,True
35,0.36,25,up,up,0.7573412999990978,1.0316430536724357,,psi_staircase_training,cRDM,,0.2959971593713885,0.3051751476398815,0.1390355443695117,406.6572696999992,1003,24,female,True
36,0.34,25,up,down,1.4509309999994002,0.6251990184372158,,psi_staircase_training,cRDM,,0.2804725991774915,0.2896992343302768,0.1397724864794366,408.32364120000057,1003,24,female,True
37,0.4,25,down,up,0.8201305000002321,1.7759343444211686,,psi_staircase_training,cRDM,,0.3390015559728681,0.3482703752675165,0.1404115257717225,411.82348470000034,1003,24,female,True
38,0.44,25,down,down,0.7674838999992062,0.3187062596016929,,psi_staircase_training,cRDM,,0.3902299832287697,0.3991020699550429,0.1344015018972626,413.2401233000001,1003,24,female,True
39,0.44,25,up,up,0.7439502999986871,0.3892575538412735,,psi_staircase_training,cRDM,,0.3797213518816756,0.3888083677702605,0.1376574216270219,414.673643099999,1003,24,female,True
40,0.39,25,up,down,0.6836542000000918,0.543056170908738,,psi_staircase_training,cRDM,,0.3702202514042397,0.3793918390251975,0.1389385822152415,416.2399691999999,1003,24,female,True
41,0.45,25,up,up,0.5529483999998774,0.4048474794527426,,psi_staircase_training,cRDM,,0.4050262263266919,0.4130044838517508,0.1208610586183343,417.6065949999993,1003,24,female,True
42,0.45,25,up,up,0.6134530999988783,1.5924101846902114,,psi_staircase_training,cRDM,,0.398689839235649,0.4065569921868919,0.119177957218489,420.02317570000014,1003,24,female,True
43,0.45,25,down,up,1.0241731999994954,1.759558815462138,,psi_staircase_training,cRDM,,0.3933274493564977,0.4009866305551022,0.1160274339234424,422.6564524000005,1003,24,female,True
44,0.46,25,down,down,0.7316131999996287,0.7075691652513274,,psi_staircase_training,cRDM,,0.416897867056007,0.4260149979557307,0.1381136280248598,424.6730119000004,1003,24,female,True
45,0.46,25,down,down,0.9893654999996216,0.9728554346644434,,psi_staircase_training,cRDM,,0.4108482392537407,0.4200126942353737,0.1388305312609025,426.6562212999997,1003,24,female,True
46,0.43,25,up,up,0.6935449000011431,0.8528924863409344,,psi_staircase_training,cRDM,,0.4053022472773605,0.4144242219451266,0.1381870053170164,428.75607709999895,1003,24,female,True
47,0.43,25,up,up,0.6672183999999106,1.4515518782566086,,psi_staircase_training,cRDM,,0.3977498179503104,0.4071203074522999,0.1419517078040259,431.15636379999887,1003,24,female,True
48,0.44,25,down,up,0.7816204999999172,1.9121461049357025,,psi_staircase_training,cRDM,,0.3905153048569714,0.4000300280322879,0.1441366754353614,434.0059875999996,1003,24,female,True
49,0.47,25,down,down,0.7480309999991732,1.7430986118729688,,psi_staircase_training,cRDM,,0.4145466661617396,0.4242110215106172,0.1464034238880349,436.8225497000003,1003,24,female,True
50,0.42,25,up,up,0.772125599998617,1.014599677795944,,psi_staircase_training,cRDM,,0.4102327930247031,0.4198029908945337,0.1449770507033238,438.8724899999997,1003,24,female,True
51,0.42,25,up,up,0.7632504000011977,1.2452056173830086,,psi_staircase_training,cRDM,,0.4030002563285382,0.4129534830309295,0.1507794793713935,441.1723918999997,1003,24,female,True
52,100.0,25,M,down,0.9013799999993352,0.9253868908407958,,psi_staircase_training,emotion,,100.0,100.0,25.00050000000001,446.6721978000005,1003,24,female,True
53,145.0,25,M,up,0.6678585999998177,1.4509107165834116,,psi_staircase_training,emotion,,145.25719053245996,145.25719053245996,25.00050000000028,449.3887350999994,1003,24,female,True
54,121.0,25,F,down,0.7349372999997286,1.2743821887697395,,psi_staircase_training,emotion,,120.36392901436103,120.36392901436103,25.71326925488699,451.6886806999992,1003,24,female,True
55,137.0,25,F,up,0.7420184999991761,1.6107441857051028,,psi_staircase_training,emotion,,137.8359832966118,137.8359832966118,25.292325986285498,454.3885630000004,1003,24,female,True
56,127.0,25,M,up,0.4716933999989123,0.3246032771585611,,psi_staircase_training,emotion,,126.46069055808248,126.46069055808248,23.64975108561129,455.8218696000004,1003,24,female,True
57,113.0,25,F,down,0.6075893999986874,1.6971626862393012,,psi_staircase_training,emotion,,117.51644698116752,117.51644698116752,24.57617413513076,458.3550661999998,1003,24,female,True
58,117.0,25,M,down,0.7063960000014049,0.7193086028247926,,psi_staircase_training,emotion,,123.97574817942947,123.97574817942947,21.32025430974062,460.0383708999998,1003,24,female,True
59,131.0,25,F,up,0.5240255000007892,1.816601859597368,,psi_staircase_training,emotion,,127.58399838676192,127.58399838676192,18.701144340840923,462.9215893000001,1003,24,female,True
60,124.0,25,F,up,0.6648826000000554,1.44383264813085,,psi_staircase_training,emotion,,124.01639763482854,124.01639763482854,15.44278174408512,465.25472160000027,1003,24,female,True
61,116.0,25,M,up,1.2915106000000378,0.9255765293910484,,psi_staircase_training,emotion,,120.73873588651485,120.73873588651485,15.48454053038407,467.18809659999897,1003,24,female,True
62,103.0,25,F,down,0.6888944000002084,0.3841475658932475,,psi_staircase_training,emotion,,115.35674640454216,115.35674640454216,23.67234390188736,469.2046900000005,1003,24,female,True
63,105.0,25,F,down,0.5861401000001933,0.5006486861307493,,psi_staircase_training,emotion,,117.97134362294368,117.97134362294368,20.93444532063568,470.7546248999988,1003,24,female,True
64,133.0,25,F,up,0.6083098999988579,0.8569943939568798,,psi_staircase_training,emotion,,119.6839312810483,119.6839312810483,18.588518579384058,472.5712580999989,1003,24,female,True
65,107.0,25,M,down,0.7339799000001221,1.3864987646337188,,psi_staircase_training,emotion,,118.53364819240232,118.53364819240232,16.570832855564753,474.9045004999989,1003,24,female,True
66,130.0,25,M,up,0.851571100000001,0.6802536222825313,,psi_staircase_training,emotion,,119.68210060391723,119.68210060391723,14.559030680758225,476.6710899999998,1003,24,female,True
67,110.0,25,F,down,0.7112909999996191,1.330658983350862,,psi_staircase_training,emotion,,118.8469149485928,118.8469149485928,12.880440819241205,479.2043205999999,1003,24,female,True
68,128.0,25,F,up,0.621382100000119,1.5361366004560764,,psi_staircase_training,emotion,,119.69825864330112,119.69825864330112,11.303807507587209,481.80421679999927,1003,24,female,True
69,112.0,25,M,up,0.5981093999998848,0.7996113136117896,,psi_staircase_training,emotion,,119.08494612960538,119.08494612960538,10.03140485838151,483.5874900999988,1003,24,female,True
70,104.0,25,M,down,0.6452022000012221,0.8486372201951586,,psi_staircase_training,emotion,,116.55743024499245,116.55743024499245,14.501185982403738,485.3874144999991,1003,24,female,True
71,105.0,25,M,up,0.5905834000004688,0.8241382122792844,,psi_staircase_training,emotion,,117.24551364633824,117.24551364633824,13.02819540525918,487.20401929999935,1003,24,female,True
72,97.0,25,M,down,0.7029851999996026,0.773332231298735,,psi_staircase_training,emotion,,114.6280410736834,114.6280410736834,19.38633552245069,488.92062559999977,1003,24,female,True
73,98.0,25,F,down,0.6400026000010257,0.5444513252156583,,psi_staircase_training,emotion,,115.34723826600484,115.34723826600484,17.856917643404127,490.5205667999999,1003,24,female,True
74,132.0,25,F,up,0.4614240000009886,1.2250731919483038,,psi_staircase_training,emotion,,115.8754868216047,115.8754868216047,16.5584073182458,492.7371346,1003,24,female,True
75,100.0,25,F,down,0.6307980000001407,0.4563844737600544,,psi_staircase_training,emotion,,115.38380455989432,115.38380455989432,15.386545434672112,494.00377429999935,1003,24,female,True
76,130.0,25,M,up,0.5640139999995881,0.553682324819009,,psi_staircase_training,emotion,,115.805755018477,115.805755018477,14.349079959880548,495.5536145999995,1003,24,female,True
77,101.0,25,M,down,0.6682487999987643,1.5505719542607472,,psi_staircase_training,emotion,,115.39170425309572,115.39170425309572,13.419871946991172,498.0202945000001,1003,24,female,True
78,128.0,25,F,up,0.3335393999986991,1.6895259652540713,,psi_staircase_training,emotion,,115.72371266642551,115.72371266642551,12.630037334236798,500.7368435999997,1003,24,female,True
79,127.0,25,F,up,0.3335208000007696,1.7306141914013426,,psi_staircase_training,emotion,,115.35279133343931,115.35279133343931,11.905701074908889,503.2367562,1003,24,female,True
80,104.0,25,M,down,0.9245673999994324,0.9133207190106798,,psi_staircase_training,emotion,,115.03273180386356,115.03273180386356,11.29426224967102,504.92004689999885,1003,24,female,True
81,125.0,25,M,up,0.5563041000004887,0.3012076131900407,,psi_staircase_training,emotion,,115.36630704387908,115.36630704387908,10.722065986268715,506.5033012999993,1003,24,female,True
82,0.29,25,up,up,1.0865969000005862,0.7084057295396354,,psi_staircase,cRDM,,0.25,0.2569312402994632,0.105,514.7030035999996,1003,24,female,True
83,0.25,25,up,up,0.7392655000003288,0.3189599905330881,,psi_staircase,cRDM,,0.2191026665318312,0.2260132002683492,0.1046863203387393,516.3863044999998,1003,24,female,True
84,0.21,25,down,up,1.2240416000004188,1.6628387653086751,,psi_staircase,cRDM,,0.1900540959403307,0.1968497961554001,0.1029467298424999,519.0695006000005,1003,24,female,True
85,0.32,25,down,down,0.7068221000008634,0.5445957189649554,,psi_staircase,cRDM,,0.2819387795981387,0.2893209636160949,0.1118312579561586,521.1027792000004,1003,24,female,True
86,0.29,25,up,up,0.7252248000004329,1.0065494377816944,,psi_staircase,cRDM,,0.259426876942127,0.2667634756990502,0.1111406957765679,523.0693630999995,1003,24,female,True
87,0.27,25,down,down,0.7196384000017133,1.1748469891060094,,psi_staircase,cRDM,,0.238671950950526,0.2458822432686334,0.109227304305105,525.2359641000003,1003,24,female,True
88,0.26,25,up,up,0.7063490000000456,0.4109625732465823,,psi_staircase,cRDM,,0.2201157802488951,0.2271739015591714,0.1069220955499697,526.6192331000002,1003,24,female,True
89,0.24,25,down,down,0.7054066999990027,0.6878217812789462,,psi_staircase,cRDM,,0.2041505375414391,0.2110301411817813,0.1042177663775234,528.2692028000001,1003,24,female,True
90,0.2,25,down,down,1.614230500001213,0.6102872331746808,,psi_staircase,cRDM,,0.1888644554418269,0.1957080400193487,0.103672120658612,529.8523526999998,1003,24,female,True
91,0.2,25,up,up,0.6115680000002612,0.997355237261075,,psi_staircase,cRDM,,0.1705557926382123,0.1778497321889761,0.1104944598284255,532.7189992999993,1003,24,female,True
92,0.19,25,down,down,0.9759610000000976,0.3552426753837749,,psi_staircase,cRDM,,0.1533088738836659,0.1608834185373759,0.1147452915030432,533.9356115999999,1003,24,female,True
93,0.18,25,down,up,1.8153808000006395,0.5191015314887093,,psi_staircase,cRDM,,0.1374714623748278,0.1451964942842611,0.117024993427699,535.7022226999998,1003,24,female,True
94,0.22,25,down,up,0.8721163000009255,1.304560207776782,,psi_staircase,cRDM,,0.1890983047285983,0.1967618897808424,0.1160941470385819,539.0854428999992,1003,24,female,True
95,0.27,25,up,up,0.711876299999858,0.9502880274414304,,psi_staircase,cRDM,,0.2318207965013537,0.2389986339810918,0.1087356523234176,541.1687235999998,1003,24,female,True
96,0.27,25,up,up,1.3034527999989225,1.5998254111619945,,psi_staircase,cRDM,,0.221729247585462,0.2285682303927158,0.103602409343283,543.7521785999998,1003,24,female,True
97,0.26,25,down,down,0.7627834000013536,1.1358843747773126,,psi_staircase,cRDM,,0.2140761206770766,0.2205464294878881,0.0980174392724234,546.4517961000001,1003,24,female,True
98,0.25,25,down,down,0.7865270000002056,1.3440008595141586,,psi_staircase,cRDM,,0.2078596450504572,0.2139947580872456,0.0929396242275229,548.8350683999997,1003,24,female,True
99,0.21,25,up,up,0.6949343000014778,1.0593354614187231,,psi_staircase,cRDM,,0.2022132128834185,0.2081110287760698,0.0893448563277114,550.9516234999992,1003,24,female,True
100,0.21,25,up,down,1.5596593999998731,1.416932697194456,,psi_staircase,cRDM,,0.190285473939765,0.1969768039277192,0.1013656457401414,553.3348862000003,1003,24,female,True
101,0.26,25,up,up,0.8554207999986829,0.8023497089132454,,psi_staircase,cRDM,,0.2191634824511115,0.2242131890614164,0.0764970151335071,555.9681755000001,1003,24,female,True
102,0.24,25,up,up,0.8425225000009959,1.4952305428354185,,psi_staircase,cRDM,,0.2159700734449513,0.2206225980103106,0.0704801822266284,558.5680718999993,1003,24,female,True
103,0.24,25,down,down,1.1933823999988815,1.671951804707009,,psi_staircase,cRDM,,0.2114283307692854,0.2159872283797784,0.0690618458486906,561.3512085000002,1003,24,female,True
104,0.23,25,down,up,1.0766954999999143,1.765046729630486,,psi_staircase,cRDM,,0.2077757784357363,0.2122033644065968,0.0670726315716327,564.5678578999996,1003,24,female,True
105,0.26,25,down,down,0.9801754999989498,1.68532315317397,,psi_staircase,cRDM,,0.2251067343443507,0.2290580119921672,0.0598571301954237,567.5843982000006,1003,24,female,True
106,0.26,25,up,up,1.7605318000005354,0.6541932569773588,,psi_staircase,cRDM,,0.2234606934364287,0.2270336171770915,0.054125521055539,569.500966399999,1003,24,female,True
107,0.24,25,up,up,1.0017705999998725,1.8607609724615517,,psi_staircase,cRDM,,0.2225122680298535,0.2257476000101879,0.0490114096839809,573.4008302000002,1003,24,female,True
108,0.24,25,down,down,1.6111548999997467,1.6456015711818437,,psi_staircase,cRDM,,0.2198495726979163,0.2230360666979834,0.0482715726986047,576.3173869999991,1003,24,female,True
109,0.23,25,down,down,0.993941000000632,0.8561480369868872,,psi_staircase,cRDM,,0.2176352267439083,0.2207519662226512,0.0472148751347356,579.0506389999991,1003,24,female,True
110,0.21,25,up,up,0.8107024999990244,1.4670860946704714,,psi_staircase,cRDM,,0.2135252397562375,0.2168652508549506,0.050597173119511,581.7838501000006,1003,24,female,True
111,0.21,25,up,up,1.0171692000003532,1.840126143259059,,psi_staircase,cRDM,,0.2055727909291168,0.2097342986977259,0.0630418650667455,584.7004087000005,1003,24,female,True
112,0.2,25,down,down,1.048969000001307,1.8983757054202453,,psi_staircase,cRDM,,0.1960410398122244,0.2011151245228376,0.0768663141942496,587.8836186999997,1003,24,female,True
113,0.2,25,up,up,1.07142229999954,0.3625641488745665,,psi_staircase,cRDM,,0.1848654320074912,0.1909620785748835,0.0923569032263628,589.5501700000004,1003,24,female,True
114,0.2,25,down,down,0.7994283999996696,0.7153593430003292,,psi_staircase,cRDM,,0.1731570471507574,0.1802241075805869,0.1070575125190166,591.6001605999991,1003,24,female,True
115,0.2,25,up,up,1.2161656999996922,0.6060324865553215,,psi_staircase,cRDM,,0.1618272693875918,0.1697328100087852,0.1197594845023021,593.2834236999988,1003,24,female,True
116,0.2,25,down,down,0.7928838999996515,0.4496298022517208,,psi_staircase,cRDM,,0.1515416088368045,0.1601130602413228,0.1298472363660682,595.2166987,1003,24,female,True
117,0.2,25,up,up,0.7579840999987937,1.200930005294352,,psi_staircase,cRDM,,0.1425998430912585,0.1516640258160223,0.1373115265061439,597.4666393999996,1003,24,female,True
118,0.2,25,down,down,0.6954670000013721,1.5968976792690983,,psi_staircase,cRDM,,0.134999021997798,0.1444074626383931,0.142526622160103,600.083106099999,1003,24,female,True
119,0.2,25,up,up,0.7617553000000044,0.5649886339701973,,psi_staircase,cRDM,,0.1285689379614213,0.1382066378519461,0.1459996255768924,601.5997972000005,1003,24,female,True
120,0.19,25,up,up,0.7782540999996854,1.7841092018080476,,psi_staircase,cRDM,,0.1230873112230067,0.1328707988249693,0.1482081350268034,604.4163348000002,1003,24,female,True
121,0.17,25,down,up,0.8976540000003297,1.5624076101329738,,psi_staircase,cRDM,,0.1180100648875652,0.127903203360765,0.1498692145713687,607.032894599999,1003,24,female,True
122,0.2,25,down,up,1.0080664999986766,1.7969851937928,,psi_staircase,cRDM,,0.13725675987611,0.1467452987492579,0.1437400145768538,609.9994668999989,1003,24,female,True
123,0.2,25,down,up,1.1272470000003525,1.9888702795190123,,psi_staircase,cRDM,,0.1578741391515007,0.1668196560456375,0.13551388110972,613.2493352999991,1003,24,female,True
124,0.2,25,up,up,0.8232797000000573,0.965381928786609,,psi_staircase,cRDM,,0.1792842766813862,0.1871657856176134,0.1193954332196418,615.5992704,1003,24,female,True
125,0.2,25,up,,,1.43258254522359,,psi_staircase,cRDM,,0.1716878446273617,0.1801500678990097,0.1281925608021192,618.0991998999998,1003,24,female,True
126,0.2,25,down,down,1.2598140999998575,1.43258254522359,,psi_staircase,cRDM,,0.1716878446273617,0.1801500678990097,0.1281925608021192,622.2156826999999,1003,24,female,True
127,0.2,25,down,up,1.2020923999989463,1.8081998897680325,,psi_staircase,cRDM,,0.1647995591789654,0.1737056068819729,0.134915970073668,625.5488908999996,1003,24,female,True
128,0.2,25,down,up,1.1173859999998967,1.4818729367656558,,psi_staircase,cRDM,,0.1840759201919513,0.1919591639904136,0.1194217143074135,628.4821623999997,1003,24,female,True
129,0.2,25,down,up,1.5558782999996763,1.3462918043187106,,psi_staircase,cRDM,,0.2014960763090889,0.2079724894364563,0.0981099123668004,631.1986921999996,1003,24,female,True
130,0.26,25,up,up,2.305765600000086,0.6081788920131237,,psi_staircase,cRDM,,0.2148737374007155,0.2198139538280223,0.0748383698235636,633.6319287999995,1003,24,female,True
131,0.26,25,up,up,1.082815899999332,1.6320255638979035,,psi_staircase,cRDM,,0.2145181196636564,0.2190448540072216,0.0685746108255896,637.8317580000003,1003,24,female,True
132,0.26,25,up,up,1.0355244999991555,0.9934834197427196,,psi_staircase,cRDM,,0.2144824706847576,0.2186209977209819,0.0626937344586358,640.1650644000001,1003,24,female,True
133,100.0,25,M,down,1.1394001999997272,0.4825989891869173,,psi_staircase,emotion,,100.0,100.0,25.00050000000001,644.7981858999992,1003,24,female,True
134,145.0,25,M,up,0.7888027999997576,1.5403531026462125,,psi_staircase,emotion,,145.25719053245996,145.25719053245996,25.00050000000028,647.8147392999999,1003,24,female,True
135,121.0,25,F,up,1.0688632000001237,0.6781708800216077,,psi_staircase,emotion,,120.36392901436103,120.36392901436103,25.71326925488699,649.6146833000003,1003,24,female,True
136,97.0,25,F,down,0.7016562999997404,1.1637131081883827,,psi_staircase,emotion,,102.3887610608496,102.3887610608496,26.14633372628729,652.1978997999995,1003,24,female,True
137,113.0,25,M,down,0.8574017999999342,0.9921262386125786,,psi_staircase,emotion,,114.01123255420406,114.01123255420406,23.00305641778335,654.2481212999992,1003,24,female,True
138,127.0,25,F,up,0.4991810000010446,1.6034335276931813,,psi_staircase,emotion,,123.15505271238727,123.15505271238727,23.86267166612523,657.0644109000004,1003,24,female,True
139,117.0,25,M,down,1.1202753000015946,1.198988083413431,,psi_staircase,emotion,,116.72664759921038,116.72664759921038,20.612160618334432,659.1143276999992,1003,24,female,True
140,128.0,25,M,up,0.9166136999992888,0.8423739983259573,,psi_staircase,emotion,,122.23098691439831,122.23098691439831,20.832163948572948,661.4308863000006,1003,24,female,True
141,113.0,25,F,up,0.7224000999995042,0.6241697133766775,,psi_staircase,emotion,,118.62736425730574,118.62736425730574,17.52430219955878,663.3141713999994,1003,24,female,True
142,99.0,25,F,down,0.7731358999990334,1.7093387562211106,,psi_staircase,emotion,,113.29400917737182,113.29400917737182,23.91489830704409,666.0974040000001,1003,24,female,True
143,130.0,25,F,up,0.7032522000008612,1.3766978136461,,psi_staircase,emotion,,115.69706880286856,115.69706880286856,21.52499615988544,668.5972853000003,1003,24,female,True
144,102.0,25,F,down,0.7773508000009315,1.932488933804176,,psi_staircase,emotion,,114.0409454876518,114.0409454876518,19.4061948943462,671.5971893999995,1003,24,female,True
145,128.0,25,F,up,0.8323892999997042,0.5917816534522882,,psi_staircase,emotion,,115.7039483156922,115.7039483156922,17.16539187390956,673.2971266000004,1003,24,female,True
146,105.0,25,F,down,0.7532119999996212,1.2967348263586622,,psi_staircase,emotion,,114.59628060791268,114.59628060791268,15.2714993900026,675.7803630999988,1003,24,female,True
147,125.0,25,M,up,0.848002999999153,1.37977762606633,,psi_staircase,emotion,,115.78857871975517,115.78857871975517,13.400555457201282,678.2635460000001,1003,24,female,True
148,107.0,25,M,down,0.8213948000011442,0.8826720709900324,,psi_staircase,emotion,,114.95798098257984,114.95798098257984,11.87603376900346,680.3301716999995,1003,24,female,True
149,109.0,25,M,up,0.9238071999989188,1.003640473704352,,psi_staircase,emotion,,115.82245734048198,115.82245734048198,10.443449431195768,682.4967844999992,1003,24,female,True
150,100.0,25,M,up,0.9601124000000708,0.9366924581893956,,psi_staircase,emotion,,113.40739643361415,113.40739643361415,14.362597296867188,684.7133747999997,1003,24,female,True
151,91.0,25,F,down,0.6648341999989498,1.964552414978065,,psi_staircase,emotion,,110.23914918665668,110.23914918665668,21.812232451250708,687.9799217,1003,24,female,True
152,92.0,25,M,down,0.7890422000000399,1.5423198471119313,,psi_staircase,emotion,,111.15304958556732,111.15304958556732,20.15877377107557,690.5464921000003,1003,24,female,True
153,129.0,25,M,up,0.9597990999991453,0.989291926947194,,psi_staircase,emotion,,111.8256843984538,111.8256843984538,18.723909250469823,692.6797336999989,1003,24,female,True
154,94.0,25,F,down,0.7372242000001279,0.8080969291763165,,psi_staircase,emotion,,111.1999279829901,111.1999279829901,17.38964170731299,694.7963287999992,1003,24,female,True
155,127.0,25,M,up,0.7743807999995624,1.745719329542364,,psi_staircase,emotion,,111.72838786451722,111.72838786451722,16.187327477489646,697.6461658999997,1003,24,female,True
156,96.0,25,F,up,1.040736699998888,1.014916964636242,,psi_staircase,emotion,,111.21618415462406,111.21618415462406,15.090210189281851,699.812815199999,1003,24,female,True
157,88.0,25,F,down,0.8005005000013625,0.5846884215294896,,psi_staircase,emotion,,108.7565506649233,108.7565506649233,20.54594650111038,701.796065999999,1003,24,female,True
158,89.0,25,M,down,0.8298682999993616,0.7763093208974983,,psi_staircase,emotion,,109.31359888712952,109.31359888712952,19.35536958372777,703.7126621999996,1003,24,female,True
159,129.0,25,M,up,0.7842887000006158,0.4267169702739374,,psi_staircase,emotion,,109.7544992544354,109.7544992544354,18.315531518734517,705.3292504000001,1003,24,female,True
160,91.0,25,F,down,0.8320521999994526,1.6523545136716549,,psi_staircase,emotion,,109.31999062015622,109.31999062015622,17.348983636499405,708.1125197999991,1003,24,female,True
161,127.0,25,M,up,0.7314778999989358,1.495013477789551,,psi_staircase,emotion,,109.6985169415426,109.6985169415426,16.48202965124381,710.7790705999996,1003,24,female,True
162,126.0,25,F,up,0.6951926999990974,1.1150260190693435,,psi_staircase,emotion,,109.31240533625493,109.31240533625493,15.678606422754996,712.9623336999994,1003,24,female,True
163,93.0,25,F,up,1.2738251999999193,0.9667570344057193,,psi_staircase,emotion,,108.98148135201755,108.98148135201755,14.980153082823737,714.978908699999,1003,24,female,True
164,86.0,25,F,down,0.7780421999996179,1.290276798020615,,psi_staircase,emotion,,106.96044318287984,106.96044318287984,18.90649990080016,717.8954613999995,1003,24,female,True
165,87.0,25,M,down,0.7968461000000389,0.8473576271131296,,psi_staircase,emotion,,107.3445495080572,107.3445495080572,18.063654345967294,719.8787193999997,1003,24,female,True
166,126.0,25,M,up,0.8526016999985586,0.950514341330877,,psi_staircase,emotion,,107.6677079857494,107.6677079857494,17.326867251490807,721.9619892999999,1003,24,female,True
167,89.0,25,M,down,0.7180033000004187,0.5744593140346232,,psi_staircase,emotion,,107.34541050091087,107.34541050091087,16.655898749786253,723.7455642999994,1003,24,female,True
168,125.0,25,F,up,0.7330296999989514,0.4093466185691337,,psi_staircase,emotion,,107.6421800651476,107.6421800651476,16.0390968979673,725.2285315999998,1003,24,female,True
169,90.0,25,F,up,0.6533850999985589,0.483855182739889,,psi_staircase,emotion,,107.35105519672148,107.35105519672148,15.482186327621507,726.7951491000003,1003,24,female,True
170,84.0,25,M,up,0.7078108999994583,0.8492702367303011,,psi_staircase,emotion,,105.66952827330542,105.66952827330542,18.71045691271755,728.6617432000003,1003,24,female,True
171,78.0,25,F,down,0.8495736000004399,1.7622267571006172,,psi_staircase,emotion,,103.7002763661086,103.7002763661086,23.147349041991028,731.4949703999991,1003,24,female,True
172,79.0,25,M,down,0.6817250999993121,0.6213522159195525,,psi_staircase,emotion,,104.07541045792568,104.07541045792568,22.335598180855868,733.3448509999998,1003,24,female,True
173,79.0,25,M,down,0.703707000000577,0.834729389655662,,psi_staircase,emotion,,104.40224878541794,104.40224878541794,21.59673122774308,735.1948470999996,1003,24,female,True
174,128.0,25,M,up,0.6598924999998417,0.4834779919441367,,psi_staircase,emotion,,104.67572401744664,104.67572401744664,20.93811263932196,736.7446540000001,1003,24,female,True
175,81.0,25,F,down,1.046557899999243,1.7675073624843458,,psi_staircase,emotion,,104.3954899881754,104.3954899881754,20.312307452327957,739.5280075999999,1003,24,female,True
176,127.0,25,F,up,0.714276400000017,0.5739725597026336,,psi_staircase,emotion,,104.65335196073836,104.65335196073836,19.730299683290365,741.5112687000001,1003,24,female,True
177,82.0,25,M,down,0.7377163000001019,0.9591819652095424,,psi_staircase,emotion,,104.3959491547186,104.3959491547186,19.18673249440069,743.527843599999,1003,24,female,True
178,126.0,25,F,up,0.7371164000014687,1.072840429504331,,psi_staircase,emotion,,104.629957169955,104.629957169955,18.686016648486785,745.6944435999994,1003,24,female,True
179,125.0,25,F,up,0.7402623999987554,0.7517558558953976,,psi_staircase,emotion,,104.38982449584675,104.38982449584675,18.214711636377917,747.5442944999995,1003,24,female,True
180,84.0,25,M,down,0.6405928000003769,1.3805308154989735,,psi_staircase,emotion,,104.1633597401313,104.1633597401313,17.781479152900523,750.0109312000004,1003,24,female,True
181,123.0,25,M,up,0.7019978999996965,0.9757913765924562,,psi_staircase,emotion,,104.39400895200274,104.39400895200274,17.36332436850197,751.9775367999991,1003,24,female,True
182,85.0,25,F,up,0.8225320000001375,1.4165050606738552,,psi_staircase,emotion,,104.15998460716564,104.15998460716564,16.97630189943467,754.4440331999995,1003,24,female,True
183,0.2146934650880827,25,down,down,1.2949664000007033,1.059183733320047,,experiment,cRDM,0.0,,,,759.6605968999993,1003,24,female,True
184,0.2146934650880827,25,up,up,0.933751000000484,1.4116014379852115,,experiment,cRDM,0.0,,,,762.6438524999994,1003,24,female,True
185,0.2146934650880827,25,down,down,0.9574558999993316,0.78846382235076,,experiment,cRDM,0.0,,,,764.6270401000002,1003,24,female,True
186,0.2146934650880827,25,up,up,0.8688150000016321,0.4898806410682449,,experiment,cRDM,0.0,,,,766.3437281999995,1003,24,female,True
187,0.2146934650880827,25,down,down,0.8876815000003262,0.6603120603566491,,experiment,cRDM,0.0,,,,768.1269331999993,1003,24,female,True
188,0.2146934650880827,25,down,down,0.7182494999997289,0.8883544999543855,,experiment,cRDM,0.0,,,,770.1602365999988,1003,24,female,True
189,0.2146934650880827,25,up,up,0.748733300000822,1.040849745288676,,experiment,cRDM,0.0,,,,772.1768154999991,1003,24,female,True
190,0.2146934650880827,25,down,down,0.8444220000001224,0.4597919168027499,,experiment,cRDM,0.0,,,,773.6600777999993,1003,24,female,True
191,0.2146934650880827,25,up,up,0.7339988999992784,1.9442707883069168,,experiment,cRDM,0.0,,,,776.7265341999992,1003,24,female,True
192,0.2146934650880827,25,up,up,0.7276777999995829,1.993796070380713,,experiment,cRDM,0.0,,,,779.7098616000003,1003,24,female,True
193,0.2146934650880827,25,down,down,0.6900786999995034,1.6652932800815428,,experiment,cRDM,0.0,,,,782.3764346999997,1003,24,female,True
194,0.2146934650880827,25,up,up,0.7969169999996666,1.6989381156844787,,experiment,cRDM,0.0,,,,785.0096321000001,1003,24,female,True
195,0.2146934650880827,25,up,up,0.9222891000008532,0.7966644294681479,,experiment,cRDM,0.0,,,,786.8762604000003,1003,24,female,True
196,0.2146934650880827,25,up,up,0.7240746000006766,1.8391169976302133,,experiment,cRDM,0.0,,,,789.9094738000003,1003,24,female,True
197,0.2146934650880827,25,down,up,0.8871557999991637,1.2185123836340983,,experiment,cRDM,0.0,,,,792.1093939999992,1003,24,female,True
198,0.2146934650880827,25,down,up,0.75687040000048,1.284520247290757,,experiment,cRDM,0.0,,,,794.5427244999992,1003,24,female,True
199,0.2146934650880827,25,up,up,0.7637102999997296,1.8647230248743791,,experiment,cRDM,0.0,,,,797.4427904999993,1003,24,female,True
200,0.2146934650880827,25,up,down,1.1817243000004964,0.8249330739626541,,experiment,cRDM,0.0,,,,799.2757934000001,1003,24,female,True
201,0.2146934650880827,25,down,down,0.7584593999999925,0.5549099870985325,,experiment,cRDM,0.0,,,,801.2590739999996,1003,24,female,True
202,0.2146934650880827,25,down,up,0.935912199998711,0.935571711630379,,experiment,cRDM,0.0,,,,803.2256548000005,1003,24,female,True
203,0.2146934650880827,25,up,down,2.0730425999990985,1.0093497972611372,,experiment,cRDM,0.0,,,,805.4425032999989,1003,24,female,True
204,0.2146934650880827,25,down,down,1.0566963000001124,0.4886829160567971,,experiment,cRDM,0.0,,,,808.2588034,1003,24,female,True
205,0.2146934650880827,25,up,up,0.9265317000008508,1.8084629249552864,,experiment,cRDM,0.0,,,,811.3920166999997,1003,24,female,True
206,0.2146934650880827,25,down,down,0.7869160999998712,0.4303961220146838,,experiment,cRDM,0.0,,,,813.0086078000004,1003,24,female,True
207,0.2146934650880827,25,down,up,1.535933200000727,1.250441285556565,,experiment,cRDM,0.0,,,,815.30854,1003,24,female,True
208,0.2146934650880827,25,up,down,0.7294167000000016,1.80633721227887,,experiment,cRDM,0.0,,,,818.9250558999993,1003,24,female,True
209,0.2146934650880827,25,up,down,0.848260400000072,1.847540318313031,,experiment,cRDM,0.0,,,,821.758301599999,1003,24,female,True
210,0.2146934650880827,25,down,down,0.8976536999998643,1.846767920707338,,experiment,cRDM,0.0,,,,824.7248507999993,1003,24,female,True
211,0.2146934650880827,25,up,up,0.665772600001219,1.2371909750767651,,experiment,cRDM,0.0,,,,827.1247445999998,1003,24,female,True
212,0.2146934650880827,25,down,down,0.7464854000008927,1.9449874814039123,,experiment,cRDM,0.0,,,,830.0079872000006,1003,24,female,True
213,0.2146934650880827,25,up,up,0.6726515000009385,1.895883627485648,,experiment,cRDM,0.0,,,,832.9078802000004,1003,24,female,True
214,0.2146934650880827,25,down,down,0.7954061000000365,0.698779182092746,,experiment,cRDM,0.0,,,,834.5410919000005,1003,24,female,True
215,0.2146934650880827,25,up,up,0.751404900000125,1.0854812833841203,,experiment,cRDM,0.0,,,,836.6910936000004,1003,24,female,True
216,0.2146934650880827,25,down,down,0.7028468999997131,1.948239250501545,,experiment,cRDM,0.0,,,,839.6576676999994,1003,24,female,True
217,0.2146934650880827,25,up,up,0.8709517000006599,1.746230411266033,,experiment,cRDM,0.0,,,,842.3575519000005,1003,24,female,True
218,0.2146934650880827,25,down,,,0.4827905740041903,,experiment,cRDM,0.0,,,,843.9907937999997,1003,24,female,True
219,0.2146934650880827,25,up,up,1.1139401999989786,0.5756901091293487,,experiment,cRDM,0.0,,,,847.2405743999989,1003,24,female,True
220,0.2146934650880827,25,down,down,1.1742358000010429,0.942428748769944,,experiment,cRDM,0.0,,,,849.5572677,1003,24,female,True
221,0.2146934650880827,25,up,down,1.0436909000000014,1.4818754277020132,,experiment,cRDM,0.0,,,,852.4738216000005,1003,24,female,True
222,0.2146934650880827,25,down,down,0.943023699999685,0.3133484018230332,,experiment,cRDM,0.0,,,,854.0904307000001,1003,24,female,True
223,0.2146934650880827,25,down,down,0.7294492000000901,0.3049981958633261,,experiment,cRDM,0.0,,,,855.6070215999989,1003,24,female,True
224,0.2146934650880827,25,up,up,0.6720982000006188,0.4401172597143518,,experiment,cRDM,0.0,,,,857.0403504000005,1003,24,female,True
225,0.2146934650880827,25,down,down,0.7391906000011659,0.90798715465728,,experiment,cRDM,0.0,,,,858.8902665000005,1003,24,female,True
226,0.2146934650880827,25,up,up,0.6470974999992904,1.9275343758907837,,experiment,cRDM,0.0,,,,861.8234654999997,1003,24,female,True
227,0.2146934650880827,25,up,up,0.788381099999242,1.9209550489757945,,experiment,cRDM,0.0,,,,864.6400665000001,1003,24,female,True
228,0.2146934650880827,25,down,up,1.1969100999995137,1.9230813930942177,,experiment,cRDM,0.0,,,,867.6065816999999,1003,24,female,True
229,0.2146934650880827,25,down,up,1.060287899999821,0.6982547748113768,,experiment,cRDM,0.0,,,,869.7731867000002,1003,24,female,True
230,0.2146934650880827,25,up,down,1.4455109999998967,0.5919966949169995,,experiment,cRDM,0.0,,,,871.6731096999993,1003,24,female,True
231,0.2146934650880827,25,down,down,1.0001176000005216,0.5626598608372455,,experiment,cRDM,0.0,,,,873.9563942999994,1003,24,female,True
232,0.2146934650880827,25,up,up,0.7428421000004164,0.9336136300915928,,experiment,cRDM,0.0,,,,876.1396540000005,1003,24,female,True
233,0.2146934650880827,25,up,down,0.92893450000156,0.491410730893449,,experiment,cRDM,0.0,,,,877.6395954,1003,24,female,True
234,0.2146934650880827,25,up,up,0.772015200000169,1.1194519948488808,,experiment,cRDM,0.0,,,,879.9395015999999,1003,24,female,True
235,0.2146934650880827,25,up,up,1.0708562999989226,0.6466125641237273,,experiment,cRDM,0.0,,,,881.6226437999994,1003,24,female,True
236,0.2146934650880827,25,up,up,0.9568962000012108,1.5974674584337862,,experiment,cRDM,0.0,,,,884.5726273,1003,24,female,True
237,0.2146934650880827,25,down,down,1.1059485000005225,0.3269452788571167,,experiment,cRDM,0.0,,,,886.1225737999994,1003,24,female,True
238,0.2146934650880827,25,down,up,0.781322499999078,1.6342487963532717,,experiment,cRDM,0.0,,,,889.139170299999,1003,24,female,True
239,0.2146934650880827,25,down,down,1.391798700000436,1.965229991687584,,experiment,cRDM,0.0,,,,892.1556922999989,1003,24,female,True
240,0.2146934650880827,25,up,down,0.9320168000012928,0.8921980829680403,,experiment,cRDM,0.0,,,,894.7055684999996,1003,24,female,True
241,0.2146934650880827,25,down,down,0.9029601000002004,0.5171649061076652,,experiment,cRDM,0.0,,,,896.4225769000004,1003,24,female,True
242,0.2146934650880827,25,down,up,1.3987261000002036,1.2995292798271263,,experiment,cRDM,0.0,,,,898.8887658999993,1003,24,female,True
243,0.2146934650880827,25,down,down,0.8731384000002436,1.410628104808507,,experiment,cRDM,0.0,,,,901.9553533999988,1003,24,female,True
244,0.2146934650880827,25,up,up,0.802167300000292,1.6667250158580835,,experiment,cRDM,0.0,,,,904.7553312999988,1003,24,female,True
245,0.2146934650880827,25,down,down,0.9633478000014292,0.6889773827733825,,experiment,cRDM,0.0,,,,906.505138999999,1003,24,female,True
246,0.2146934650880827,25,up,up,1.0937220999985584,0.6416055034992032,,experiment,cRDM,0.0,,,,908.371771099999,1003,24,female,True
247,0.2146934650880827,25,up,up,0.7923805999998876,1.8141930986769692,,experiment,cRDM,0.0,,,,911.5381409,1003,24,female,True
248,0.2146934650880827,25,down,down,0.9365670000006504,1.369252399885359,,experiment,cRDM,0.0,,,,913.9549437999996,1003,24,female,True
249,0.2146934650880827,25,up,up,0.9710104000005232,0.9088007242680044,,experiment,cRDM,0.0,,,,916.0714778,1003,24,female,True
250,0.2146934650880827,25,down,down,1.1064546999987217,1.784564980493726,,experiment,cRDM,0.0,,,,919.0880285999992,1003,24,female,True
251,0.2146934650880827,25,up,up,0.9762394999997924,0.8137454187550737,,experiment,cRDM,0.0,,,,921.2712732999988,1003,24,female,True
252,0.2146934650880827,25,down,down,0.6789516000008007,1.1018698209812008,,experiment,cRDM,0.0,,,,923.6045089,1003,24,female,True
253,0.2146934650880827,25,up,down,1.1657252999993943,1.5405181071842395,,experiment,cRDM,0.0,,,,926.0877583,1003,24,female,True
254,0.2146934650880827,25,down,up,0.8200082000003022,1.220969779398466,,experiment,cRDM,0.0,,,,928.7375764999996,1003,24,female,True
255,0.2146934650880827,25,down,up,1.1725294000007125,0.3683503566340761,,experiment,cRDM,0.0,,,,930.1709222999998,1003,24,female,True
256,0.2146934650880827,25,down,down,1.0092771999989054,1.141034795965546,,experiment,cRDM,0.0,,,,932.754206399999,1003,24,female,True
257,0.2146934650880827,25,down,down,0.7430743999993865,1.1107613059708594,,experiment,cRDM,0.0,,,,935.1374115,1003,24,female,True
258,0.2146934650880827,25,down,up,1.3139080000000831,1.9772396244734816,,experiment,cRDM,0.0,,,,938.1206265,1003,24,female,True
259,0.2146934650880827,25,up,up,0.7965889000006428,1.1118107170025815,,experiment,cRDM,0.0,,,,940.8038701999994,1003,24,female,True
260,0.2146934650880827,25,up,up,0.950312800001484,0.6322054853604426,,experiment,cRDM,0.0,,,,942.4871681000004,1003,24,female,True
261,0.2146934650880827,25,up,up,0.6657439999999042,1.598576267187022,,experiment,cRDM,0.0,,,,945.3037446999988,1003,24,female,True
262,0.2146934650880827,25,up,up,0.7195097999992868,0.3087444022835727,,experiment,cRDM,0.0,,,,946.5369749999992,1003,24,female,True
263,110.0,25,M,up,0.6418269999994664,0.6559538192331129,,experiment,emotion,0.0,,,,951.1366524999994,1003,24,female,True
264,95.0,25,M,down,0.7340729999996256,1.042267347418809,,experiment,emotion,0.0,,,,953.103412299999,1003,24,female,True
265,105.0,25,F,up,0.7128240000001824,1.0655782272326857,,experiment,emotion,0.0,,,,955.1866601999992,1003,24,female,True
266,110.0,25,F,down,0.7091483999993216,1.174222596345298,,experiment,emotion,0.0,,,,957.3532844,1003,24,female,True
267,105.0,25,M,up,0.7582364000008965,0.668721146237272,,experiment,emotion,0.0,,,,959.003208099999,1003,24,female,True
268,100.0,25,F,down,0.5354059999990568,1.794915042148164,,experiment,emotion,0.0,,,,961.8530964,1003,24,female,True
269,95.0,25,M,down,1.1190987000009045,0.8783415348930173,,experiment,emotion,0.0,,,,963.536397599999,1003,24,female,True
270,100.0,25,M,up,0.6042617999992217,1.7616285198856458,,experiment,emotion,0.0,,,,966.6862524999996,1003,24,female,True
271,110.0,25,F,up,0.8580077000005986,1.4728490016497071,,experiment,emotion,0.0,,,,969.0194904999988,1003,24,female,True
272,100.0,25,F,down,0.682045499999731,1.0619897012180206,,experiment,emotion,0.0,,,,971.2194314999996,1003,24,female,True
273,105.0,25,F,up,0.6964805999996315,1.443886156141819,,experiment,emotion,0.0,,,,973.6359938000004,1003,24,female,True
274,110.0,25,F,up,0.8298930000000837,1.7040046362947323,,experiment,emotion,0.0,,,,976.3025756999996,1003,24,female,True
275,105.0,25,F,up,0.6983502000002773,1.3570603454873895,,experiment,emotion,0.0,,,,978.7691419999992,1003,24,female,True
276,95.0,25,F,up,1.4957685000008496,1.8530281741872543,,experiment,emotion,0.0,,,,981.5857044999992,1003,24,female,True
277,100.0,25,M,down,1.0365617999996175,1.345415950942271,,experiment,emotion,0.0,,,,984.7189008999994,1003,24,female,True
278,95.0,25,M,down,1.4380055999990873,0.3083821753028504,,experiment,emotion,0.0,,,,986.3354514999992,1003,24,female,True
279,110.0,25,M,up,0.6874160000006668,1.6864079476096998,,experiment,emotion,0.0,,,,989.7520700999994,1003,24,female,True
280,95.0,25,M,down,0.7158227000018087,1.2563907602586184,,experiment,emotion,0.0,,,,991.9686432999988,1003,24,female,True
281,105.0,25,F,down,0.9819332999995822,0.7729080930128601,,experiment,emotion,0.0,,,,993.7185670999988,1003,24,female,True
282,105.0,25,M,down,1.453964199999973,0.6996074233282576,,experiment,emotion,0.0,,,,995.6685063999994,1003,24,female,True
283,100.0,25,M,up,1.9114683000007064,1.042351167760791,,experiment,emotion,0.0,,,,998.4350250999996,1003,24,female,True
284,100.0,25,F,down,1.3774952000003395,0.5725877941331661,,experiment,emotion,0.0,,,,1001.1849819,1003,24,female,True
285,95.0,25,M,down,0.6972952999985864,1.3349745320307258,,experiment,emotion,0.0,,,,1004.1682038,1003,24,female,True
286,110.0,25,F,down,0.6417259000008926,1.9198695575497704,,experiment,emotion,0.0,,,,1007.0847692999996,1003,24,female,True
287,105.0,25,F,down,0.7048180000001594,0.6750160193869179,,experiment,emotion,0.0,,,,1008.6847046000004,1003,24,female,True
288,95.0,25,M,down,0.5382589999990159,0.3892140517358845,,experiment,emotion,0.0,,,,1010.0512915999988,1003,24,female,True
289,110.0,25,M,down,1.444557699998768,1.0607666701466618,,experiment,emotion,0.0,,,,1011.9179065999996,1003,24,female,True
290,110.0,25,F,down,1.0633440000001428,1.9630811327958888,,experiment,emotion,0.0,,,,1015.6011156999994,1003,24,female,True
291,100.0,25,M,down,0.6350886000000173,1.5483892501439327,,experiment,emotion,0.0,,,,1018.4843311999994,1003,24,female,True
292,95.0,25,F,down,0.7862425000002986,1.4597559222561374,,experiment,emotion,0.0,,,,1020.8342797999994,1003,24,female,True
293,100.0,25,F,up,1.3770136000002822,1.3279684775356495,,experiment,emotion,0.0,,,,1023.2174569999988,1003,24,female,True
294,105.0,25,F,down,1.3934205000005022,1.493809304296072,,experiment,emotion,0.0,,,,1026.3840523,1003,24,female,True
295,95.0,25,M,down,0.8090192999989085,1.4714350728909302,,experiment,emotion,0.0,,,,1029.500619999999,1003,24,female,True
296,110.0,25,M,up,0.8555815999989136,0.3953098858460712,,experiment,emotion,0.0,,,,1030.983886599999,1003,24,female,True
297,105.0,25,M,up,0.6507204999998066,1.4697626732475313,,experiment,emotion,0.0,,,,1033.5837727999988,1003,24,female,True
298,110.0,25,F,up,0.7877539000000979,0.5838879308664202,,experiment,emotion,0.0,,,,1035.0837186999995,1003,24,female,True
299,95.0,25,F,down,0.6894606999994721,0.4277868899528175,,experiment,emotion,0.0,,,,1036.5670059000004,1003,24,female,True
300,105.0,25,M,down,0.84687379999923,1.761591848153851,,experiment,emotion,0.0,,,,1039.2835655999988,1003,24,female,True
301,100.0,25,F,down,0.7239743999998609,1.6519307766041094,,experiment,emotion,0.0,,,,1042.0834720000005,1003,24,female,True
302,100.0,25,M,down,0.6670778999996401,1.0059510252688204,,experiment,emotion,0.0,,,,1044.0833855,1003,24,female,True
303,105.0,25,M,down,0.6892819000004238,1.309707804743412,,experiment,emotion,0.0,,,,1046.3333108999996,1003,24,female,True
304,110.0,25,M,down,0.7202634000004764,0.7822173522766773,,experiment,emotion,0.0,,,,1048.0832365000006,1003,24,female,True
305,100.0,25,F,down,0.932655500000692,1.6168451373579331,,experiment,emotion,0.0,,,,1050.6998052999988,1003,24,female,True
306,95.0,25,F,down,0.7290979999997944,1.7439820444433098,,experiment,emotion,0.0,,,,1053.6663676999997,1003,24,female,True
307,95.0,25,M,down,0.692853999998988,0.3891316494041357,,experiment,emotion,0.0,,,,1055.0496652000002,1003,24,female,True
308,100.0,25,F,down,0.7989136999985931,1.3826939152512066,,experiment,emotion,0.0,,,,1057.3995443999993,1003,24,female,True
309,110.0,25,F,down,0.7490476999992097,1.824299159259094,,experiment,emotion,0.0,,,,1060.2994344,1003,24,female,True
310,105.0,25,M,down,0.792484699999477,0.975943566914686,,experiment,emotion,0.0,,,,1062.3159641000002,1003,24,female,True
311,95.0,25,M,down,1.0698544999995647,1.8417970515562527,,experiment,emotion,0.0,,,,1065.2326226000005,1003,24,female,True
312,110.0,25,F,up,0.7516363000013371,1.0472142408025142,,experiment,emotion,0.0,,,,1067.6158173999993,1003,24,female,True
313,105.0,25,M,up,0.8067133000004105,1.47558021783119,,experiment,emotion,0.0,,,,1070.1157079000004,1003,24,female,True
314,105.0,25,F,up,0.6464580000010756,0.7078016113660911,,experiment,emotion,0.0,,,,1071.8990369000005,1003,24,female,True
315,95.0,25,F,down,1.043532800000321,1.4772528686095785,,experiment,emotion,0.0,,,,1074.2989180000004,1003,24,female,True
316,100.0,25,F,down,0.6549795999999333,1.83884223984782,,experiment,emotion,0.0,,,,1077.465502699999,1003,24,female,True
317,110.0,25,M,up,0.691362499999741,1.0367894481598978,,experiment,emotion,0.0,,,,1079.4321005000002,1003,24,female,True
318,100.0,25,M,up,0.7421506000009686,1.2790088031919185,,experiment,emotion,0.0,,,,1081.6653258999995,1003,24,female,True
319,100.0,25,F,down,0.8635875999989366,1.0403964944765232,,experiment,emotion,0.0,,,,1083.7319183,1003,24,female,True
320,100.0,25,F,up,0.6789633000007598,1.2259921259455284,,experiment,emotion,0.0,,,,1086.0984905999994,1003,24,female,True
321,110.0,25,M,up,0.6554022999989684,0.3687767233396158,,experiment,emotion,0.0,,,,1087.4150472,1003,24,female,True
322,105.0,25,M,up,0.7916867999992974,0.8681426227584292,,experiment,emotion,0.0,,,,1089.2317306000004,1003,24,female,True
323,95.0,25,M,up,0.8835135000008449,1.7060111297660658,,experiment,emotion,0.0,,,,1092.0149755000002,1003,24,female,True
324,95.0,25,M,down,0.8946030000006431,1.0934679658271622,,experiment,emotion,0.0,,,,1094.2648546,1003,24,female,True
325,105.0,25,M,up,0.917372300000352,1.3186097635440606,,experiment,emotion,0.0,,,,1096.7480976999996,1003,24,female,True
326,110.0,25,F,up,0.7487499999988358,0.6320042713657149,,experiment,emotion,0.0,,,,1098.5647045000003,1003,24,female,True
327,110.0,25,F,up,0.7121761999987939,1.798895615025242,,experiment,emotion,0.0,,,,1101.3812577999995,1003,24,female,True
328,95.0,25,M,up,0.6606090999994194,1.12229543859291,,experiment,emotion,0.0,,,,1103.4978379000004,1003,24,female,True
329,110.0,25,F,up,0.6540010000007896,0.6417035992414054,,experiment,emotion,0.0,,,,1105.0644715,1003,24,female,True
330,100.0,25,F,up,1.0335770000001503,0.3755201735875997,,experiment,emotion,0.0,,,,1106.3810990999991,1003,24,female,True
331,105.0,25,F,up,0.7517994000008912,0.8967273806388552,,experiment,emotion,0.0,,,,1108.5976386000002,1003,24,female,True
332,100.0,25,M,up,0.937859199999366,1.7436921813297432,,experiment,emotion,0.0,,,,1111.3475688,1003,24,female,True
333,95.0,25,F,down,1.062999300000229,1.6375230974787338,,experiment,emotion,0.0,,,,1114.1974517,1003,24,female,True
334,105.0,25,F,down,0.6690077999992354,0.6105640909368735,,experiment,emotion,0.0,,,,1116.1473901999998,1003,24,female,True
335,100.0,25,F,up,0.6407989999988786,0.3483178225430932,,experiment,emotion,0.0,,,,1117.4306779,1003,24,female,True
336,105.0,25,M,down,0.9638448000005156,1.8297832357814632,,experiment,emotion,0.0,,,,1120.1805786999994,1003,24,female,True
337,95.0,25,M,down,1.048014799998782,1.7059069084429148,,experiment,emotion,0.0,,,,1123.1304674000005,1003,24,female,True
338,110.0,25,F,up,0.7119065999995655,1.4569126664572185,,experiment,emotion,0.0,,,,1125.9135420999992,1003,24,female,True
339,105.0,25,M,up,0.7218345999990561,1.560060647425861,,experiment,emotion,0.0,,,,1128.4635951,1003,24,female,True
340,110.0,25,F,up,0.6356293999997433,0.7408464611646639,,experiment,emotion,0.0,,,,1130.1968538,1003,24,female,True
341,95.0,25,M,up,0.7866541000003053,1.4402535647803718,,experiment,emotion,0.0,,,,1132.546773,1003,24,female,True
342,100.0,25,M,down,0.91942729999937,1.5270880975633403,,experiment,emotion,0.0,,,,1135.1300243000003,1003,24,female,True
343,0.2146934650880827,25,up,up,0.7386121999988973,1.6954243328401213,,experiment,cRDM,1.0,,,,1140.3798143999993,1003,24,female,True
344,0.2146934650880827,25,up,up,1.4350592000009783,1.1239689541519209,,experiment,cRDM,1.0,,,,1142.496382899999,1003,24,female,True
345,0.2146934650880827,25,down,down,0.783788499998991,1.0317575787714452,,experiment,cRDM,1.0,,,,1145.2296494000002,1003,24,female,True
346,0.2146934650880827,25,down,up,0.8791996999989351,1.3625174541077505,,experiment,cRDM,1.0,,,,1147.6462413999998,1003,24,female,True
347,0.2146934650880827,25,up,up,0.7309395000011136,0.6022079426228839,,experiment,cRDM,1.0,,,,1149.3794915,1003,24,female,True
348,0.2146934650880827,25,down,up,0.740364999999656,1.5853923359145132,,experiment,cRDM,1.0,,,,1151.9460765000003,1003,24,female,True
349,0.2146934650880827,25,up,up,0.8361004999987927,1.034674468686522,,experiment,cRDM,1.0,,,,1153.9793410000002,1003,24,female,True
350,0.2146934650880827,25,up,down,1.4618812000007892,1.6857340582367577,,experiment,cRDM,1.0,,,,1156.7625659000005,1003,24,female,True
351,0.2146934650880827,25,down,,,0.6550277090966903,,experiment,cRDM,1.0,,,,1159.1458253,1003,24,female,True
352,0.2146934650880827,25,down,up,1.2457867000011902,0.6184090076232933,,experiment,cRDM,1.0,,,,1162.4456656999992,1003,24,female,True
353,0.2146934650880827,25,down,up,0.927282999999079,0.9694495725530649,,experiment,cRDM,1.0,,,,1164.9121498000004,1003,24,female,True
354,0.2146934650880827,25,down,down,0.6669196000002557,0.8578722426477186,,experiment,cRDM,1.0,,,,1166.9455201,1003,24,female,True
355,0.2146934650880827,25,down,up,0.6887134999997215,1.8048894640386528,,experiment,cRDM,1.0,,,,1169.6787456000002,1003,24,female,True
356,0.2146934650880827,25,down,up,0.6830668000002333,0.6089995171710705,,experiment,cRDM,1.0,,,,1171.2453741999998,1003,24,female,True
357,0.2146934650880827,25,up,up,0.7081735000010667,1.9637309884993817,,experiment,cRDM,1.0,,,,1174.1452609999997,1003,24,female,True
358,0.2146934650880827,25,up,up,0.7740073000004486,1.7134211789460394,,experiment,cRDM,1.0,,,,1176.8284322,1003,24,female,True
359,0.2146934650880827,25,up,up,0.6673737999990408,1.2885513652354657,,experiment,cRDM,1.0,,,,1179.145086999999,1003,24,female,True
360,0.2146934650880827,25,up,up,0.6530665999998746,0.5983043195866995,,experiment,cRDM,1.0,,,,1180.6783211000002,1003,24,female,True
361,0.2146934650880827,25,down,down,0.932866400000421,1.4553470428251,,experiment,cRDM,1.0,,,,1183.061568499999,1003,24,female,True
362,0.2146934650880827,25,up,up,0.8349355999998807,0.4992524926739515,,experiment,cRDM,1.0,,,,1184.7615088999992,1003,24,female,True
363,0.2146934650880827,25,up,up,0.8403123999996751,0.5241655591864869,,experiment,cRDM,1.0,,,,1186.3781199999994,1003,24,female,True
364,0.2146934650880827,25,down,down,0.7543473999994603,0.4454335119433473,,experiment,cRDM,1.0,,,,1187.9280849999996,1003,24,female,True
365,0.2146934650880827,25,up,up,0.8431639999998879,1.9631283726409203,,experiment,cRDM,1.0,,,,1190.9112664000004,1003,24,female,True
366,0.2146934650880827,25,down,down,0.9102624000006472,1.2898417802125697,,experiment,cRDM,1.0,,,,1193.3111749,1003,24,female,True
367,0.2146934650880827,25,down,down,1.2933981999995012,1.41332517503697,,experiment,cRDM,1.0,,,,1195.9110194999994,1003,24,female,True
368,0.2146934650880827,25,up,up,1.019128300000375,1.924769396963448,,experiment,cRDM,1.0,,,,1199.3943051999995,1003,24,female,True
369,0.2146934650880827,25,up,down,1.055891199999678,1.5565326393863157,,experiment,cRDM,1.0,,,,1202.2275635999997,1003,24,female,True
370,0.2146934650880827,25,down,down,0.8856475000011415,1.7112420241078543,,experiment,cRDM,1.0,,,,1205.260745399999,1003,24,female,True
371,0.2146934650880827,25,up,up,0.8081154000010429,0.8649801445186003,,experiment,cRDM,1.0,,,,1207.277324499999,1003,24,female,True
372,0.2146934650880827,25,down,down,0.7501647000008234,1.4199178333090396,,experiment,cRDM,1.0,,,,1209.7772506,1003,24,female,True
373,0.2146934650880827,25,down,up,1.5829245000004448,0.9179098247931898,,experiment,cRDM,1.0,,,,1211.7105066000004,1003,24,female,True
374,0.2146934650880827,25,down,down,1.1543466999992231,1.91501552306319,,experiment,cRDM,1.0,,,,1215.4770950000002,1003,24,female,True
375,0.2146934650880827,25,up,up,1.027836199999001,1.456823328298247,,experiment,cRDM,1.0,,,,1218.3436198,1003,24,female,True
376,0.2146934650880827,25,up,up,0.8995842000003904,0.8938841336795511,,experiment,cRDM,1.0,,,,1220.5268748,1003,24,female,True
377,0.2146934650880827,25,up,up,1.0273123999995732,1.277132257348914,,experiment,cRDM,1.0,,,,1222.9600941999995,1003,24,female,True
378,0.2146934650880827,25,down,,,1.01162995171104,,experiment,cRDM,1.0,,,,1225.2599929999997,1003,24,female,True
379,0.2146934650880827,25,down,down,1.0176372000005358,1.2636014770008033,,experiment,cRDM,1.0,,,,1229.209788,1003,24,female,True
380,0.2146934650880827,25,up,up,0.812969399999929,0.4868232458323516,,experiment,cRDM,1.0,,,,1230.976455099999,1003,24,female,True
381,0.2146934650880827,25,down,down,0.8276781000004121,1.0984103204973372,,experiment,cRDM,1.0,,,,1233.1597442999991,1003,24,female,True
382,0.2146934650880827,25,up,up,0.6354138999995484,0.3265325603612745,,experiment,cRDM,1.0,,,,1234.5929880999993,1003,24,female,True
383,0.2146934650880827,25,up,down,0.8752705000006245,0.4364500591021075,,experiment,cRDM,1.0,,,,1235.926151399999,1003,24,female,True
384,0.2146934650880827,25,up,,,1.040480211676502,,experiment,cRDM,1.0,,,,1238.1095164999988,1003,24,female,True
385,0.2146934650880827,25,down,down,0.8430895999990753,0.8227622091183713,,experiment,cRDM,1.0,,,,1241.6093585,1003,24,female,True
386,0.2146934650880827,25,down,down,0.9574654000007286,1.9135030542307685,,experiment,cRDM,1.0,,,,1244.6259821000003,1003,24,female,True
387,0.2146934650880827,25,up,up,0.6625254999999015,0.7817490229139321,,experiment,cRDM,1.0,,,,1246.6259090999993,1003,24,female,True
388,0.2146934650880827,25,down,down,0.6075519999994867,0.3738937910349259,,experiment,cRDM,1.0,,,,1247.9258883000002,1003,24,female,True
389,0.2146934650880827,25,down,down,0.8787275999984558,0.5302469374609092,,experiment,cRDM,1.0,,,,1249.3256710000005,1003,24,female,True
390,0.2146934650880827,25,up,up,0.6931107000000338,1.5336780724140315,,experiment,cRDM,1.0,,,,1251.9923263,1003,24,female,True
391,0.2146934650880827,25,up,up,0.6348159999997733,1.1773468161679568,,experiment,cRDM,1.0,,,,1254.1256249999988,1003,24,female,True
392,0.2146934650880827,25,down,down,1.0288354999993317,0.8007770811609791,,experiment,cRDM,1.0,,,,1255.8255845000003,1003,24,female,True
393,0.2146934650880827,25,up,up,0.903318600001512,1.6310859916521665,,experiment,cRDM,1.0,,,,1258.7421042999997,1003,24,female,True
394,0.2146934650880827,25,down,up,0.675785999999789,1.4985605042604269,,experiment,cRDM,1.0,,,,1261.408692699999,1003,24,female,True
395,0.2146934650880827,25,down,down,1.2045391999999993,0.4463187726459631,,experiment,cRDM,1.0,,,,1262.7919363,1003,24,female,True
396,0.2146934650880827,25,down,down,0.8699058999991394,0.8083614116325819,,experiment,cRDM,1.0,,,,1265.0585281000003,1003,24,female,True
397,0.2146934650880827,25,up,down,0.8926294000011694,0.8498332118287268,,experiment,cRDM,1.0,,,,1267.0417894999991,1003,24,female,True
398,0.2146934650880827,25,up,up,0.7724008999994112,1.878069478020954,,experiment,cRDM,1.0,,,,1270.075017699999,1003,24,female,True
399,0.2146934650880827,25,down,down,0.8598458999986178,1.5741014295403486,,experiment,cRDM,1.0,,,,1272.6915733999997,1003,24,female,True
400,0.2146934650880827,25,down,up,0.8075172000008024,1.2105443608252116,,experiment,cRDM,1.0,,,,1275.0248580999996,1003,24,female,True
401,0.2146934650880827,25,up,down,0.8486648999987665,0.9785379662733378,,experiment,cRDM,1.0,,,,1277.0747831999995,1003,24,female,True
402,0.2146934650880827,25,up,up,0.7117069000014453,0.4858853364057392,,experiment,cRDM,1.0,,,,1278.6747118999992,1003,24,female,True
403,0.2146934650880827,25,up,up,2.286857200000668,1.8788193435211036,,experiment,cRDM,1.0,,,,1281.5246009999992,1003,24,female,True
404,0.2146934650880827,25,up,up,1.0673258000006172,1.7684945963561378,,experiment,cRDM,1.0,,,,1285.8410882999997,1003,24,female,True
405,0.2146934650880827,25,up,up,0.6714530999997805,0.6150593883097375,,experiment,cRDM,1.0,,,,1287.7910064999996,1003,24,female,True
406,0.2146934650880827,25,down,up,0.661858100000245,1.9740165480319716,,experiment,cRDM,1.0,,,,1290.7075759,1003,24,female,True
407,0.2146934650880827,25,down,down,0.893935899999633,1.8087214233789997,,experiment,cRDM,1.0,,,,1293.457472,1003,24,female,True
408,0.2146934650880827,25,up,up,0.6933752000004461,1.5564081611972251,,experiment,cRDM,1.0,,,,1296.1740382999997,1003,24,female,True
409,0.2146934650880827,25,down,down,0.9577953000007255,1.669848006922266,,experiment,cRDM,1.0,,,,1298.790614399999,1003,24,female,True
410,0.2146934650880827,25,down,up,0.802564399999028,0.9576188570354132,,experiment,cRDM,1.0,,,,1300.9738765999991,1003,24,female,True
411,0.2146934650880827,25,down,down,0.9669567000000824,0.9628364028433058,,experiment,cRDM,1.0,,,,1302.9904575,1003,24,female,True
412,0.2146934650880827,25,up,up,0.7414946000008058,1.68927346001372,,experiment,cRDM,1.0,,,,1305.9068828,1003,24,female,True
413,0.2146934650880827,25,down,up,1.371488999999201,1.3104443178275726,,experiment,cRDM,1.0,,,,1308.2069534000002,1003,24,female,True
414,0.2146934650880827,25,down,down,0.6409929000001284,1.331492915323975,,experiment,cRDM,1.0,,,,1311.1734865999988,1003,24,female,True
415,0.2146934650880827,25,down,down,1.1556297999995877,1.4431553276530666,,experiment,cRDM,1.0,,,,1313.5067708999995,1003,24,female,True
416,0.2146934650880827,25,up,up,0.7317789000007906,1.538839399060932,,experiment,cRDM,1.0,,,,1316.4566424000004,1003,24,female,True
417,0.2146934650880827,25,up,up,0.6851910999994288,1.356823708358638,,experiment,cRDM,1.0,,,,1318.8232145999991,1003,24,female,True
418,0.2146934650880827,25,down,up,0.7392337000001135,0.9143036191051128,,experiment,cRDM,1.0,,,,1320.6731490000002,1003,24,female,True
419,0.2146934650880827,25,up,up,0.6663339999995515,0.9029211697057962,,experiment,cRDM,1.0,,,,1322.573061699999,1003,24,female,True
420,0.2146934650880827,25,down,up,0.6377883999994083,0.6984399083257242,,experiment,cRDM,1.0,,,,1324.1896734999991,1003,24,female,True
421,0.2146934650880827,25,up,up,0.7171471999990899,1.3609134279230282,,experiment,cRDM,1.0,,,,1326.4562533999997,1003,24,female,True
422,0.2146934650880827,25,up,up,0.575396100000944,1.967295754549212,,experiment,cRDM,1.0,,,,1329.4059875000005,1003,24,female,True
423,110.0,25,M,up,0.7376354999996693,1.3987781421606678,,experiment,emotion,1.0,,,,1347.9887662,1003,24,female,True
424,95.0,25,M,down,0.6300339999997959,0.9264143900411594,,experiment,emotion,1.0,,,,1349.955394799999,1003,24,female,True
425,105.0,25,F,down,0.5437846000004356,0.4144315137416335,,experiment,emotion,1.0,,,,1351.2886504999988,1003,24,female,True
426,110.0,25,F,up,0.7488036999984615,1.9481143141111408,,experiment,emotion,1.0,,,,1354.0385896999996,1003,24,female,True
427,105.0,25,M,down,0.5922859000002063,1.8524516953155732,,experiment,emotion,1.0,,,,1356.9051106999996,1003,24,female,True
428,100.0,25,F,up,0.6180400999983249,1.5276160530933405,,experiment,emotion,1.0,,,,1359.2883772000005,1003,24,female,True
429,95.0,25,M,down,0.5854768999997759,1.49063006016461,,experiment,emotion,1.0,,,,1361.6549448999997,1003,24,female,True
430,100.0,25,M,down,0.977205999999569,1.8874768993936104,,experiment,emotion,1.0,,,,1364.3881958999991,1003,24,female,True
431,110.0,25,F,down,0.6129321999997046,0.4312207020061527,,experiment,emotion,1.0,,,,1366.0714688999997,1003,24,female,True
432,100.0,25,F,up,0.7003727000010258,1.7701955793670368,,experiment,emotion,1.0,,,,1368.7380460000004,1003,24,female,True
433,105.0,25,F,down,0.6991170999990572,0.9569192974724294,,experiment,emotion,1.0,,,,1370.6712886000005,1003,24,female,True
434,110.0,25,F,down,0.8793249999998807,1.993299337829757,,experiment,emotion,1.0,,,,1373.6210570999992,1003,24,female,True
435,105.0,25,F,down,0.6389930000004824,0.8333236015705592,,experiment,emotion,1.0,,,,1375.604414899999,1003,24,female,True
436,95.0,25,F,down,1.1067425000001094,1.3471835666926235,,experiment,emotion,1.0,,,,1377.8876650999991,1003,24,female,True
437,100.0,25,M,down,2.025836500000878,1.7613278216579304,,experiment,emotion,1.0,,,,1381.0375784999997,1003,24,female,True
438,95.0,25,M,up,1.1179131000008056,0.3467565667352278,,experiment,emotion,1.0,,,,1383.6874735,1003,24,female,True
439,110.0,25,M,up,0.58769410000059,1.1763558849955469,,experiment,emotion,1.0,,,,1386.2706992999993,1003,24,female,True
440,95.0,25,M,down,0.7257456000006641,1.089027598422137,,experiment,emotion,1.0,,,,1388.2206413000004,1003,24,female,True
441,105.0,25,F,down,0.7228230000000622,1.290831090434805,,experiment,emotion,1.0,,,,1390.5205724999996,1003,24,female,True
442,105.0,25,M,down,0.4585795999992115,1.0377170443789014,,experiment,emotion,1.0,,,,1392.5538096,1003,24,female,True
443,100.0,25,M,down,0.6377603000000818,1.015850279796211,,experiment,emotion,1.0,,,,1394.303662799999,1003,24,female,True
444,100.0,25,F,down,0.6273538000004919,0.722093187612866,,experiment,emotion,1.0,,,,1395.9370376999996,1003,24,female,True
445,95.0,25,M,down,0.4304836999999679,1.3541573673310812,,experiment,emotion,1.0,,,,1398.1869112000004,1003,24,female,True
446,110.0,25,F,up,0.9175226999996084,1.5835518881841282,,experiment,emotion,1.0,,,,1400.4868260000003,1003,24,female,True
447,105.0,25,F,up,0.6869983999986289,0.5366966870482173,,experiment,emotion,1.0,,,,1402.2033933000002,1003,24,female,True
448,95.0,25,M,down,0.9259884000002784,0.4569437671949458,,experiment,emotion,1.0,,,,1403.6034234,1003,24,female,True
449,110.0,25,M,up,0.7573666000007506,0.6733449099956456,,experiment,emotion,1.0,,,,1405.4700025000002,1003,24,female,True
450,110.0,25,F,up,0.675892200000817,1.5865802237057791,,experiment,emotion,1.0,,,,1408.0865694000004,1003,24,female,True
451,100.0,25,M,up,1.030554299999494,0.3762277277437887,,experiment,emotion,1.0,,,,1409.4198631999989,1003,24,female,True
452,95.0,25,F,down,0.6915498999987904,1.6142775698351193,,experiment,emotion,1.0,,,,1412.3197579999996,1003,24,female,True
453,100.0,25,F,down,0.7551277000002301,0.9045716057125625,,experiment,emotion,1.0,,,,1414.1863197000002,1003,24,female,True
454,105.0,25,F,down,0.8881657999991148,0.9791358516124502,,experiment,emotion,1.0,,,,1416.1862612000004,1003,24,female,True
455,95.0,25,M,down,0.8313115000000835,1.4306053729244703,,experiment,emotion,1.0,,,,1418.7861432999998,1003,24,female,True
456,110.0,25,M,up,0.775290200001109,0.3709548922883733,,experiment,emotion,1.0,,,,1420.2361265,1003,24,female,True
457,105.0,25,M,up,0.847710799998822,1.4576809834276083,,experiment,emotion,1.0,,,,1422.752695699999,1003,24,female,True
458,110.0,25,F,up,0.6612543999999616,0.5364887298454641,,experiment,emotion,1.0,,,,1424.4191243999994,1003,24,female,True
459,95.0,25,F,up,0.7581916000017372,1.066615901661164,,experiment,emotion,1.0,,,,1426.4191979999996,1003,24,female,True
460,105.0,25,M,up,0.9733773999996628,1.930422630591311,,experiment,emotion,1.0,,,,1429.3691082000005,1003,24,female,True
461,100.0,25,F,down,0.6163639999995212,1.0461733987207271,,experiment,emotion,1.0,,,,1431.6690230000004,1003,24,female,True
462,100.0,25,M,up,0.6411956000010832,1.2499392618318637,,experiment,emotion,1.0,,,,1433.802248599999,1003,24,female,True
463,105.0,25,M,down,0.6871931000005134,1.087973977907548,,experiment,emotion,1.0,,,,1435.8021915999998,1003,24,female,True
464,110.0,25,M,up,0.8622795999999653,1.89808667290726,,experiment,emotion,1.0,,,,1438.6521035999997,1003,24,female,True
465,100.0,25,F,down,0.5901680000006309,1.906589215020194,,experiment,emotion,1.0,,,,1441.6852199999994,1003,24,female,True
466,95.0,25,F,up,1.1685701999995215,0.3505845133689493,,experiment,emotion,1.0,,,,1442.9018856999992,1003,24,female,True
467,95.0,25,M,down,0.7208798999999999,1.4183628285539551,,experiment,emotion,1.0,,,,1445.768512999999,1003,24,female,True
468,100.0,25,F,down,0.8412432000004628,0.8729708558399998,,experiment,emotion,1.0,,,,1447.6351190999994,1003,24,female,True
469,110.0,25,F,up,0.6680438999992475,0.871132548047195,,experiment,emotion,1.0,,,,1449.6183583999991,1003,24,female,True
470,105.0,25,M,down,1.1374719999985246,0.7188199755293107,,experiment,emotion,1.0,,,,1451.2849437000004,1003,24,female,True
471,95.0,25,M,down,0.8788167000002431,1.3581877906945723,,experiment,emotion,1.0,,,,1454.0515264999997,1003,24,female,True
472,110.0,25,F,up,0.8335760000009032,0.6233121820044596,,experiment,emotion,1.0,,,,1455.8347971000003,1003,24,female,True
473,105.0,25,M,up,0.954373200000191,1.4909395869193718,,experiment,emotion,1.0,,,,1458.4180326999997,1003,24,female,True
474,105.0,25,F,up,0.6307852999998431,1.679849264434462,,experiment,emotion,1.0,,,,1461.3345983999989,1003,24,female,True
475,95.0,25,F,down,0.7671811999989586,1.3173440438783388,,experiment,emotion,1.0,,,,1463.5512089999993,1003,24,female,True
476,100.0,25,F,down,0.8532998999999108,1.5994744038062414,,experiment,emotion,1.0,,,,1466.2011139999995,1003,24,female,True
477,110.0,25,M,up,0.6677266000006057,1.2886390119974058,,experiment,emotion,1.0,,,,1468.6176527999996,1003,24,female,True
478,100.0,25,M,down,0.828112000001056,1.1279348709493089,,experiment,emotion,1.0,,,,1470.6842675999997,1003,24,female,True
479,100.0,25,F,down,0.8652620000011666,1.7023494300041944,,experiment,emotion,1.0,,,,1473.4841201,1003,24,female,True
480,100.0,25,F,down,0.8263521999997465,1.358972012902482,,experiment,emotion,1.0,,,,1475.984026799999,1003,24,female,True
481,110.0,25,M,up,0.9684410999998364,1.005918637038472,,experiment,emotion,1.0,,,,1478.0839479999995,1003,24,female,True
482,105.0,25,M,up,1.8118605999989088,1.7299325093556377,,experiment,emotion,1.0,,,,1481.0505436999993,1003,24,female,True
483,95.0,25,M,down,0.6407120000003488,1.4384190307743363,,experiment,emotion,1.0,,,,1484.583717899999,1003,24,female,True
484,95.0,25,M,down,0.7022548000004463,1.8019071370433883,,experiment,emotion,1.0,,,,1487.3001282000005,1003,24,female,True
485,105.0,25,M,up,0.9058896000005916,1.2080605102089594,,experiment,emotion,1.0,,,,1489.4835246999992,1003,24,female,True
486,110.0,25,F,down,0.8306251999983942,1.7973666906637529,,experiment,emotion,1.0,,,,1492.4667750999995,1003,24,female,True
487,110.0,25,F,up,0.9206914999995206,1.0927231621272608,,experiment,emotion,1.0,,,,1494.6666865999996,1003,24,female,True
488,95.0,25,M,down,1.0394431999993683,1.6936298979589668,,experiment,emotion,1.0,,,,1497.5499435000002,1003,24,female,True
489,110.0,25,F,up,0.6555183999989822,0.3929329942660696,,experiment,emotion,1.0,,,,1499.2498522000003,1003,24,female,True
490,100.0,25,F,up,1.1649856000003638,1.171005607422387,,experiment,emotion,1.0,,,,1501.3664274999992,1003,24,female,True
491,105.0,25,F,up,0.7283663999987766,0.836410047317734,,experiment,emotion,1.0,,,,1503.6330247000003,1003,24,female,True
492,100.0,25,M,up,0.885841100000107,1.856724379099372,,experiment,emotion,1.0,,,,1506.4995323999992,1003,24,female,True
493,95.0,25,F,up,0.7898628000002645,0.8972117511097766,,experiment,emotion,1.0,,,,1508.5495042000002,1003,24,female,True
494,105.0,25,F,up,0.8056395999992674,1.2289663867846534,,experiment,emotion,1.0,,,,1510.8327541,1003,24,female,True
495,100.0,25,F,up,0.782453900001201,1.81267064632776,,experiment,emotion,1.0,,,,1513.7159173,1003,24,female,True
496,105.0,25,M,up,1.1698271999994176,1.6594017126307403,,experiment,emotion,1.0,,,,1516.4325427999993,1003,24,female,True
497,95.0,25,M,down,0.8492177000007359,1.2443773812423282,,experiment,emotion,1.0,,,,1519.0991544999997,1003,24,female,True
498,110.0,25,F,up,0.9089987999996084,1.3977146980416435,,experiment,emotion,1.0,,,,1521.632370199999,1003,24,female,True
499,105.0,25,M,up,1.6757507999991503,0.4506478237202623,,experiment,emotion,1.0,,,,1523.2656308999997,1003,24,female,True
500,110.0,25,F,up,0.7192054000006465,1.825762303707744,,experiment,emotion,1.0,,,,1527.0321468999991,1003,24,female,True
501,95.0,25,M,down,0.7296107000001939,0.7166777303686542,,experiment,emotion,1.0,,,,1528.7487554999989,1003,24,female,True
502,100.0,25,M,down,0.9980431999993016,1.944060718003952,,experiment,emotion,1.0,,,,1531.7153244,1003,24,female,True
503,0.2146934650880827,25,up,up,0.7815439000005426,0.8198322325659384,,experiment,cRDM,2.0,,,,1536.2318156,1003,24,female,True
504,0.2146934650880827,25,up,down,1.0752657999983055,1.1494226059749424,,experiment,cRDM,2.0,,,,1538.4151294000003,1003,24,female,True
505,0.2146934650880827,25,down,down,1.0029056999992465,1.8247314709460487,,experiment,cRDM,2.0,,,,1541.5816030999997,1003,24,female,True
506,0.2146934650880827,25,down,down,0.9821582000004128,0.603652466271016,,experiment,cRDM,2.0,,,,1543.4482219,1003,24,female,True
507,0.2146934650880827,25,up,up,0.7159226999992825,1.7372786316073785,,experiment,cRDM,2.0,,,,1546.4314372999995,1003,24,female,True
508,0.2146934650880827,25,down,down,0.7154421999985061,1.4440443429996686,,experiment,cRDM,2.0,,,,1548.8480172,1003,24,female,True
509,0.2146934650880827,25,up,up,0.5810853999992105,1.0176085766781358,,experiment,cRDM,2.0,,,,1550.8312759,1003,24,female,True
510,0.2146934650880827,25,up,down,0.9008905999999116,1.6908290703159998,,experiment,cRDM,2.0,,,,1553.3645058999991,1003,24,female,True
511,0.2146934650880827,25,down,down,0.7836088000003656,1.313326670193703,,experiment,cRDM,2.0,,,,1555.8477583000004,1003,24,female,True
512,0.2146934650880827,25,down,down,1.1717521999999008,1.2967956214426373,,experiment,cRDM,2.0,,,,1558.1976096,1003,24,female,True
513,0.2146934650880827,25,down,down,1.2954724999999598,1.2091793637148276,,experiment,cRDM,2.0,,,,1560.8309303000003,1003,24,female,True
514,0.2146934650880827,25,down,down,1.5065351000012015,0.3254203654857473,,experiment,cRDM,2.0,,,,1562.7308247,1003,24,female,True
515,0.2146934650880827,25,down,up,0.7013764999992418,1.4070630462760978,,experiment,cRDM,2.0,,,,1565.9140628000005,1003,24,female,True
516,0.2146934650880827,25,down,up,2.0973995000003924,0.437501634290785,,experiment,cRDM,2.0,,,,1567.3139565,1003,24,female,True
517,0.2146934650880827,25,up,down,1.5288882999993805,1.900650857495532,,experiment,cRDM,2.0,,,,1571.5804522,1003,24,female,True
518,0.2146934650880827,25,up,up,0.7661330999999336,1.4061630692100713,,experiment,cRDM,2.0,,,,1574.7802859999993,1003,24,female,True
519,0.2146934650880827,25,up,down,0.7516945999996096,0.5609705228084501,,experiment,cRDM,2.0,,,,1576.363659499999,1003,24,female,True
520,0.2146934650880827,25,up,up,0.6608265999984724,0.9934524070466936,,experiment,cRDM,2.0,,,,1578.363579499999,1003,24,female,True
521,0.2146934650880827,25,down,up,1.150941399999283,0.7303522273945606,,experiment,cRDM,2.0,,,,1580.0134223999994,1003,24,female,True
522,0.2146934650880827,25,up,up,1.192941299999802,1.8382152653279316,,experiment,cRDM,2.0,,,,1583.2633869,1003,24,female,True
523,0.2146934650880827,25,up,up,0.7463668000000325,1.9615676836665557,,experiment,cRDM,2.0,,,,1586.6799962999994,1003,24,female,True
524,0.2146934650880827,25,down,up,0.6878962000009778,1.1959914232448778,,experiment,cRDM,2.0,,,,1588.8964619999988,1003,24,female,True
525,0.2146934650880827,25,up,up,0.8958586999997351,0.4443879662898701,,experiment,cRDM,2.0,,,,1590.296488599999,1003,24,female,True
526,0.2146934650880827,25,down,up,0.9600207000003138,1.9329756009322232,,experiment,cRDM,2.0,,,,1593.3963306000005,1003,24,female,True
527,0.2146934650880827,25,down,up,0.6931019999992714,1.9244381275325435,,experiment,cRDM,2.0,,,,1596.546241099999,1003,24,female,True
528,0.2146934650880827,25,up,up,1.0561443000005966,1.2489020344667123,,experiment,cRDM,2.0,,,,1598.7461623999989,1003,24,female,True
529,0.2146934650880827,25,up,up,0.7576281999990897,0.5047194019865278,,experiment,cRDM,2.0,,,,1600.5627514999996,1003,24,female,True
530,0.2146934650880827,25,down,down,0.8596616000013455,1.924313481938356,,experiment,cRDM,2.0,,,,1603.512687999999,1003,24,female,True
531,0.2146934650880827,25,up,up,1.0267440999996325,0.4194427797544045,,experiment,cRDM,2.0,,,,1605.0626099,1003,24,female,True
532,0.2146934650880827,25,down,up,0.9267882999993162,0.8528826297401517,,experiment,cRDM,2.0,,,,1607.212560599999,1003,24,female,True
533,0.2146934650880827,25,down,up,1.358339000000342,1.3178730384413453,,experiment,cRDM,2.0,,,,1609.7290821999995,1003,24,female,True
534,0.2146934650880827,25,down,up,1.9584795999999187,1.6316171024574857,,experiment,cRDM,2.0,,,,1612.9958932999998,1003,24,female,True
535,0.2146934650880827,25,up,up,0.8971615999998903,1.4936994542649291,,experiment,cRDM,2.0,,,,1616.7121881999992,1003,24,female,True
536,0.2146934650880827,25,up,down,1.7509380999999848,0.6817386042872995,,experiment,cRDM,2.0,,,,1618.5454308999997,1003,24,female,True
537,0.2146934650880827,25,up,up,0.9653127000001404,0.4044228809051144,,experiment,cRDM,2.0,,,,1620.9620102999995,1003,24,female,True
538,0.2146934650880827,25,down,,,1.1103794506643323,,experiment,cRDM,2.0,,,,1623.295166599999,1003,24,female,True
539,0.2146934650880827,25,down,down,1.1764084000005823,1.2718993083298953,,experiment,cRDM,2.0,,,,1627.2451244000003,1003,24,female,True
540,0.2146934650880827,25,up,up,0.8229957000003196,0.4029890778679057,,experiment,cRDM,2.0,,,,1629.0783530999995,1003,24,female,True
541,0.2146934650880827,25,down,down,0.7773686000000453,0.5805810020118027,,experiment,cRDM,2.0,,,,1630.7449686,1003,24,female,True
542,0.2146934650880827,25,up,up,0.7557343999997101,0.8396276411951009,,experiment,cRDM,2.0,,,,1632.6116127000005,1003,24,female,True
543,0.2146934650880827,25,up,up,0.89126319999923,1.609554898865446,,experiment,cRDM,2.0,,,,1635.2281440999996,1003,24,female,True
544,0.2146934650880827,25,up,up,0.9059496999998372,1.035017383415464,,experiment,cRDM,2.0,,,,1637.4113961999992,1003,24,female,True
545,0.2146934650880827,25,down,down,1.1407457000004797,1.6649934445195438,,experiment,cRDM,2.0,,,,1640.2446191,1003,24,female,True
546,0.2146934650880827,25,down,down,0.8525206999984221,1.480529956278117,,experiment,cRDM,2.0,,,,1643.1278418000002,1003,24,female,True
547,0.2146934650880827,25,up,up,1.4842033000004449,1.5621128663768966,,experiment,cRDM,2.0,,,,1645.8111427000003,1003,24,female,True
548,0.2146934650880827,25,down,down,0.7610393999984808,0.7831929413849679,,experiment,cRDM,2.0,,,,1648.3443368999997,1003,24,female,True
549,0.2146934650880827,25,down,up,0.73507360000076,1.178474200836258,,experiment,cRDM,2.0,,,,1650.5442602999992,1003,24,female,True
550,0.2146934650880827,25,up,up,0.6901182000001427,0.6631311133933627,,experiment,cRDM,2.0,,,,1652.1942101999994,1003,24,female,True
551,0.2146934650880827,25,up,up,0.7448750999992626,0.9234885825811988,,experiment,cRDM,2.0,,,,1654.0774643999994,1003,24,female,True
552,0.2146934650880827,25,down,down,0.7770243999984814,1.8462257946787743,,experiment,cRDM,2.0,,,,1656.9273319000004,1003,24,female,True
553,0.2146934650880827,25,up,up,0.862692300001072,0.3356404538369069,,experiment,cRDM,2.0,,,,1658.310650899999,1003,24,female,True
554,0.2146934650880827,25,down,down,0.7187202999994042,0.3745376439693682,,experiment,cRDM,2.0,,,,1659.8106243000002,1003,24,female,True
555,0.2146934650880827,25,down,down,0.7205217000009725,1.8597572930701909,,experiment,cRDM,2.0,,,,1662.6437987999998,1003,24,female,True
556,0.2146934650880827,25,down,down,0.6539529000001494,0.8305551842654351,,experiment,cRDM,2.0,,,,1664.4603874999991,1003,24,female,True
557,0.2146934650880827,25,up,up,0.7243587000011757,1.4472031446758815,,experiment,cRDM,2.0,,,,1666.8269818999995,1003,24,female,True
558,0.2146934650880827,25,up,up,0.7254799000002095,1.007174343884133,,experiment,cRDM,2.0,,,,1668.8269132999994,1003,24,female,True
559,0.2146934650880827,25,down,down,0.6675245999995241,1.1584198324343384,,experiment,cRDM,2.0,,,,1670.9768155000002,1003,24,female,True
560,0.2146934650880827,25,down,down,1.2496123999990232,1.1675529158923068,,experiment,cRDM,2.0,,,,1673.0767271000004,1003,24,female,True
561,0.2146934650880827,25,up,up,0.7683696999993117,1.4712411703066397,,experiment,cRDM,2.0,,,,1676.0599853999993,1003,24,female,True
562,0.2146934650880827,25,up,up,0.6444869000006292,1.2022271009216945,,experiment,cRDM,2.0,,,,1678.309900799999,1003,24,female,True
563,0.2146934650880827,25,up,up,0.6806039000002784,1.991721520610352,,experiment,cRDM,2.0,,,,1681.209802199999,1003,24,female,True
564,0.2146934650880827,25,up,up,1.0379813999988985,0.9085632307363544,,experiment,cRDM,2.0,,,,1683.0763532,1003,24,female,True
565,0.2146934650880827,25,up,up,0.6556875000005675,1.2384906544182286,,experiment,cRDM,2.0,,,,1685.609665,1003,24,female,True
566,0.2146934650880827,25,down,down,0.778801200000089,0.8245593525836756,,experiment,cRDM,2.0,,,,1687.3595489,1003,24,female,True
567,0.2146934650880827,25,down,down,0.7005972000006295,1.6910267537289585,,experiment,cRDM,2.0,,,,1690.0927360000003,1003,24,female,True
568,0.2146934650880827,25,up,up,0.642274499999985,0.3730852336192485,,experiment,cRDM,2.0,,,,1691.4260625999996,1003,24,female,True
569,0.2146934650880827,25,down,down,0.7336446999997861,0.3141059840517902,,experiment,cRDM,2.0,,,,1692.6426966,1003,24,female,True
570,0.2146934650880827,25,down,down,0.7670224999983475,0.3366712366817171,,experiment,cRDM,2.0,,,,1693.959313199999,1003,24,female,True
571,0.2146934650880827,25,down,down,0.7233993999998347,0.6825890835931858,,experiment,cRDM,2.0,,,,1695.6759041999994,1003,24,female,True
572,0.2146934650880827,25,up,down,0.7715057999994315,1.5095993392147693,,experiment,cRDM,2.0,,,,1698.1758277999998,1003,24,female,True
573,0.2146934650880827,25,down,down,1.0109549999997398,0.3298590916510393,,experiment,cRDM,2.0,,,,1699.5424308,1003,24,female,True
574,0.2146934650880827,25,down,down,0.7436813000003895,1.5086631239606816,,experiment,cRDM,2.0,,,,1702.3256714,1003,24,female,True
575,0.2146934650880827,25,down,up,0.8691492999987531,1.604729793931337,,experiment,cRDM,2.0,,,,1704.9422247000002,1003,24,female,True
576,0.2146934650880827,25,up,up,0.7838675000002695,0.4085157161978596,,experiment,cRDM,2.0,,,,1706.4754866999992,1003,24,female,True
577,0.2146934650880827,25,up,up,0.7865578000000824,0.4217950103935347,,experiment,cRDM,2.0,,,,1707.9588048999994,1003,24,female,True
578,0.2146934650880827,25,down,down,0.8803350999987742,1.069102437897843,,experiment,cRDM,2.0,,,,1710.091978299999,1003,24,female,True
579,0.2146934650880827,25,up,up,0.9350690000010218,1.427304223476929,,experiment,cRDM,2.0,,,,1712.6752593,1003,24,female,True
580,0.2146934650880827,25,down,up,0.8724445999996533,1.3715910508252835,,experiment,cRDM,2.0,,,,1715.2418502,1003,24,female,True
581,0.2146934650880827,25,up,up,0.7034105000002455,1.9044561765056585,,experiment,cRDM,2.0,,,,1718.2749299999996,1003,24,female,True
582,0.2146934650880827,25,up,up,0.8180657000011706,1.562859215077331,,experiment,cRDM,2.0,,,,1720.8083007000005,1003,24,female,True
583,110.0,25,M,up,1.079504299999826,0.4478655408943838,,experiment,emotion,2.0,,,,1724.4248298999992,1003,24,female,True
584,95.0,25,M,down,0.5149055999991106,0.4517830271979538,,experiment,emotion,2.0,,,,1726.2414432000005,1003,24,female,True
585,105.0,25,F,up,0.693964899999628,1.1909134173097482,,experiment,emotion,2.0,,,,1728.2413655,1003,24,female,True
586,110.0,25,F,up,0.8173667999999452,0.819078139997206,,experiment,emotion,2.0,,,,1730.0079810999996,1003,24,female,True
587,105.0,25,M,up,1.1084764999995969,1.9037158845359536,,experiment,emotion,2.0,,,,1733.007846999999,1003,24,female,True
588,100.0,25,F,up,1.1571949999997742,0.4948099400553591,,experiment,emotion,2.0,,,,1734.8911236999993,1003,24,female,True
589,95.0,25,M,down,0.8486666999997396,0.9793813326385248,,experiment,emotion,2.0,,,,1737.3076903,1003,24,female,True
590,100.0,25,M,down,1.2644639999998617,1.8703181730196,,experiment,emotion,2.0,,,,1740.2909173999997,1003,24,female,True
591,110.0,25,F,up,0.8232953000006091,1.9346599497895527,,experiment,emotion,2.0,,,,1743.7740054000003,1003,24,female,True
592,100.0,25,F,,,1.6417681797929886,,experiment,emotion,2.0,,,,1746.5073930999988,1003,24,female,True
593,105.0,25,F,,,1.8272567760616447,,experiment,emotion,2.0,,,,1751.0405666999995,1003,24,female,True
594,110.0,25,F,down,1.0266357000000426,1.3018706481654978,,experiment,emotion,2.0,,,,1755.0237003999991,1003,24,female,True
595,105.0,25,F,down,0.7440688999995473,1.9275595854555692,,experiment,emotion,2.0,,,,1758.2402499,1003,24,female,True
596,95.0,25,F,down,0.6341370999998617,0.3121145773184063,,experiment,emotion,2.0,,,,1759.5902052,1003,24,female,True
597,100.0,25,M,down,0.9278892000002088,1.021100006076019,,experiment,emotion,2.0,,,,1761.5234683999988,1003,24,female,True
598,95.0,25,M,down,0.7160001000011107,0.7058334634538991,,experiment,emotion,2.0,,,,1763.423388199999,1003,24,female,True
599,110.0,25,M,down,0.655038599999898,0.9588369086501484,,experiment,emotion,2.0,,,,1765.3733049999992,1003,24,female,True
600,95.0,25,M,down,0.8947512000013376,0.7519134705751467,,experiment,emotion,2.0,,,,1767.0565826999991,1003,24,female,True
601,105.0,25,F,up,0.6185454999995272,0.9709640267120974,,experiment,emotion,2.0,,,,1769.1898110999991,1003,24,female,True
602,105.0,25,M,up,1.0225653999987117,1.972665583634835,,experiment,emotion,2.0,,,,1772.039755599999,1003,24,female,True
603,100.0,25,M,up,0.7416148000011162,0.4048757686596494,,experiment,emotion,2.0,,,,1773.7396754,1003,24,female,True
604,100.0,25,F,up,0.8833594000006997,0.5653673276541791,,experiment,emotion,2.0,,,,1775.3229508000004,1003,24,female,True
605,95.0,25,M,down,0.6578181999993831,1.072194760248909,,experiment,emotion,2.0,,,,1777.5395527,1003,24,female,True
606,110.0,25,F,down,0.6804852000004757,0.3994311981968635,,experiment,emotion,2.0,,,,1778.8728315999997,1003,24,female,True
607,105.0,25,F,down,0.8769114999995509,1.5553730931154546,,experiment,emotion,2.0,,,,1781.389431399999,1003,24,female,True
608,95.0,25,M,down,0.8593265000017709,1.0196569071714028,,experiment,emotion,2.0,,,,1783.5559952000003,1003,24,female,True
609,110.0,25,M,up,0.8853850000014063,1.6213821375252242,,experiment,emotion,2.0,,,,1786.3058829,1003,24,female,True
610,110.0,25,F,up,0.9895426999992196,1.3968988979172752,,experiment,emotion,2.0,,,,1788.8557755000002,1003,24,female,True
611,100.0,25,M,up,1.081359900001189,1.0717498107371422,,experiment,emotion,2.0,,,,1791.1889732,1003,24,female,True
612,95.0,25,F,down,0.6754006999999547,1.2942522142264772,,experiment,emotion,2.0,,,,1793.838922999999,1003,24,female,True
613,100.0,25,F,down,0.6405217999999877,1.113210738529297,,experiment,emotion,2.0,,,,1795.8887914999996,1003,24,female,True
614,105.0,25,F,down,0.9996064999995724,1.7340987161787191,,experiment,emotion,2.0,,,,1798.5387714999997,1003,24,female,True
615,95.0,25,M,down,0.6380122999999003,1.6483288953227022,,experiment,emotion,2.0,,,,1801.4553190999995,1003,24,female,True
616,110.0,25,M,down,0.6537399999997433,1.7039342230752803,,experiment,emotion,2.0,,,,1804.088557699999,1003,24,female,True
617,105.0,25,M,down,0.4675542999993922,0.4546511711560265,,experiment,emotion,2.0,,,,1805.471788499999,1003,24,female,True
618,110.0,25,F,down,0.4632483999994292,0.6473625595109341,,experiment,emotion,2.0,,,,1806.8551018,1003,24,female,True
619,95.0,25,F,down,0.4002115000002959,0.5015655553174349,,experiment,emotion,2.0,,,,1808.105072799999,1003,24,female,True
620,105.0,25,M,down,0.6473019999993994,1.9110507770759784,,experiment,emotion,2.0,,,,1810.7050141,1003,24,female,True
621,100.0,25,F,down,0.4168881999994482,0.9866212844467632,,experiment,emotion,2.0,,,,1812.6049064999988,1003,24,female,True
622,100.0,25,M,down,0.637798699999621,0.3397326205055256,,experiment,emotion,2.0,,,,1813.6215624,1003,24,female,True
623,105.0,25,M,down,0.9898427999996784,0.7874243239270278,,experiment,emotion,2.0,,,,1815.3214850999996,1003,24,female,True
624,110.0,25,M,down,0.7616073999997752,0.6576668572682962,,experiment,emotion,2.0,,,,1817.2547199,1003,24,female,True
625,100.0,25,F,down,0.7703216999998403,0.5393705138234219,,experiment,emotion,2.0,,,,1818.8380034,1003,24,female,True
626,95.0,25,F,down,0.7277141999984451,0.5251433599676747,,experiment,emotion,2.0,,,,1820.4046134,1003,24,female,True
627,95.0,25,M,down,0.7884170999986964,0.4344789323662624,,experiment,emotion,2.0,,,,1821.8378949,1003,24,female,True
628,100.0,25,F,down,0.8208525999998528,1.421820241755428,,experiment,emotion,2.0,,,,1824.3044754999992,1003,24,female,True
629,110.0,25,F,up,0.7512478999997256,1.2260358202972907,,experiment,emotion,2.0,,,,1826.6210484999992,1003,24,female,True
630,105.0,25,M,down,2.41301089999979,1.3639935504392,,experiment,emotion,2.0,,,,1829.0043234000004,1003,24,female,True
631,95.0,25,M,up,1.2824713999998494,0.4828625538017762,,experiment,emotion,2.0,,,,1832.1708346,1003,24,female,True
632,110.0,25,F,up,0.6777473000001919,0.6584875925219753,,experiment,emotion,2.0,,,,1834.387684199999,1003,24,female,True
633,105.0,25,M,up,1.0322624999989785,0.8629211925739213,,experiment,emotion,2.0,,,,1836.2040433999991,1003,24,female,True
634,105.0,25,F,up,1.530425599999944,1.838208145011224,,experiment,emotion,2.0,,,,1839.353927099999,1003,24,female,True
635,95.0,25,F,down,1.7205387000012706,1.091576118110723,,experiment,emotion,2.0,,,,1842.253808399999,1003,24,female,True
636,100.0,25,F,down,0.70828530000108,1.6823246320448288,,experiment,emotion,2.0,,,,1845.937018999999,1003,24,female,True
637,110.0,25,M,down,1.5304178000005777,1.779906759968665,,experiment,emotion,2.0,,,,1848.6868923,1003,24,female,True
638,100.0,25,M,down,0.9532328999994206,1.168590438943638,,experiment,emotion,2.0,,,,1851.670098999999,1003,24,female,True
639,100.0,25,F,down,2.020935800001098,0.5605391816361169,,experiment,emotion,2.0,,,,1853.4533914000003,1003,24,female,True
640,100.0,25,F,down,0.9440113000000564,0.8543269383092047,,experiment,emotion,2.0,,,,1856.6032918,1003,24,female,True
641,110.0,25,M,down,0.9314687000005506,1.2902659130316223,,experiment,emotion,2.0,,,,1859.1198427,1003,24,female,True
642,105.0,25,M,down,0.6871730999991996,0.5212100259000858,,experiment,emotion,2.0,,,,1860.8531272,1003,24,female,True
643,95.0,25,M,down,0.5530740999984118,0.9534559773151536,,experiment,emotion,2.0,,,,1862.7862621999996,1003,24,female,True
644,95.0,25,M,down,0.6500326000004861,1.7263064941188428,,experiment,emotion,2.0,,,,1865.33627,1003,24,female,True
645,105.0,25,M,down,0.4858469000009791,0.4982124539952335,,experiment,emotion,2.0,,,,1866.7695587999988,1003,24,female,True
646,110.0,25,F,up,0.8603303999989294,1.853356516285214,,experiment,emotion,2.0,,,,1869.3860160000004,1003,24,female,True
647,110.0,25,F,up,0.4648837999993702,0.9562314139559444,,experiment,emotion,2.0,,,,1871.4694,1003,24,female,True
648,95.0,25,M,down,0.622333899998921,1.32989529706943,,experiment,emotion,2.0,,,,1873.5359747,1003,24,female,True
649,110.0,25,F,up,0.8050263000004634,0.3546043158333211,,experiment,emotion,2.0,,,,1874.7692893000003,1003,24,female,True
650,100.0,25,F,down,0.9024852999991708,1.5199831768531418,,experiment,emotion,2.0,,,,1877.385834499999,1003,24,female,True
651,105.0,25,F,down,0.682551500000045,1.3800939744493683,,experiment,emotion,2.0,,,,1879.9357459000005,1003,24,female,True
652,100.0,25,M,down,0.6627403000002232,1.744422147703692,,experiment,emotion,2.0,,,,1882.6356354,1003,24,female,True
653,95.0,25,F,down,0.5561569000001327,1.7791566399428318,,experiment,emotion,2.0,,,,1885.352206,1003,24,female,True
654,105.0,25,F,down,0.5608548000000155,1.3660730409183424,,experiment,emotion,2.0,,,,1887.535468,1003,24,female,True
655,100.0,25,F,up,1.0138955999991597,0.930980282866821,,experiment,emotion,2.0,,,,1889.2854014999996,1003,24,female,True
656,105.0,25,M,down,1.5563653000008344,1.9075851013700773,,experiment,emotion,2.0,,,,1892.501949399999,1003,24,female,True
657,95.0,25,M,down,0.6508418999983405,0.9435689659902148,,experiment,emotion,2.0,,,,1895.2684709000005,1003,24,female,True
658,110.0,25,F,up,1.0148484999990617,1.7215774168814957,,experiment,emotion,2.0,,,,1897.918451399999,1003,24,female,True
659,105.0,25,M,down,0.716614799999661,0.3000281215482562,,experiment,emotion,2.0,,,,1899.501687599999,1003,24,female,True
660,110.0,25,F,up,0.7466792000013811,1.1160679898102486,,experiment,emotion,2.0,,,,1901.6016182999992,1003,24,female,True
661,95.0,25,M,down,0.9127765000012004,1.1730161218814736,,experiment,emotion,2.0,,,,1903.8015158999988,1003,24,female,True
662,100.0,25,M,down,0.6491792999986501,0.9393385149353864,,experiment,emotion,2.0,,,,1905.9181173,1003,24,female,True
663,0.2146934650880827,25,up,up,0.7194445000004634,0.3297887701817056,,experiment,cRDM,3.0,,,,1939.866851499999,1003,24,female,True
664,0.2146934650880827,25,up,up,0.824930000000677,1.3478384805253292,,experiment,cRDM,3.0,,,,1942.1833934999995,1003,24,female,True
665,0.2146934650880827,25,down,up,0.86929229999987,1.7802118569556638,,experiment,cRDM,3.0,,,,1945.0499932999992,1003,24,female,True
666,0.2146934650880827,25,down,down,0.6033837000013591,0.4775723927947402,,experiment,cRDM,3.0,,,,1946.6499258000003,1003,24,female,True
667,0.2146934650880827,25,up,down,0.7061023000005662,0.7080508988186032,,experiment,cRDM,3.0,,,,1948.2332045000005,1003,24,female,True
668,0.2146934650880827,25,down,up,0.8834683999994013,1.3468140761958058,,experiment,cRDM,3.0,,,,1950.549803,1003,24,female,True
669,0.2146934650880827,25,up,up,0.6971976999993785,0.3814008905087194,,experiment,cRDM,3.0,,,,1952.0831055999988,1003,24,female,True
670,0.2146934650880827,25,up,up,1.320657899999787,1.8997912204598932,,experiment,cRDM,3.0,,,,1954.9496211999997,1003,24,female,True
671,0.2146934650880827,25,down,down,0.7168204999998125,1.80514581385722,,experiment,cRDM,3.0,,,,1958.3494771000005,1003,24,female,True
672,0.2146934650880827,25,down,down,1.073873100000128,0.3689119458663158,,experiment,cRDM,3.0,,,,1959.699444,1003,24,female,True
673,0.2146934650880827,25,down,down,1.0185759000014514,1.6434064652981053,,experiment,cRDM,3.0,,,,1962.6827035000008,1003,24,female,True
674,0.2146934650880827,25,down,down,0.8084058000004006,1.4468754677303566,,experiment,cRDM,3.0,,,,1965.4158964999988,1003,24,female,True
675,0.2146934650880827,25,down,up,0.5925574000011693,1.174104145374419,,experiment,cRDM,3.0,,,,1967.6657301,1003,24,female,True
676,0.2146934650880827,25,down,up,0.866917100000137,1.5937605042573924,,experiment,cRDM,3.0,,,,1970.1323901,1003,24,female,True
677,0.2146934650880827,25,up,up,0.7663642999996227,1.89339745120958,,experiment,cRDM,3.0,,,,1973.148934499999,1003,24,female,True
678,0.2146934650880827,25,up,up,1.1793524000004254,0.7301779102548103,,experiment,cRDM,3.0,,,,1974.8988862999995,1003,24,female,True
679,0.2146934650880827,25,up,down,0.6658772999999201,1.524631848841144,,experiment,cRDM,3.0,,,,1977.8654023999989,1003,24,female,True
680,0.2146934650880827,25,up,up,0.7126099999986764,1.5380905270081382,,experiment,cRDM,3.0,,,,1980.3486670999991,1003,24,female,True
681,0.2146934650880827,25,down,up,0.8369934000002104,1.410411167794538,,experiment,cRDM,3.0,,,,1982.7152879000005,1003,24,female,True
682,0.2146934650880827,25,up,up,0.666106700000455,0.8957218308514292,,experiment,cRDM,3.0,,,,1984.7151715,1003,24,female,True
683,0.2146934650880827,25,up,up,0.7468368999998347,1.137387610104254,,experiment,cRDM,3.0,,,,1986.7984462999996,1003,24,female,True
684,0.2146934650880827,25,down,up,0.6414033999990352,1.4707950775666254,,experiment,cRDM,3.0,,,,1989.2649284,1003,24,female,True
685,0.2146934650880827,25,up,up,0.8059787999991386,0.7242014488622666,,experiment,cRDM,3.0,,,,1990.8983026999997,1003,24,female,True
686,0.2146934650880827,25,down,down,0.7800867999994807,1.4690232281143678,,experiment,cRDM,3.0,,,,1993.448192,1003,24,female,True
687,0.2146934650880827,25,down,up,1.2955308999989938,1.8747596997649825,,experiment,cRDM,3.0,,,,1996.364761499999,1003,24,female,True
688,0.2146934650880827,25,up,up,0.963020499999402,1.1663381043925904,,experiment,cRDM,3.0,,,,1999.0812596,1003,24,female,True
689,0.2146934650880827,25,up,up,0.9037274000002072,1.173777405450332,,experiment,cRDM,3.0,,,,2001.4645616,1003,24,female,True
690,0.2146934650880827,25,down,down,0.8224636000013561,1.8109526221362835,,experiment,cRDM,3.0,,,,2004.4477690000003,1003,24,female,True
691,0.2146934650880827,25,up,up,0.7312450000008539,1.5927021248215012,,experiment,cRDM,3.0,,,,2007.1310507999988,1003,24,female,True
692,0.2146934650880827,25,down,down,1.3656872999999905,1.6295483742907804,,experiment,cRDM,3.0,,,,2009.747584499999,1003,24,female,True
693,0.2146934650880827,25,down,down,0.8721313000005466,0.9903528635049376,,experiment,cRDM,3.0,,,,2012.3641862000004,1003,24,female,True
694,0.2146934650880827,25,down,down,0.798611099999107,1.432972214858214,,experiment,cRDM,3.0,,,,2014.9307302,1003,24,female,True
695,0.2146934650880827,25,up,up,0.6452938000002177,1.0364096320609513,,experiment,cRDM,3.0,,,,2017.0139765000004,1003,24,female,True
696,0.2146934650880827,25,up,up,0.8237848999997368,0.4645514791407087,,experiment,cRDM,3.0,,,,2018.3804863999997,1003,24,female,True
697,0.2146934650880827,25,up,up,1.737077899999349,1.6255040985023526,,experiment,cRDM,3.0,,,,2021.0971973,1003,24,female,True
698,0.2146934650880827,25,down,down,1.3125192999996216,1.0126184274401528,,experiment,cRDM,3.0,,,,2024.1137445999996,1003,24,female,True
699,0.2146934650880827,25,down,down,0.808665699998528,1.0689164641459326,,experiment,cRDM,3.0,,,,2026.7636127999997,1003,24,female,True
700,0.2146934650880827,25,up,up,0.740050100001099,1.295863204828498,,experiment,cRDM,3.0,,,,2029.130220699999,1003,24,female,True
701,0.2146934650880827,25,down,up,0.9411816000010732,0.6467771530604899,,experiment,cRDM,3.0,,,,2030.7800792999988,1003,24,female,True
702,0.2146934650880827,25,up,down,0.8452137999993283,1.3425943092089507,,experiment,cRDM,3.0,,,,2033.330059,1003,24,female,True
703,0.2146934650880827,25,up,up,0.8632928999995784,1.294517694357775,,experiment,cRDM,3.0,,,,2035.7299836,1003,24,female,True
704,0.2146934650880827,25,up,up,0.941068100000848,1.9553221365919595,,experiment,cRDM,3.0,,,,2038.8131937999988,1003,24,female,True
705,0.2146934650880827,25,down,down,0.6994522000004508,0.4781131811602224,,experiment,cRDM,3.0,,,,2040.4798107999995,1003,24,female,True
706,0.2146934650880827,25,down,down,0.7462440999988758,0.6155632011711829,,experiment,cRDM,3.0,,,,2042.063035699999,1003,24,female,True
707,0.2146934650880827,25,up,down,0.7496582999992825,1.4514450616354837,,experiment,cRDM,3.0,,,,2044.5296118999995,1003,24,female,True
708,0.2146934650880827,25,down,down,0.8584728000005271,1.934027027786415,,experiment,cRDM,3.0,,,,2047.462789199999,1003,24,female,True
709,0.2146934650880827,25,down,down,1.1518287999988388,1.6258921799922468,,experiment,cRDM,3.0,,,,2050.229436,1003,24,female,True
710,0.2146934650880827,25,up,up,0.8532514999988052,0.4079570095734297,,experiment,cRDM,3.0,,,,2052.0460213000006,1003,24,female,True
711,0.2146934650880827,25,up,up,0.9632981999984622,0.4374802061302089,,experiment,cRDM,3.0,,,,2053.595964099999,1003,24,female,True
712,0.2146934650880827,25,down,up,1.0404093000015564,1.4696344422730083,,experiment,cRDM,3.0,,,,2056.2958609,1003,24,female,True
713,0.2146934650880827,25,up,up,0.7644850999986375,0.897534220314617,,experiment,cRDM,3.0,,,,2058.4957787999992,1003,24,female,True
714,0.2146934650880827,25,down,up,0.925804299999072,0.9409168356580456,,experiment,cRDM,3.0,,,,2060.4624126,1003,24,female,True
715,0.2146934650880827,25,down,up,0.6512653999998292,0.6748707398665232,,experiment,cRDM,3.0,,,,2062.328981299999,1003,24,female,True
716,0.2146934650880827,25,down,down,0.8690348000000085,0.968694223128782,,experiment,cRDM,3.0,,,,2064.212246699999,1003,24,female,True
717,0.2146934650880827,25,up,up,0.7265778999990289,1.67554226720531,,experiment,cRDM,3.0,,,,2067.0288234,1003,24,female,True
718,0.2146934650880827,25,up,up,0.7755048999988503,1.4648323525907456,,experiment,cRDM,3.0,,,,2069.478751999999,1003,24,female,True
719,0.2146934650880827,25,down,up,1.6536505000003672,0.7176330378386879,,experiment,cRDM,3.0,,,,2071.2286368000005,1003,24,female,True
720,0.2146934650880827,25,down,down,1.001738300001307,0.3796704446816195,,experiment,cRDM,3.0,,,,2073.5285582,1003,24,female,True
721,0.2146934650880827,25,up,up,0.8905845999997837,0.9554303330685914,,experiment,cRDM,3.0,,,,2075.7617078999992,1003,24,female,True
722,0.2146934650880827,25,up,up,1.013497300000381,0.4358152164395364,,experiment,cRDM,3.0,,,,2077.3617584000003,1003,24,female,True
723,0.2146934650880827,25,up,up,0.6986028999999689,1.0621593455035008,,experiment,cRDM,3.0,,,,2079.711667,1003,24,female,True
724,0.2146934650880827,25,up,up,1.4162942000002658,1.1119592084218632,,experiment,cRDM,3.0,,,,2081.7949608,1003,24,female,True
725,0.2146934650880827,25,up,up,0.6487496999998257,0.4403730204446134,,experiment,cRDM,3.0,,,,2083.9115177000003,1003,24,female,True
726,0.2146934650880827,25,down,down,0.703810799999701,1.4840809077666115,,experiment,cRDM,3.0,,,,2086.311448999999,1003,24,female,True
