,stimLvl,stimTime,rand,response,rt,precedingITI,trialNumber,trialType,stimuli,block,estIntens,estThres,estSlope,trialStart,subject,age,gender,headRest
0,150.0,100,F,,,1.5390180523157495,,introTrial,emotion,,,,,231.6223887000015,1007,28,female,True
1,0.9,100,down,,,0.6005973187276389,,introTrial,cRDM,,,,,236.1555800000024,1007,28,female,True
2,0.9,25,up,up,0.565092699998786,0.9473617477966398,,tutorial,cRDM,,,,,276.72074630000134,1007,28,female,True
3,0.9,25,up,up,0.6317745000014838,1.2823530099095275,,tutorial,cRDM,,,,,278.8539810000002,1007,28,female,True
4,0.9,25,up,up,0.4167898999985482,1.9662612216425917,,tutorial,cRDM,,,,,281.7371989000021,1007,28,female,True
5,0.9,25,up,down,0.7046480000026349,0.7963850670289253,,tutorial,cRDM,,,,,283.23713280000084,1007,28,female,True
6,0.9,25,down,down,1.0396918000005826,1.01567251383864,,tutorial,cRDM,,,,,285.23707410000134,1007,28,female,True
7,0.9,25,down,up,0.8701241000017035,0.8895055222378652,,tutorial,cRDM,,,,,287.4536408000022,1007,28,female,True
8,0.9,25,down,down,0.4972014999984822,1.0477845072168883,,tutorial,cRDM,,,,,289.65358019999985,1007,28,female,True
9,0.9,25,down,up,0.5082593000006455,1.8038055716909247,,tutorial,cRDM,,,,,292.25350430000253,1007,28,female,True
10,0.9,25,down,up,0.5250519000001077,1.1931139476958916,,tutorial,cRDM,,,,,294.23675379999986,1007,28,female,True
11,0.9,25,up,up,0.400237300000299,1.501106060619822,,tutorial,cRDM,,,,,296.5366632000005,1007,28,female,True
12,200.0,25,M,up,0.4607561999982863,0.804211183082423,,tutorial,emotion,,,,,305.0030182000009,1007,28,female,True
13,200.0,25,M,up,0.4002056999997876,0.9914817505365796,,tutorial,emotion,,,,,306.736277,1007,28,female,True
14,200.0,25,F,up,0.3169829999969806,0.931191214480878,,tutorial,emotion,,,,,308.3693843000001,1007,28,female,True
15,0.0,25,F,down,0.6623385999992024,1.4385448759327164,,tutorial,emotion,,,,,310.51946300000054,1007,28,female,True
16,0.0,25,M,down,0.490712099999655,0.9303770831336272,,tutorial,emotion,,,,,312.38607180000326,1007,28,female,True
17,200.0,25,F,up,0.7881624000001466,0.5222332303124123,,tutorial,emotion,,,,,313.6696152000004,1007,28,female,True
18,0.0,25,M,down,0.6298884999996517,1.9430751772293868,,tutorial,emotion,,,,,316.6859042000033,1007,28,female,True
19,200.0,25,M,down,0.4435711999976774,1.3309776272238996,,tutorial,emotion,,,,,318.91918200000146,1007,28,female,True
20,0.0,25,F,down,0.5513404000012088,1.211289904192663,,tutorial,emotion,,,,,320.85240239999985,1007,28,female,True
21,0.0,25,F,up,0.6440313999992213,0.391052614236223,,tutorial,emotion,,,,,322.08572300000014,1007,28,female,True
22,0.29,25,up,up,0.3337998999995761,1.3758564227550183,,psi_staircase_training,cRDM,,0.25,0.2569312402994632,0.105,336.2851926000003,1007,28,female,True
23,0.25,25,up,up,0.3339027000001806,1.947300703180184,,psi_staircase_training,cRDM,,0.2191026665318312,0.2260132002683492,0.1046863203387393,338.9350863,1007,28,female,True
24,0.21,25,down,up,0.3171256999994511,0.8593694797555222,,psi_staircase_training,cRDM,,0.1900540959403307,0.1968497961554001,0.1029467298424999,340.5017325000008,1007,28,female,True
25,0.32,25,down,up,0.6558100000002014,1.6854733533117046,,psi_staircase_training,cRDM,,0.2819387795981387,0.2893209636160949,0.1118312579561586,342.88495330000296,1007,28,female,True
26,0.41,25,up,down,0.3338616000000911,1.7235287306945128,,psi_staircase_training,cRDM,,0.3628077164667926,0.3703536552616306,0.1143119469569305,345.5514977000021,1007,28,female,True
27,0.46,25,down,up,0.3507461000008334,0.9628536484206748,,psi_staircase_training,cRDM,,0.4171631026166111,0.4243110970127317,0.1082835653022706,347.2181150000033,1007,28,female,True
28,0.47,25,up,up,0.7586570999992546,1.094393679412732,,psi_staircase_training,cRDM,,0.4484299732927461,0.4552322350366991,0.1030461291567636,349.0180529999998,1007,28,female,True
29,0.47,25,down,up,0.8458446000004187,1.3549932415582968,,psi_staircase_training,cRDM,,0.4416179936118162,0.4488251947312691,0.1091804763429076,351.41795150000326,1007,28,female,True
30,0.48,25,down,up,0.4702313999987382,0.4626674260163431,,psi_staircase_training,cRDM,,0.4614336000909529,0.4678216024228026,0.0967705945638837,352.98456440000155,1007,28,female,True
31,0.52,25,up,up,0.4916620000003604,1.2713031163571946,,psi_staircase_training,cRDM,,0.4739458151298945,0.4794800552469681,0.0838371182049098,355.00116280000293,1007,28,female,True
32,0.52,25,down,up,0.4002428000021609,1.3200900247895768,,psi_staircase_training,cRDM,,0.4744664864246017,0.479561625176812,0.0771852577414611,357.0844345000005,1007,28,female,True
33,0.52,25,down,down,0.5250747999998566,1.8208461470982376,,psi_staircase_training,cRDM,,0.4691645263720789,0.4779579599539396,0.1332100008373495,359.6176599999999,1007,28,female,True
34,0.52,25,down,up,0.5761984999990091,1.1978596490715596,,psi_staircase_training,cRDM,,0.4686300872261369,0.4771497346315757,0.129062467743377,361.6175890000013,1007,28,female,True
35,0.63,25,up,up,0.5529771000001347,1.9869775339950984,,psi_staircase_training,cRDM,,0.4707902166034631,0.4808253254156661,0.1520198953948978,364.45079110000006,1007,28,female,True
36,0.53,25,up,up,0.5606357999968168,0.5077272727784786,,psi_staircase_training,cRDM,,0.4705047516705721,0.4804183340037516,0.1501789145969226,365.784125000002,1007,28,female,True
37,0.53,25,down,down,0.7557219999980589,0.7733737807380632,,psi_staircase_training,cRDM,,0.4696167953263161,0.4794232999640677,0.1485568155880626,367.3840314000008,1007,28,female,True
38,0.53,25,down,up,0.4821644999974523,1.2835941254691834,,psi_staircase_training,cRDM,,0.4687301284283955,0.4784192721317061,0.1467789378080568,369.70061870000063,1007,28,female,True
39,0.65,25,up,down,0.914184400000522,0.3868743464272147,,psi_staircase_training,cRDM,,0.4727810295183339,0.4830653990770349,0.1557958975606766,370.8505673,1007,28,female,True
40,0.66,25,up,up,0.4168250000002444,1.843930619408956,,psi_staircase_training,cRDM,,0.4749657484474535,0.4863725272742478,0.1727990554455526,373.8838207000008,1007,28,female,True
41,0.66,25,up,up,0.6496765999982017,0.4443003978403991,,psi_staircase_training,cRDM,,0.4747233980273072,0.4860457609157742,0.1715202549507763,375.01707069999975,1007,28,female,True
42,0.66,25,up,up,0.6567500000019209,0.5828763383918487,,psi_staircase_training,cRDM,,0.4744888032664711,0.4857248861182155,0.1702132155949815,376.5170221000008,1007,28,female,True
43,0.66,25,down,down,0.5860988999993424,0.6792119218461858,,psi_staircase_training,cRDM,,0.4742623773859477,0.4854104477838561,0.168879932192082,378.13363890000255,1007,28,female,True
44,0.66,25,down,up,0.5752534999992349,1.6207118790234811,,psi_staircase_training,cRDM,,0.4740444965726214,0.4851029651878695,0.1675225723585091,380.6335338000026,1007,28,female,True
45,0.66,25,down,down,0.5936786999991455,1.7254114193088443,,psi_staircase_training,cRDM,,0.4762371689947189,0.4882507324348443,0.18199111655541,383.2001149000025,1007,28,female,True
46,0.66,25,up,up,0.6507178999963799,0.6498051841845811,,psi_staircase_training,cRDM,,0.4759605836378152,0.487909684685832,0.1810145884191789,384.7000560000015,1007,28,female,True
47,0.66,25,up,up,0.4847384999993664,0.6346224591993116,,psi_staircase_training,cRDM,,0.4756888024512826,0.4875711154981984,0.1800028300884006,386.2499878000017,1007,28,female,True
48,0.66,25,down,down,0.5854600999991817,1.1569431477551089,,psi_staircase_training,cRDM,,0.4754223708270892,0.4872355987183758,0.1789562726141728,388.18328810000094,1007,28,female,True
49,0.66,25,down,down,0.8396012000011979,1.0936766958805295,,psi_staircase_training,cRDM,,0.4751618294609948,0.4869037149290149,0.1778755202351861,390.1331839000013,1007,28,female,True
50,0.66,25,up,up,0.4759303999999247,1.2074890469957291,,psi_staircase_training,cRDM,,0.4749077099451528,0.4865760473700042,0.1767613553528465,392.4498011000032,1007,28,female,True
51,0.66,25,up,down,0.4577490999981819,1.7056259026395466,,psi_staircase_training,cRDM,,0.4746605301949062,0.4862531775773717,0.1756147417444369,394.8830282000017,1007,28,female,True
52,100.0,25,M,down,0.7463838000003307,1.6507939691160585,,psi_staircase_training,emotion,,100.0,100.0,25.00050000000001,402.14939100000265,1007,28,female,True
53,145.0,25,M,down,0.7268127999996068,0.8030072959875805,,psi_staircase_training,emotion,,145.25719053245996,145.25719053245996,25.00050000000028,404.0659661000027,1007,28,female,True
54,168.0,25,F,up,0.4438305000003311,1.2431085181505914,,psi_staircase_training,emotion,,168.03875363226317,168.03875363226317,24.348195048155315,406.4159209999998,1007,28,female,True
55,155.0,25,F,down,0.7721798999991734,1.3918911583728115,,psi_staircase_training,emotion,,155.004436652377,155.004436652377,25.558429500416704,408.63252940000166,1007,28,female,True
56,170.0,25,M,up,0.5196703000001435,1.429702754950525,,psi_staircase_training,emotion,,165.44574296022685,165.44574296022685,24.96788539774863,411.1990957000016,1007,28,female,True
57,160.0,25,F,up,0.6707850000020699,1.949546964589556,,psi_staircase_training,emotion,,159.5266948558149,159.5266948558149,22.495191219702527,414.0489841000017,1007,28,female,True
58,147.0,25,M,up,0.5315425000007963,1.490456851288824,,psi_staircase_training,emotion,,153.1208070803471,153.1208070803471,23.19092239554965,416.5822208000027,1007,28,female,True
59,131.0,25,F,up,0.3168833999989147,1.3823416333681378,,psi_staircase_training,emotion,,144.11172588590583,144.11172588590583,29.605855662144407,418.84878970000136,1007,28,female,True
60,118.0,25,F,up,0.7813807999991695,0.5477219429570387,,psi_staircase_training,emotion,,133.85208613142927,133.85208613142927,34.35131506104172,420.1653824000023,1007,28,female,True
61,108.0,25,M,down,0.9183894999987388,0.6091335207467514,,psi_staircase_training,emotion,,123.68937544939742,123.68937544939742,37.32430622361097,421.9153370000022,1007,28,female,True
62,113.0,25,F,down,0.8791595000002417,1.423322703700368,,psi_staircase_training,emotion,,128.71838529850845,128.71838529850845,36.320703000281625,424.5985991000016,1007,28,female,True
63,117.0,25,F,down,1.2546047999967411,1.2270330016570548,,psi_staircase_training,emotion,,132.69658451350887,132.69658451350887,35.39782691370229,427.0651381000025,1007,28,female,True
64,116.0,25,F,down,0.8501090999998269,1.8236988644816048,,psi_staircase_training,emotion,,136.04160300639012,136.04160300639012,34.57763997832132,430.4816929000008,1007,28,female,True
65,161.0,25,M,up,0.8605451000003086,1.743732784228862,,psi_staircase_training,emotion,,138.60010578601015,138.60010578601015,33.7693054271839,433.448251400001,1007,28,female,True
66,113.0,25,M,down,0.5603236999995715,1.470549375924784,,psi_staircase_training,emotion,,136.37133374073255,136.37133374073255,32.791729958312764,436.1314597000018,1007,28,female,True
67,162.0,25,F,down,0.6836621000002197,0.9661549687097304,,psi_staircase_training,emotion,,138.23086388387156,138.23086388387156,31.874934448306043,437.9980810000016,1007,28,female,True
68,169.0,25,F,down,0.4877599000028567,1.8033058434337716,,psi_staircase_training,emotion,,143.99069059757682,143.99069059757682,35.291989541034454,440.8479726000005,1007,28,female,True
69,174.0,25,M,down,0.3668198999985179,1.782260261878447,,psi_staircase_training,emotion,,149.60780435851123,149.60780435851123,37.88479333270026,443.4812224000016,1007,28,female,True
70,178.0,25,M,down,0.4655684999997902,1.7179905594497742,,psi_staircase_training,emotion,,154.95955836328346,154.95955836328346,39.76996580872017,445.9811345000016,1007,28,female,True
71,180.0,25,M,down,0.7093448999985412,0.690597668480537,,psi_staircase_training,emotion,,159.9841230667555,159.9841230667555,41.15371120646028,447.5144157000032,1007,28,female,True
72,182.0,25,M,down,0.4250625999993644,0.8254599547500043,,psi_staircase_training,emotion,,164.55192619536012,164.55192619536012,42.13202723937452,449.3976650000004,1007,28,female,True
73,184.0,25,F,up,0.4167525999982899,0.9594616214093812,,psi_staircase_training,emotion,,168.69935593183925,168.69935593183925,42.8614388762658,451.147571700003,1007,28,female,True
74,183.0,25,F,up,0.6826067000001785,1.788178321782543,,psi_staircase_training,emotion,,166.5463837242869,166.5463837242869,42.538293554483445,453.7141600000032,1007,28,female,True
75,183.0,25,F,down,1.152339899999788,1.921861689061092,,psi_staircase_training,emotion,,164.52591455285105,164.52591455285105,42.21385711119093,456.6473796999999,1007,28,female,True
76,184.0,25,M,up,0.6701013999991119,1.0312888605494297,,psi_staircase_training,emotion,,168.1741163026186,168.1741163026186,42.85924729975392,459.1806303000012,1007,28,female,True
77,184.0,25,M,up,0.8095240000002377,1.2581514963710316,,psi_staircase_training,emotion,,166.30058452313483,166.30058452313483,42.57697183818895,461.44721460000073,1007,28,female,True
78,183.0,25,F,up,0.668990299996949,1.7950814929604446,,psi_staircase_training,emotion,,164.5724320669129,164.5724320669129,42.29220682924788,464.4137644000002,1007,28,female,True
79,182.0,25,F,up,1.0323473999997077,1.3986886084531158,,psi_staircase_training,emotion,,162.94790371672974,162.94790371672974,42.01208987735552,466.83034540000153,1007,28,female,True
80,143.0,25,M,up,0.8568607000015618,1.828550493216232,,psi_staircase_training,emotion,,161.4210066836649,161.4210066836649,41.7384193451171,470.0468734000024,1007,28,female,True
81,141.0,25,M,up,0.6842533000017283,0.965737880455642,,psi_staircase_training,emotion,,158.48599094758,158.48599094758,42.24224679279437,472.21349700000064,1007,28,female,True
82,0.29,25,up,up,0.6354490999983682,0.4391384769838546,,psi_staircase,cRDM,,0.25,0.2569312402994632,0.105,488.19625780000206,1007,28,female,True
83,0.25,25,up,up,0.4393229000015708,0.634146209263635,,psi_staircase,cRDM,,0.2191026665318312,0.2260132002683492,0.1046863203387393,489.72949920000246,1007,28,female,True
84,0.21,25,down,down,0.5056547000021965,0.9995405423214864,,psi_staircase,cRDM,,0.1900540959403307,0.1968497961554001,0.1029467298424999,491.4461007000027,1007,28,female,True
85,0.18,25,down,down,0.5304620000024443,1.9132477769058664,,psi_staircase,cRDM,,0.1635257589279754,0.1701521334256793,0.1003816477568649,494.1293173000013,1007,28,female,True
86,0.15,25,up,up,0.464463499996782,0.906577319581754,,psi_staircase,cRDM,,0.1401895574244936,0.1466013351187503,0.0971307628663642,495.829295800002,1007,28,female,True
87,0.13,25,down,down,0.5378596000009566,1.190454500665619,,psi_staircase,cRDM,,0.1198760602145479,0.1260554767618333,0.0936107694196103,497.7458611000002,1007,28,female,True
88,0.11,25,up,up,0.4003415000006498,0.8179596834196108,,psi_staircase,cRDM,,0.1025773523696548,0.1084910344569865,0.0895852101993795,499.3624184,1007,28,female,True
89,0.09,25,down,down,0.4003225000014936,0.931508143786122,,psi_staircase,cRDM,,0.087844325958594,0.0934818215320969,0.0854013148647635,500.9623877000013,1007,28,female,True
90,0.08,25,down,up,0.4002403000013146,0.8808709831477075,,psi_staircase,cRDM,,0.0751852092118086,0.0805556301471181,0.0813554535472043,502.5290249999998,1007,28,female,True
91,0.13,25,up,up,0.7354618999997911,1.6114771261103151,,psi_staircase,cRDM,,0.1145374077699418,0.1210371210567565,0.0984628819128368,504.8122689000011,1007,28,female,True
92,0.13,25,down,up,0.8256039999978384,1.9968807006863856,,psi_staircase,cRDM,,0.1023941484636293,0.108577482786431,0.0936701190325844,507.8121639000019,1007,28,female,True
93,0.19,25,down,up,0.5032836000027601,0.8876171793355669,,psi_staircase,cRDM,,0.1470631996750583,0.1550617429206966,0.121168363021125,509.7954295000018,1007,28,female,True
94,0.28,25,down,up,0.4169120000005932,0.9771728378487836,,psi_staircase,cRDM,,0.2085855782192347,0.2174988253500811,0.1350250327941079,511.52869420000206,1007,28,female,True
95,0.36,25,up,up,0.7454447999989497,1.4825166717873222,,psi_staircase,cRDM,,0.2883224764526272,0.2975149738571395,0.1392553404256565,513.6952810000003,1007,28,female,True
96,0.33,25,up,up,0.4881772999979148,1.1292700640286526,,psi_staircase,cRDM,,0.2692970679506188,0.278651377724678,0.141706604278642,515.8285343000025,1007,28,female,True
97,0.32,25,down,up,0.5606161999967298,1.627565353628348,,psi_staircase,cRDM,,0.2509606373043045,0.2604375828178602,0.1435643890459837,518.1951077000012,1007,28,female,True
98,0.38,25,down,up,0.4543572999973548,1.272577799475139,,psi_staircase,cRDM,,0.3189759737262725,0.3282454564940317,0.1404215765957619,520.2784240000001,1007,28,female,True
99,0.43,25,up,up,0.5087244000023929,0.7452386640665711,,psi_staircase,cRDM,,0.3775568771875373,0.3864159881061011,0.1342049339309782,521.7449677000004,1007,28,female,True
100,0.42,25,up,up,0.5662171000003582,0.9894816595258438,,psi_staircase,cRDM,,0.3655907472138961,0.3746638558153523,0.137446742861688,523.5115909000015,1007,28,female,True
101,0.38,25,up,up,0.4515783999995619,0.7455866853720686,,psi_staircase,cRDM,,0.3538992994199748,0.3631243449862507,0.1397484061451431,525.0781837000031,1007,28,female,True
102,0.37,25,up,up,0.4836003000018536,0.4906938096695175,,psi_staircase,cRDM,,0.3396513028829904,0.349283544968164,0.1459169463539648,526.2781630000027,1007,28,female,True
103,0.37,25,down,down,0.50200649999897,1.6103899361192917,,psi_staircase,cRDM,,0.3254525684502605,0.3354174587015198,0.1509561681858364,528.6446997000021,1007,28,female,True
104,0.36,25,down,down,0.4637065999995684,1.375584064617547,,psi_staircase,cRDM,,0.3120911284523036,0.3222723268589675,0.154232978011525,530.7780133000015,1007,28,female,True
105,0.36,25,down,down,0.4325647000005119,1.7154275159058887,,psi_staircase,cRDM,,0.2992615446949748,0.3095969130579978,0.156568468445893,533.2112121000027,1007,28,female,True
106,0.36,25,up,up,0.8088784999999916,0.4669444634501056,,psi_staircase,cRDM,,0.2875536882937559,0.2979632922036704,0.1576930481873012,534.3778665000027,1007,28,female,True
107,0.31,25,up,up,0.6306069000020216,0.8062582082622514,,psi_staircase,cRDM,,0.2770074679756379,0.2874304100962093,0.1578951061247651,536.2611193000012,1007,28,female,True
108,0.31,25,down,down,0.672328299999208,0.6290584465394164,,psi_staircase,cRDM,,0.2645474828175357,0.2751786399568335,0.1610493146100718,537.7944125000031,1007,28,female,True
109,0.3,25,down,up,0.4484123999973235,1.8718992308359117,,psi_staircase,cRDM,,0.2529352447722087,0.2637066133046564,0.1631733495078208,540.5942776000011,1007,28,female,True
110,0.36,25,up,down,0.5635893000035139,0.4510359906324977,,psi_staircase,cRDM,,0.2919310238646173,0.3023113747527782,0.1572498998976117,541.7611660000002,1007,28,female,True
111,0.39,25,up,up,0.675933200000145,1.3136298249365628,,psi_staircase,cRDM,,0.3287252608242055,0.3393043351807699,0.1602603227484806,543.9108145999999,1007,28,female,True
112,0.38,25,down,down,0.442678799998248,1.7911769167383351,,psi_staircase,cRDM,,0.3201343441221481,0.330736133032299,0.1606044210661748,546.6440382000001,1007,28,female,True
113,0.35,25,up,up,0.5448655000000144,1.905305319526156,,psi_staircase,cRDM,,0.3117717812910385,0.3223888545885421,0.160835961252736,549.2608748000021,1007,28,female,True
114,0.34,25,down,down,0.6648292999998375,0.3744324136744889,,psi_staircase,cRDM,,0.3026674207291436,0.3133888107077199,0.162416234196596,550.4439114000015,1007,28,female,True
115,0.35,25,up,up,0.4255537000026379,1.843632523199068,,psi_staircase,cRDM,,0.2937613689190891,0.3045777754612662,0.1638556214847347,553.2271637000013,1007,28,female,True
116,0.34,25,down,down,0.4356478000008792,1.019608711447625,,psi_staircase,cRDM,,0.2857809457352862,0.2966263383802743,0.164294726271708,554.9270716000028,1007,28,female,True
117,0.3,25,up,up,0.4168060000010882,0.7999520820150368,,psi_staircase,cRDM,,0.2779748897800228,0.2888529007351742,0.1647888546555431,556.4270042000026,1007,28,female,True
118,0.3,25,down,down,0.3672071000000869,1.280765192134162,,psi_staircase,cRDM,,0.2692838725120579,0.2802990918842246,0.1668673980567479,558.3936576000015,1007,28,female,True
119,0.3,25,up,up,0.3506144999992102,0.6567527000818417,,psi_staircase,cRDM,,0.2609865357180617,0.2721074026106305,0.1684678316246145,559.743573300002,1007,28,female,True
120,0.29,25,up,down,0.3837964999984251,0.5859490220670195,,psi_staircase,cRDM,,0.2530951050638861,0.2642969520403497,0.1696945830344041,561.010205300001,1007,28,female,True
121,0.35,25,down,down,0.5385776000002807,0.6100200097536168,,psi_staircase,cRDM,,0.2791156575223895,0.2900519970704886,0.1656724630711947,562.3101775000032,1007,28,female,True
122,0.29,25,down,down,0.4946772000002966,1.50470842260372,,psi_staircase,cRDM,,0.2730536126601829,0.2839652241877491,0.1652978631375927,564.6100581999999,1007,28,female,True
123,0.29,25,down,down,0.4936884000017016,0.8391290989406885,,psi_staircase,cRDM,,0.2655556739569657,0.2765920640112295,0.1671881085680203,566.2100084000012,1007,28,female,True
124,0.29,25,up,up,0.6331862999977602,1.9600178774568453,,psi_staircase,cRDM,,0.2583482652533784,0.2694850322515159,0.1687086992056813,568.9265691,1007,28,female,True
125,0.28,25,up,up,0.7642116999995778,1.9382177969100096,,psi_staircase,cRDM,,0.2514369797454364,0.2626549988547487,0.1699395715033856,571.7764824000005,1007,28,female,True
126,0.27,25,down,up,0.9189454000006664,0.4019383045979089,,psi_staircase,cRDM,,0.2445817447042137,0.2558826528983811,0.1711952419943457,573.2097470000008,1007,28,female,True
127,0.31,25,down,down,0.477044900002511,1.233864749283449,,psi_staircase,cRDM,,0.2659589660323852,0.2769953247899593,0.167187634460605,575.6096773999998,1007,28,female,True
128,0.28,25,down,down,0.5331259000013233,1.0630584343689418,,psi_staircase,cRDM,,0.2600756915474076,0.2711459447404013,0.1677010946156851,577.4095788000013,1007,28,female,True
129,0.27,25,up,up,0.7305452000000514,1.4276341791879512,,psi_staircase,cRDM,,0.2537618240250273,0.2649193220602527,0.1690227496209285,579.6261659000011,1007,28,female,True
130,0.27,25,up,up,0.6919906000002811,1.225490736618507,,psi_staircase,cRDM,,0.2474656491007214,0.2587140585541621,0.1703999488666892,581.8427546000021,1007,28,female,True
131,0.26,25,up,up,0.7110639000020456,1.763715624151858,,psi_staircase,cRDM,,0.2413639697774513,0.252691695190251,0.1716014907802384,584.5426696000031,1007,28,female,True
132,100.0,25,M,down,0.7393293999994057,0.3250513207879912,,psi_staircase,emotion,,100.0,100.0,25.00050000000001,591.9423544000019,1007,28,female,True
133,145.0,25,M,up,0.5074595000005502,1.2105930382659302,,psi_staircase,emotion,,145.25719053245996,145.25719053245996,25.00050000000028,594.2422861000014,1007,28,female,True
134,121.0,25,F,down,0.8434610000003886,0.3011544620523159,,psi_staircase,emotion,,120.36392901436103,120.36392901436103,25.71326925488699,595.3922869000016,1007,28,female,True
135,137.0,25,F,down,1.065257999998721,0.5579366066393586,,psi_staircase,emotion,,137.8359832966118,137.8359832966118,25.292325986285498,597.125519600002,1007,28,female,True
136,154.0,25,M,down,0.8253124999973807,0.8582705661394086,,psi_staircase,emotion,,150.04293000169994,150.04293000169994,27.054990449744093,599.4254241000017,1007,28,female,True
137,169.0,25,F,down,0.681663599996682,0.4846977605400911,,psi_staircase,emotion,,162.48778761572078,162.48778761572078,31.63374989369056,601.0920663000034,1007,28,female,True
138,176.0,25,M,up,0.4508334000020113,0.8107994523673867,,psi_staircase,emotion,,172.4668533112933,172.4668533112933,33.5517456397867,602.9419451000031,1007,28,female,True
139,168.0,25,F,up,0.4395014000001538,1.227876209969533,,psi_staircase,emotion,,166.60392579132397,166.60392579132397,33.43839139149625,604.9752298000021,1007,28,female,True
140,177.0,25,F,up,0.8256030999982613,0.9126664940611624,,psi_staircase,emotion,,160.82118258843684,160.82118258843684,33.01134822266731,606.6751564000006,1007,28,female,True
141,141.0,25,M,up,0.6184045000009064,0.8860620309214546,,psi_staircase,emotion,,157.19669514758908,157.19669514758908,31.810874785158184,608.7583203000031,1007,28,female,True
142,130.0,25,F,up,0.5337231999983487,0.9863111417470678,,psi_staircase,emotion,,149.81145684901782,149.81145684901782,34.322776846423764,610.7250179000002,1007,28,female,True
143,122.0,25,F,up,0.5127541000001656,1.7486272833888843,,psi_staircase,emotion,,142.35820677865155,142.35820677865155,36.73418088661545,613.3749297000031,1007,28,female,True
144,116.0,25,F,up,0.671550600000046,0.6607550639013858,,psi_staircase,emotion,,135.1694190776388,135.1694190776388,38.65830219990876,614.9081956000009,1007,28,female,True
145,111.0,25,M,up,0.494574600001215,1.162946542678671,,psi_staircase,emotion,,128.41634548807926,128.41634548807926,40.11674496311326,617.1081117000031,1007,28,female,True
146,106.0,25,M,down,0.5399557999990066,0.5651583467514729,,psi_staircase,emotion,,122.09596729213564,122.09596729213564,41.23584890786605,618.5247176000012,1007,28,female,True
147,108.0,25,F,down,0.416798899997957,0.814407973362014,,psi_staircase,emotion,,125.37680008497294,125.37680008497294,40.74279369879087,620.2246623000028,1007,28,female,True
148,111.0,25,F,down,0.4851639999978943,0.6504396174185512,,psi_staircase,emotion,,128.20038344424975,128.20038344424975,40.27635140280325,621.6245957000028,1007,28,female,True
149,113.0,25,M,down,0.4551847000002453,1.3703762638229935,,psi_staircase,emotion,,130.7534999437167,130.7534999437167,39.84660587045582,623.824539600002,1007,28,female,True
150,153.0,25,M,down,0.5586044999981823,0.756688282159279,,psi_staircase,emotion,,133.05444876133345,133.05444876133345,39.44816041291005,625.3911407000014,1007,28,female,True
151,157.0,25,M,down,0.3668408999983512,1.0521124855150945,,psi_staircase,emotion,,137.55194588145827,137.55194588145827,40.46511535318154,627.3743922000031,1007,28,female,True
152,161.0,25,M,down,0.4517462000003434,1.239279138145789,,psi_staircase,emotion,,141.80777937103298,141.80777937103298,41.32177122890079,629.391001,1007,28,female,True
153,164.0,25,F,down,0.4984609999992244,1.0969698232426457,,psi_staircase,emotion,,145.88983540295007,145.88983540295007,42.082013427240256,631.3242492999998,1007,28,female,True
154,167.0,25,F,down,0.4468563999980688,1.0610774540143266,,psi_staircase,emotion,,149.77439393564708,149.77439393564708,42.733215890187,633.2408325000033,1007,28,female,True
155,169.0,25,F,down,0.4836362000023655,1.132753659687851,,psi_staircase,emotion,,153.49290453381604,153.49290453381604,43.30192659117255,635.1741177000004,1007,28,female,True
156,172.0,25,M,down,1.0386647999985144,0.5044250726191271,,psi_staircase,emotion,,157.01103713581912,157.01103713581912,43.78015759703673,636.5240540000013,1007,28,female,True
157,174.0,25,M,down,0.4168662999982189,0.9386672797990564,,psi_staircase,emotion,,160.40531397945432,160.40531397945432,44.21096520045363,638.8572292999997,1007,28,female,True
158,176.0,25,F,down,0.447564300000522,1.0255833853747145,,psi_staircase,emotion,,163.6318355273741,163.6318355273741,44.58149376456343,640.6571361000024,1007,28,female,True
159,178.0,25,F,down,1.0035103000009258,0.8883934953518837,,psi_staircase,emotion,,166.70003024583104,166.70003024583104,44.90357564093052,642.3571902000003,1007,28,female,True
160,180.0,25,M,up,0.9289575000002516,1.3414792073404411,,psi_staircase,emotion,,169.61375542026363,169.61375542026363,45.185483041287135,645.0737626000009,1007,28,female,True
161,179.0,25,M,up,0.4350161000002117,1.405168862426106,,psi_staircase,emotion,,167.68372353004503,167.68372353004503,45.0121821673353,647.7736871000016,1007,28,female,True
162,178.0,25,F,up,0.795808599999873,0.6088304045373676,,psi_staircase,emotion,,165.85144779471526,165.85144779471526,44.83844521519478,649.156924400002,1007,28,female,True
163,177.0,25,M,up,0.6605081999987306,0.8791861628702953,,psi_staircase,emotion,,164.11768240935646,164.11768240935646,44.66601972071018,651.1902285000033,1007,28,female,True
164,175.0,25,F,up,0.7025806999990891,1.575320139641622,,psi_staircase,emotion,,162.47843369655368,162.47843369655368,44.49621211321041,653.7900933000019,1007,28,female,True
165,174.0,25,M,up,0.6953938999977254,1.0816913308053882,,psi_staircase,emotion,,160.897357586334,160.897357586334,44.334311725434425,655.9233251000005,1007,28,female,True
166,172.0,25,F,up,0.7591226000004099,0.4339834456624126,,psi_staircase,emotion,,159.39860374587633,159.39860374587633,44.1771192509493,657.4066103000005,1007,28,female,True
167,169.0,25,M,up,0.6071506000007503,0.7894560178673415,,psi_staircase,emotion,,157.94584437775504,157.94584437775504,44.03062167602937,659.3065442000006,1007,28,female,True
168,165.0,25,F,up,1.0719587999992657,1.4469757173597246,,psi_staircase,emotion,,156.50577446774523,156.50577446774523,43.90295561042942,661.7397620000011,1007,28,female,True
169,147.0,25,M,up,0.9414488000002166,1.6611813547689502,,psi_staircase,emotion,,155.04670655871303,155.04670655871303,43.805654838839686,664.8063192000009,1007,28,female,True
170,140.0,25,M,,,0.9922637763874148,,psi_staircase,emotion,,153.15255916766608,153.15255916766608,43.92475253850334,667.1062620000012,1007,28,female,True
171,140.0,25,F,up,1.0462127999999211,0.9922637763874148,,psi_staircase,emotion,,153.15255916766608,153.15255916766608,43.92475253850334,670.7894620000006,1007,28,female,True
172,136.0,25,F,up,1.4390512999998464,1.7306933792812216,,psi_staircase,emotion,,151.15267931928977,151.15267931928977,44.140343191582566,673.9226656999999,1007,28,female,True
173,134.0,25,F,up,0.7648005000010016,1.638482079192763,,psi_staircase,emotion,,149.1383524062566,149.1383524062566,44.39134409407425,677.355876200003,1007,28,female,True
174,132.0,25,F,up,0.7585594999982277,0.5988421696832014,,psi_staircase,emotion,,147.1670425997724,147.1670425997724,44.6371298074634,679.0891683000009,1007,28,female,True
175,131.0,25,M,up,0.6050050999983796,0.363978427290204,,psi_staircase,emotion,,145.23358037682675,145.23358037682675,44.87717218883997,680.5557131000023,1007,28,female,True
176,129.0,25,M,up,0.4603429999988293,0.9670111977092704,,psi_staircase,emotion,,143.3627563944113,143.3627563944113,45.09701370840618,682.472360300002,1007,28,female,True
177,127.0,25,F,up,0.4877865999987989,0.8299219085304896,,psi_staircase,emotion,,141.52070023355634,141.52070023355634,45.312427612295714,684.1389490000001,1007,28,female,True
178,126.0,25,F,up,0.9348682999989252,0.3603119131818771,,psi_staircase,emotion,,139.70441883309252,139.70441883309252,45.52262597335648,685.3558385000033,1007,28,female,True
179,125.0,25,F,up,0.8854113000015786,0.7067827913516185,,psi_staircase,emotion,,137.938944302889,137.938944302889,45.71580342238765,687.3554660000009,1007,28,female,True
180,123.0,25,M,up,0.4402939999999944,1.662289174195039,,psi_staircase,emotion,,136.22039814804418,136.22039814804418,45.89423327801895,690.2554014000016,1007,28,female,True
181,122.0,25,M,down,0.5690424999993411,0.9952621273789926,,psi_staircase,emotion,,134.51877156117013,134.51877156117013,46.06923268318391,692.0386548000024,1007,28,female,True
182,123.0,25,M,down,0.5734823999991931,1.7427622982323925,,psi_staircase,emotion,,135.60554563090153,135.60554563090153,45.963203805355136,694.7052388000011,1007,28,female,True
183,0.235260653229576,25,down,up,0.7290313000012247,1.2381586920151404,,experiment,cRDM,0.0,,,,701.3716760000025,1007,28,female,True
184,0.235260653229576,25,down,up,0.5075254000003042,1.3232326837885189,,experiment,cRDM,0.0,,,,703.6882423000025,1007,28,female,True
185,0.235260653229576,25,down,up,0.4588562999997521,0.8563653005566265,,experiment,cRDM,0.0,,,,705.304854500002,1007,28,female,True
186,0.235260653229576,25,up,down,0.5049530000032973,1.87139227958919,,experiment,cRDM,0.0,,,,707.9047464000032,1007,28,female,True
187,0.235260653229576,25,up,up,0.6010408000001917,1.787105984663355,,experiment,cRDM,0.0,,,,710.4546641000015,1007,28,female,True
188,0.235260653229576,25,up,up,0.6584847999984049,1.9061079648925052,,experiment,cRDM,0.0,,,,713.2212204000025,1007,28,female,True
189,0.235260653229576,25,up,up,0.6645376999986183,1.023296027159133,,experiment,cRDM,0.0,,,,715.171166600001,1007,28,female,True
190,0.235260653229576,25,up,up,0.5349296999993385,0.7355143648202437,,experiment,cRDM,0.0,,,,716.8377540000001,1007,28,female,True
191,0.235260653229576,25,down,up,0.7463492999995651,0.3636062253642021,,experiment,cRDM,0.0,,,,718.0043697000001,1007,28,female,True
192,0.235260653229576,25,down,up,0.6920543000014732,0.8330953059441681,,experiment,cRDM,0.0,,,,719.8376349000027,1007,28,female,True
193,0.235260653229576,25,up,up,0.6260932999975921,0.5521823986458692,,experiment,cRDM,0.0,,,,721.3375840000008,1007,28,female,True
194,0.235260653229576,25,down,up,0.6052359000022989,1.601995537777604,,experiment,cRDM,0.0,,,,723.8374840000033,1007,28,female,True
195,0.235260653229576,25,down,down,0.7013222999994468,1.93010319585986,,experiment,cRDM,0.0,,,,726.637381200002,1007,28,female,True
196,0.235260653229576,25,up,up,0.5654461999984051,1.6785267425537067,,experiment,cRDM,0.0,,,,729.2872877000009,1007,28,female,True
197,0.235260653229576,25,down,up,0.5441429999991669,0.7947805370352515,,experiment,cRDM,0.0,,,,730.9205400000028,1007,28,female,True
198,0.235260653229576,25,down,up,0.4995491999980004,1.2646941501996485,,experiment,cRDM,0.0,,,,732.9871424000012,1007,28,female,True
199,0.235260653229576,25,up,up,0.43262070000128,1.1404446635708725,,experiment,cRDM,0.0,,,,734.8870833000001,1007,28,female,True
200,0.235260653229576,25,up,up,0.3338624999996682,1.7387002701277836,,experiment,cRDM,0.0,,,,737.3203291000027,1007,28,female,True
201,0.235260653229576,25,down,up,0.3838849999992817,1.5526685771855682,,experiment,cRDM,0.0,,,,739.5534899000013,1007,28,female,True
202,0.235260653229576,25,up,up,0.4608240999987174,1.955279319621187,,experiment,cRDM,0.0,,,,742.186832000003,1007,28,female,True
203,0.235260653229576,25,down,up,0.4002992999994603,1.9619369835690696,,experiment,cRDM,0.0,,,,744.8700407000033,1007,28,female,True
204,0.235260653229576,25,down,up,0.5761305000014545,0.985717063072878,,experiment,cRDM,0.0,,,,746.5366350000004,1007,28,female,True
205,0.235260653229576,25,up,up,0.4861521999991964,1.7598399795889834,,experiment,cRDM,0.0,,,,749.1365291000002,1007,28,female,True
206,0.235260653229576,25,down,up,0.5932348999995156,1.04450661867609,,experiment,cRDM,0.0,,,,750.9364792000015,1007,28,female,True
207,0.235260653229576,25,up,up,0.5602398999981233,0.8399485256548211,,experiment,cRDM,0.0,,,,752.6364167000029,1007,28,female,True
208,0.235260653229576,25,up,up,0.510672299998987,0.9499851110110163,,experiment,cRDM,0.0,,,,754.4030187000026,1007,28,female,True
209,0.235260653229576,25,down,up,0.421105900000839,1.6405643590354386,,experiment,cRDM,0.0,,,,756.8195962000027,1007,28,female,True
210,0.235260653229576,25,up,up,0.6081481999972311,0.6065211445954987,,experiment,cRDM,0.0,,,,758.1195431000015,1007,28,female,True
211,0.235260653229576,25,down,up,0.6376035000030242,1.2786871746116015,,experiment,cRDM,0.0,,,,760.2530745000004,1007,28,female,True
212,0.235260653229576,25,up,up,0.6789141000008385,0.5974835960457119,,experiment,cRDM,0.0,,,,761.7527743000028,1007,28,female,True
213,0.235260653229576,25,up,up,0.4423745999993116,1.7422297894592529,,experiment,cRDM,0.0,,,,764.4193230000019,1007,28,female,True
214,0.235260653229576,25,down,up,0.4857986999995773,1.2562071679242797,,experiment,cRDM,0.0,,,,766.3859097000022,1007,28,female,True
215,0.235260653229576,25,down,down,1.1725003000028664,0.6397621586499147,,experiment,cRDM,0.0,,,,767.7691974000008,1007,28,female,True
216,0.235260653229576,25,down,down,0.5549336000003677,1.1837019427357869,,experiment,cRDM,0.0,,,,770.3857625000019,1007,28,female,True
217,0.235260653229576,25,down,down,0.3671665000001667,1.9240340631187656,,experiment,cRDM,0.0,,,,773.1356489999998,1007,28,female,True
218,0.235260653229576,25,up,down,0.5690639999993437,1.4190645674287516,,experiment,cRDM,0.0,,,,775.2355968000011,1007,28,female,True
219,0.235260653229576,25,up,up,0.5442251999993459,1.4661196428256194,,experiment,cRDM,0.0,,,,777.5354757000023,1007,28,female,True
220,0.235260653229576,25,up,up,0.598345700000209,1.5203903147747262,,experiment,cRDM,0.0,,,,779.8523544000018,1007,28,female,True
221,0.235260653229576,25,down,up,0.9103561000010814,0.822954321760023,,experiment,cRDM,0.0,,,,781.535338200003,1007,28,female,True
222,0.235260653229576,25,up,up,0.6898051999996824,1.4481412322933012,,experiment,cRDM,0.0,,,,784.1518888999999,1007,28,female,True
223,0.235260653229576,25,down,up,0.9815156999975444,1.8392293141350728,,experiment,cRDM,0.0,,,,786.9351376000013,1007,28,female,True
224,0.235260653229576,25,down,up,0.8186687999987043,1.0531928620489903,,experiment,cRDM,0.0,,,,789.2350471000027,1007,28,female,True
225,0.235260653229576,25,up,up,0.6990662999996857,0.534401978231114,,experiment,cRDM,0.0,,,,790.8516589999999,1007,28,female,True
226,0.235260653229576,25,down,down,0.6868218000017805,1.9165883911290544,,experiment,cRDM,0.0,,,,793.7348835000012,1007,28,female,True
227,0.235260653229576,25,up,up,0.5792344000001322,1.9291409589718156,,experiment,cRDM,0.0,,,,796.6014433000018,1007,28,female,True
228,0.235260653229576,25,up,up,0.9766026000033888,0.4264737413900231,,experiment,cRDM,0.0,,,,797.8680891000004,1007,28,female,True
229,0.235260653229576,25,up,up,0.6747082000001683,0.7231049792224562,,experiment,cRDM,0.0,,,,799.8179868000007,1007,28,female,True
230,0.235260653229576,25,up,up,0.7969823999992514,0.8906894505490737,,experiment,cRDM,0.0,,,,801.6346428000033,1007,28,female,True
231,0.235260653229576,25,down,down,0.5128295000031358,1.5692616936529735,,experiment,cRDM,0.0,,,,804.2678443000004,1007,28,female,True
232,0.235260653229576,25,down,down,0.7842643999974825,0.3276293087919314,,experiment,cRDM,0.0,,,,805.3844622000033,1007,28,female,True
233,0.235260653229576,25,down,down,0.457294499999989,1.208288827110068,,experiment,cRDM,0.0,,,,807.6343717000018,1007,28,female,True
234,0.235260653229576,25,down,down,0.4849960999999894,0.9505164352452116,,experiment,cRDM,0.0,,,,809.3176559000021,1007,28,female,True
235,0.235260653229576,25,up,down,0.317172600000049,1.8408062221793453,,experiment,cRDM,0.0,,,,811.9008859000023,1007,28,female,True
236,0.235260653229576,25,up,up,0.5338596999972651,1.806958024284549,,experiment,cRDM,0.0,,,,814.400823400003,1007,28,female,True
237,0.235260653229576,25,up,up,0.6927075999992667,1.1257542958548936,,experiment,cRDM,0.0,,,,816.3339661999998,1007,28,female,True
238,0.235260653229576,25,up,up,0.5223778999970818,1.726490520036122,,experiment,cRDM,0.0,,,,819.0172883000014,1007,28,female,True
239,0.235260653229576,25,down,up,0.5708052000009047,1.7918836441520078,,experiment,cRDM,0.0,,,,821.5838644000032,1007,28,female,True
240,0.235260653229576,25,down,up,0.8795441000002029,0.895356871931893,,experiment,cRDM,0.0,,,,823.3171200000033,1007,28,female,True
241,0.235260653229576,25,down,up,0.6815889999998035,1.814744082577349,,experiment,cRDM,0.0,,,,826.2670226000009,1007,28,female,True
242,0.235260653229576,25,up,up,0.8090288000021246,1.423896215513879,,experiment,cRDM,0.0,,,,828.633637400002,1007,28,female,True
243,0.235260653229576,25,up,up,0.6998550999996951,1.710530671912057,,experiment,cRDM,0.0,,,,831.4168156000014,1007,28,female,True
244,0.235260653229576,25,down,up,0.7052312999985588,1.4911201324886807,,experiment,cRDM,0.0,,,,833.8834170000009,1007,28,female,True
245,0.235260653229576,25,up,up,0.7270234999996319,1.3698586831575923,,experiment,cRDM,0.0,,,,836.2166398000008,1007,28,female,True
246,0.235260653229576,25,down,down,0.6427203999992344,0.4371773683847841,,experiment,cRDM,0.0,,,,837.6499672000027,1007,28,female,True
247,0.235260653229576,25,up,up,0.5778135000000475,1.5335811527608951,,experiment,cRDM,0.0,,,,840.0998510000027,1007,28,female,True
248,0.235260653229576,25,up,up,0.5531938999993145,1.0148206548712857,,experiment,cRDM,0.0,,,,841.9664564000013,1007,28,female,True
249,0.235260653229576,25,down,down,0.7543207000016992,1.646121915753552,,experiment,cRDM,0.0,,,,844.4163433000031,1007,28,female,True
250,0.235260653229576,25,up,up,0.7570313999967766,0.3349566457862317,,experiment,cRDM,0.0,,,,845.7496625000022,1007,28,female,True
251,0.235260653229576,25,down,down,0.6474753000002238,0.9483114002113764,,experiment,cRDM,0.0,,,,847.7162144000031,1007,28,female,True
252,0.235260653229576,25,down,down,0.6448982000001706,1.2162615546654096,,experiment,cRDM,0.0,,,,849.8328316000006,1007,28,female,True
253,0.235260653229576,25,down,down,0.670562900002551,1.730712271107652,,experiment,cRDM,0.0,,,,852.4660506,1007,28,female,True
254,0.235260653229576,25,down,down,0.5731236999999965,1.8341478693655404,,experiment,cRDM,0.0,,,,855.232536200001,1007,28,female,True
255,0.235260653229576,25,up,up,0.6181128999996872,1.501003448580161,,experiment,cRDM,0.0,,,,857.582541300002,1007,28,female,True
256,0.235260653229576,25,down,up,0.84739719999925,0.9193966032483384,,experiment,cRDM,0.0,,,,859.3824827000026,1007,28,female,True
257,0.235260653229576,25,down,down,1.053587200000038,0.4576127417776677,,experiment,cRDM,0.0,,,,860.9491073999998,1007,28,female,True
258,0.235260653229576,25,down,down,0.7080504000005021,1.8429392888868523,,experiment,cRDM,0.0,,,,864.1156090000004,1007,28,female,True
259,0.235260653229576,25,up,up,1.131465099999332,0.5514812397392548,,experiment,cRDM,0.0,,,,865.6321947000033,1007,28,female,True
260,0.235260653229576,25,up,up,1.3342442999964987,1.0955694981534343,,experiment,cRDM,0.0,,,,868.1154616000022,1007,28,female,True
261,0.235260653229576,25,up,up,0.9029536000016378,1.5760794766870296,,experiment,cRDM,0.0,,,,871.298704300003,1007,28,female,True
262,0.235260653229576,25,up,up,0.5050001000017801,1.082877270163195,,experiment,cRDM,0.0,,,,873.5486384000033,1007,28,female,True
263,154.0,25,M,down,0.5929209000023548,1.0272969506316976,,experiment,emotion,0.0,,,,888.3647311000022,1007,28,female,True
264,142.0,25,M,down,0.8515021999992314,1.6932232957149078,,experiment,emotion,0.0,,,,890.931158000003,1007,28,female,True
265,154.0,25,F,up,0.9217584000034548,0.3998059585974044,,experiment,emotion,0.0,,,,892.4478992000004,1007,28,female,True
266,118.0,25,F,down,0.7155015999996976,1.139716342008787,,experiment,emotion,0.0,,,,894.7811529000028,1007,28,female,True
267,130.0,25,M,up,0.930962600003113,1.8471651908880875,,experiment,emotion,0.0,,,,897.6477002000029,1007,28,female,True
268,142.0,25,F,up,0.8170315000024857,1.298888238842739,,experiment,emotion,0.0,,,,900.1476283000011,1007,28,female,True
269,130.0,25,M,up,0.6835258999999496,0.9940501774269216,,experiment,emotion,0.0,,,,902.2141907000004,1007,28,female,True
270,118.0,25,M,down,0.8315457999997307,0.9950689553456832,,experiment,emotion,0.0,,,,904.1641278000023,1007,28,female,True
271,118.0,25,F,up,0.8593043000000762,1.645468515993948,,experiment,emotion,0.0,,,,906.8973724000024,1007,28,female,True
272,154.0,25,F,up,0.7743523000026471,1.3589384388495285,,experiment,emotion,0.0,,,,909.3972743000012,1007,28,female,True
273,142.0,25,F,up,0.6937897000025259,1.2188404798049872,,experiment,emotion,0.0,,,,911.6638562000009,1007,28,female,True
274,130.0,25,F,up,0.6804437999999209,0.6119985010192164,,experiment,emotion,0.0,,,,913.247148800001,1007,28,female,True
275,154.0,25,F,up,0.6206638000003295,1.3934767043953349,,experiment,emotion,0.0,,,,915.5970444000012,1007,28,female,True
276,118.0,25,F,down,0.8406230000000505,0.7170953648917513,,experiment,emotion,0.0,,,,917.1969809000002,1007,28,female,True
277,130.0,25,M,up,1.1177151999982016,0.3443875745513283,,experiment,emotion,0.0,,,,918.6469311,1007,28,female,True
278,142.0,25,M,up,0.6311416999997164,0.8441986655987073,,experiment,emotion,0.0,,,,920.8635279000008,1007,28,female,True
279,118.0,25,M,down,1.0402259000002232,1.9031875124150253,,experiment,emotion,0.0,,,,923.6634224000009,1007,28,female,True
280,142.0,25,M,up,0.8529358000014327,0.4579393811006633,,experiment,emotion,0.0,,,,925.4467106000012,1007,28,female,True
281,142.0,25,F,down,0.8433133999969868,0.3875606113808347,,experiment,emotion,0.0,,,,926.963330900002,1007,28,female,True
282,154.0,25,M,up,0.8354293000011239,0.8225927714867629,,experiment,emotion,0.0,,,,928.9132140000002,1007,28,female,True
283,118.0,25,M,down,0.7125543000001926,1.5974895321825175,,experiment,emotion,0.0,,,,931.6131019000022,1007,28,female,True
284,130.0,25,F,up,0.8049309999987599,1.0535825370718894,,experiment,emotion,0.0,,,,933.679719900003,1007,28,female,True
285,154.0,25,M,up,0.9726921000001312,1.0514274342557803,,experiment,emotion,0.0,,,,935.8129534,1007,28,female,True
286,130.0,25,F,up,0.7253815000003669,0.8806993358940542,,experiment,emotion,0.0,,,,937.9462402000026,1007,28,female,True
287,130.0,25,F,,,0.3239779147649811,,experiment,emotion,0.0,,,,939.2628418000022,1007,28,female,True
288,142.0,25,M,up,0.8723166999989189,1.920780973250787,,experiment,emotion,0.0,,,,943.879330300002,1007,28,female,True
289,154.0,25,M,up,0.6590611999999965,1.2445807184948288,,experiment,emotion,0.0,,,,946.2625784000012,1007,28,female,True
290,118.0,25,F,down,0.7234588999999687,1.2214905649522851,,experiment,emotion,0.0,,,,948.4291983000004,1007,28,female,True
291,142.0,25,M,up,1.0098404999989723,1.4224019258785952,,experiment,emotion,0.0,,,,950.845771100001,1007,28,female,True
292,118.0,25,F,down,0.8859929999998712,1.5601261070387646,,experiment,emotion,0.0,,,,953.695653900002,1007,28,female,True
293,130.0,25,F,up,0.9874846000020624,1.647584693774042,,experiment,emotion,0.0,,,,956.512183900002,1007,28,female,True
294,154.0,25,F,up,0.8065206000028411,1.2792818721864587,,experiment,emotion,0.0,,,,959.062116000001,1007,28,female,True
295,142.0,25,M,up,1.2999304000004486,0.3389096397305421,,experiment,emotion,0.0,,,,960.4787182,1007,28,female,True
296,118.0,25,M,down,0.8357278000003134,0.8059423195979332,,experiment,emotion,0.0,,,,962.861965,1007,28,female,True
297,130.0,25,M,down,1.3777781999997387,1.3419742617853287,,experiment,emotion,0.0,,,,965.311857800003,1007,28,female,True
298,130.0,25,F,down,0.7644919999984268,0.4843801358195233,,experiment,emotion,0.0,,,,967.4451445000012,1007,28,female,True
299,154.0,25,F,down,0.7185777999984566,0.9510612982627143,,experiment,emotion,0.0,,,,969.4450591000024,1007,28,female,True
300,142.0,25,M,down,0.7719584000005852,0.4336705608835686,,experiment,emotion,0.0,,,,970.8616739000026,1007,28,female,True
301,154.0,25,F,down,0.6653363000004902,0.3365086522439894,,experiment,emotion,0.0,,,,972.2283025000032,1007,28,female,True
302,118.0,25,M,down,0.8461160000006203,1.4304581165098245,,experiment,emotion,0.0,,,,974.6115129999998,1007,28,female,True
303,130.0,25,M,down,0.6204771000011533,0.5056706386992662,,experiment,emotion,0.0,,,,976.2281452000024,1007,28,female,True
304,118.0,25,M,down,0.5889007999976457,1.268835366873594,,experiment,emotion,0.0,,,,978.3947413000024,1007,28,female,True
305,118.0,25,F,down,0.5303376000010758,1.2162581048440164,,experiment,emotion,0.0,,,,980.4613212000004,1007,28,female,True
306,154.0,25,F,down,0.4740775999998732,1.1290239207743376,,experiment,emotion,0.0,,,,982.3945614000004,1007,28,female,True
307,142.0,25,M,up,1.002788199999486,0.6459006133130134,,experiment,emotion,0.0,,,,983.7778521,1007,28,female,True
308,130.0,25,F,down,0.9691725000011502,1.3827336096648388,,experiment,emotion,0.0,,,,986.4444421000009,1007,28,female,True
309,142.0,25,F,up,1.4339195000029576,0.5451603358813788,,experiment,emotion,0.0,,,,988.2277160000012,1007,28,female,True
310,154.0,25,M,up,1.0977156000008108,0.5744335779173387,,experiment,emotion,0.0,,,,990.5109213000032,1007,28,female,True
311,130.0,25,M,,,1.5288113254216484,,experiment,emotion,0.0,,,,993.4108228000003,1007,28,female,True
312,154.0,25,F,,,1.1929725616477065,,experiment,emotion,0.0,,,,997.2773690000032,1007,28,female,True
313,142.0,25,M,down,0.7721011000030558,1.621389604579194,,experiment,emotion,0.0,,,,1001.6105317,1007,28,female,True
314,118.0,25,F,down,0.9742151999998896,1.8272697457942275,,experiment,emotion,0.0,,,,1004.5104200000025,1007,28,female,True
315,142.0,25,F,down,0.5659460999995645,0.9336254947182006,,experiment,emotion,0.0,,,,1006.6936681000008,1007,28,female,True
316,130.0,25,F,down,0.6336937999985821,0.5808215473412042,,experiment,emotion,0.0,,,,1008.1269363000029,1007,28,female,True
317,154.0,25,M,down,0.5307901000014681,1.7617863560300282,,experiment,emotion,0.0,,,,1010.7768399000016,1007,28,female,True
318,118.0,25,M,down,0.862875200000417,0.8608941321421879,,experiment,emotion,0.0,,,,1012.4267818000008,1007,28,female,True
319,142.0,25,F,down,0.3501528999986476,1.7924148953803714,,experiment,emotion,0.0,,,,1015.3433833000016,1007,28,female,True
320,142.0,25,F,down,0.6099685999979556,0.3938172209485602,,experiment,emotion,0.0,,,,1016.4266915000009,1007,28,female,True
321,118.0,25,M,down,0.6093722000005073,0.7891858173943123,,experiment,emotion,0.0,,,,1018.0932630000024,1007,28,female,True
322,154.0,25,M,down,0.4928607000001648,1.1493544897871324,,experiment,emotion,0.0,,,,1020.1267663,1007,28,female,True
323,154.0,25,M,down,0.5691966999984288,0.3807465612940934,,experiment,emotion,0.0,,,,1021.276463000002,1007,28,female,True
324,130.0,25,M,down,0.695935499999905,1.8384239059551128,,experiment,emotion,0.0,,,,1023.9596988000012,1007,28,female,True
325,130.0,25,M,down,0.3668195999998715,1.6071178129248451,,experiment,emotion,0.0,,,,1026.5429334,1007,28,female,True
326,118.0,25,F,down,0.4605554999980086,0.8968297305961037,,experiment,emotion,0.0,,,,1028.1261021000028,1007,28,female,True
327,130.0,25,F,down,0.4171722999999474,1.8581914524904843,,experiment,emotion,0.0,,,,1030.7094467000024,1007,28,female,True
328,154.0,25,M,down,0.5777052999983425,1.0259846030529471,,experiment,emotion,0.0,,,,1032.4259210000018,1007,28,female,True
329,142.0,25,F,down,0.4586882000003243,1.3280797956969446,,experiment,emotion,0.0,,,,1034.6259335000032,1007,28,female,True
330,118.0,25,F,down,0.4168231000003288,1.6102396772815122,,experiment,emotion,0.0,,,,1036.9592127000033,1007,28,female,True
331,118.0,25,F,down,0.5728533000001335,1.1065304833223677,,experiment,emotion,0.0,,,,1038.775823,1007,28,female,True
332,142.0,25,M,down,0.4639368999996804,1.6247256720061884,,experiment,emotion,0.0,,,,1041.225724400003,1007,28,female,True
333,130.0,25,F,down,0.6273380999991787,0.4775786629959141,,experiment,emotion,0.0,,,,1042.4422897000004,1007,28,female,True
334,154.0,25,F,down,0.3334971000003861,1.91533703404478,,experiment,emotion,0.0,,,,1045.2755778000028,1007,28,female,True
335,118.0,25,F,down,0.552798900000198,0.8824487988870582,,experiment,emotion,0.0,,,,1046.858844100003,1007,28,female,True
336,130.0,25,M,down,0.5105072000005748,1.1441040488416103,,experiment,emotion,0.0,,,,1048.8421372000012,1007,28,female,True
337,118.0,25,M,down,0.5892619000005652,0.8911311020552255,,experiment,emotion,0.0,,,,1050.5253577000003,1007,28,female,True
338,142.0,25,F,down,0.519585799997003,0.3683281479245779,,experiment,emotion,0.0,,,,1051.7420375000002,1007,28,female,True
339,154.0,25,M,down,0.681865899998229,1.9110347397045424,,experiment,emotion,0.0,,,,1054.4419100000014,1007,28,female,True
340,130.0,25,F,down,0.6787695000020904,0.3932746976312998,,experiment,emotion,0.0,,,,1055.791849600002,1007,28,female,True
341,154.0,25,M,down,0.5855712999982643,1.6730356077601685,,experiment,emotion,0.0,,,,1058.4250839000017,1007,28,female,True
342,142.0,25,M,down,0.9000484999996843,0.3587708370147444,,experiment,emotion,0.0,,,,1059.6416215999998,1007,28,female,True
343,0.235260653229576,25,up,up,0.6858463999997184,0.9963810968976003,,experiment,cRDM,1.0,,,,1067.1247842000012,1007,28,female,True
344,0.235260653229576,25,up,up,0.7639307000026747,1.7602626855393029,,experiment,cRDM,1.0,,,,1069.8246696000024,1007,28,female,True
345,0.235260653229576,25,down,down,0.5956901999998081,0.4038852794562026,,experiment,cRDM,1.0,,,,1071.2579719000023,1007,28,female,True
346,0.235260653229576,25,down,up,0.6420958999988216,0.9154411540603472,,experiment,cRDM,1.0,,,,1073.0245746,1007,28,female,True
347,0.235260653229576,25,up,up,0.7028205999995407,0.3337807107726189,,experiment,cRDM,1.0,,,,1074.2578318000014,1007,28,female,True
348,0.235260653229576,25,down,down,0.4167754000009154,0.5348427687531077,,experiment,cRDM,1.0,,,,1075.7578151000016,1007,28,female,True
349,0.235260653229576,25,up,up,0.5615002000013192,1.7360113739155976,,experiment,cRDM,1.0,,,,1078.1741438000026,1007,28,female,True
350,0.235260653229576,25,up,up,0.8651004000021203,1.959829155503408,,experiment,cRDM,1.0,,,,1080.9575901000026,1007,28,female,True
351,0.235260653229576,25,down,down,0.6637874000007287,1.3105679594538004,,experiment,cRDM,1.0,,,,1083.3908201000013,1007,28,female,True
352,0.235260653229576,25,down,up,0.5075552000016614,1.5463429943381948,,experiment,cRDM,1.0,,,,1085.8740898000033,1007,28,female,True
353,0.235260653229576,25,down,down,0.5983009000010497,1.6130992308480925,,experiment,cRDM,1.0,,,,1088.2573182000017,1007,28,female,True
354,0.235260653229576,25,down,up,0.5784267999988515,1.2894912477067226,,experiment,cRDM,1.0,,,,1090.4072115000015,1007,28,female,True
355,0.235260653229576,25,down,down,0.612452299999859,1.804196214796228,,experiment,cRDM,1.0,,,,1093.0571451000033,1007,28,female,True
356,0.235260653229576,25,down,down,0.774219599999924,1.7947669871591303,,experiment,cRDM,1.0,,,,1095.7403992,1007,28,female,True
357,0.235260653229576,25,up,up,0.6336243000005197,0.9758721645927464,,experiment,cRDM,1.0,,,,1097.756988600002,1007,28,female,True
358,0.235260653229576,25,up,up,0.7693820999993477,1.5512360878191336,,experiment,cRDM,1.0,,,,1100.1902106000016,1007,28,female,True
359,0.235260653229576,25,up,up,0.5880959999994957,0.3407753804082287,,experiment,cRDM,1.0,,,,1101.573498400001,1007,28,female,True
360,0.235260653229576,25,up,up,0.5762403000007907,0.5003862633578127,,experiment,cRDM,1.0,,,,1102.923372900001,1007,28,female,True
361,0.235260653229576,25,down,down,0.6142196000000695,0.8148951888879266,,experiment,cRDM,1.0,,,,1104.573372400002,1007,28,female,True
362,0.235260653229576,25,up,up,0.4003122000030998,1.5213094935206442,,experiment,cRDM,1.0,,,,1106.973294000003,1007,28,female,True
363,0.235260653229576,25,up,up,0.6270585000020219,1.2055281452987692,,experiment,cRDM,1.0,,,,1108.8565505000006,1007,28,female,True
364,0.235260653229576,25,down,down,0.5254596999984642,1.9727145505222896,,experiment,cRDM,1.0,,,,1111.7231489000003,1007,28,female,True
365,0.235260653229576,25,up,up,0.5222582999995211,0.6407064077589981,,experiment,cRDM,1.0,,,,1113.1563714000004,1007,28,female,True
366,0.235260653229576,25,down,down,0.3505138999971677,1.4446807829739778,,experiment,cRDM,1.0,,,,1115.3896443000012,1007,28,female,True
367,0.235260653229576,25,down,up,0.4167947000023559,1.2838479764021085,,experiment,cRDM,1.0,,,,1117.339601900003,1007,28,female,True
368,0.235260653229576,25,up,up,0.7404299000008905,0.3867358166110587,,experiment,cRDM,1.0,,,,1118.406185300002,1007,28,female,True
369,0.235260653229576,25,up,up,0.4832075000012992,0.4766387472316301,,experiment,cRDM,1.0,,,,1119.8894799000009,1007,28,female,True
370,0.235260653229576,25,down,down,0.6338305999997829,1.4282972871586896,,experiment,cRDM,1.0,,,,1122.072819000001,1007,28,female,True
371,0.235260653229576,25,up,up,0.482944999999745,0.7023459990870654,,experiment,cRDM,1.0,,,,1123.672676500002,1007,28,female,True
372,0.235260653229576,25,down,down,0.4168391999992309,1.8721753982083515,,experiment,cRDM,1.0,,,,1126.2892407,1007,28,female,True
373,0.235260653229576,25,down,down,0.7811139000004914,1.7008042103377423,,experiment,cRDM,1.0,,,,1128.6724919000008,1007,28,female,True
374,0.235260653229576,25,down,down,0.4167810000035388,0.986202131913859,,experiment,cRDM,1.0,,,,1130.7057538000008,1007,28,female,True
375,0.235260653229576,25,up,down,0.8162083999995957,0.5301123660598066,,experiment,cRDM,1.0,,,,1131.922348,1007,28,female,True
376,0.235260653229576,25,up,down,0.4940051999983552,1.4648400331384102,,experiment,cRDM,1.0,,,,1134.4556260999998,1007,28,female,True
377,0.235260653229576,25,up,down,0.552447399997618,0.5676322507429434,,experiment,cRDM,1.0,,,,1135.7722178000004,1007,28,female,True
378,0.235260653229576,25,down,down,0.4950954999985697,1.3601796888215028,,experiment,cRDM,1.0,,,,1137.9555048000002,1007,28,female,True
379,0.235260653229576,25,down,down,0.4822937000026286,1.84034699476366,,experiment,cRDM,1.0,,,,1140.5554074000029,1007,28,female,True
380,0.235260653229576,25,up,down,0.5143599000002723,1.8038933928097447,,experiment,cRDM,1.0,,,,1143.105263100002,1007,28,female,True
381,0.235260653229576,25,down,down,0.4862063000000489,0.5538669224629541,,experiment,cRDM,1.0,,,,1144.4384396000023,1007,28,female,True
382,0.235260653229576,25,up,down,0.4901456000006874,1.6386590341363825,,experiment,cRDM,1.0,,,,1146.8385055,1007,28,female,True
383,0.235260653229576,25,up,down,0.3671509999985574,1.577357749765039,,experiment,cRDM,1.0,,,,1149.1550490000009,1007,28,female,True
384,0.235260653229576,25,up,down,0.5466511999984505,1.867171991105438,,experiment,cRDM,1.0,,,,1151.7049466000026,1007,28,female,True
385,0.235260653229576,25,down,down,0.5844031999986328,1.7705958932990091,,experiment,cRDM,1.0,,,,1154.288193700002,1007,28,female,True
386,0.235260653229576,25,down,down,0.4752014000005147,1.188247737811415,,experiment,cRDM,1.0,,,,1156.3213970000031,1007,28,female,True
387,0.235260653229576,25,up,up,0.6055578000014066,0.6795810082724655,,experiment,cRDM,1.0,,,,1157.7381029000026,1007,28,female,True
388,0.235260653229576,25,down,down,0.575297799998225,1.014014874903541,,experiment,cRDM,1.0,,,,1159.6213290000014,1007,28,female,True
389,0.235260653229576,25,down,down,0.5766710999996576,1.7311661959296094,,experiment,cRDM,1.0,,,,1162.1879295,1007,28,female,True
390,0.235260653229576,25,up,up,0.6035168000016711,0.7856289792624807,,experiment,cRDM,1.0,,,,1163.821076600001,1007,28,female,True
391,0.235260653229576,25,up,up,0.9048347999996622,1.3603966300304462,,experiment,cRDM,1.0,,,,1166.0377960000003,1007,28,female,True
392,0.235260653229576,25,down,down,0.4785229999979492,0.7206608855281058,,experiment,cRDM,1.0,,,,1167.9210724000004,1007,28,female,True
393,0.235260653229576,25,up,up,0.4229478999986895,0.8226414762988876,,experiment,cRDM,1.0,,,,1169.487638300001,1007,28,female,True
394,0.235260653229576,25,down,down,0.5646875999991607,0.5510071380709608,,experiment,cRDM,1.0,,,,1170.720949800001,1007,28,female,True
395,0.235260653229576,25,down,up,0.8274191000018618,0.9004252443269529,,experiment,cRDM,1.0,,,,1172.4542118999998,1007,28,female,True
396,0.235260653229576,25,down,down,0.6157816999984789,1.827923918521284,,experiment,cRDM,1.0,,,,1175.3708004,1007,28,female,True
397,0.235260653229576,25,up,up,0.5208591000009619,0.927659740501033,,experiment,cRDM,1.0,,,,1177.1707427,1007,28,female,True
398,0.235260653229576,25,up,up,0.8529597000015201,0.7653211719802631,,experiment,cRDM,1.0,,,,1178.720636500002,1007,28,female,True
399,0.235260653229576,25,down,down,0.6320255999999063,1.6336257860872412,,experiment,cRDM,1.0,,,,1181.470556100001,1007,28,female,True
400,0.235260653229576,25,down,down,0.5191118000002461,1.2356533221067485,,experiment,cRDM,1.0,,,,1183.6037926000026,1007,28,female,True
401,0.235260653229576,25,up,up,0.6182261000030849,0.8318202579034224,,experiment,cRDM,1.0,,,,1185.2203122000028,1007,28,female,True
402,0.235260653229576,25,up,up,0.63993919999848,1.272468271025017,,experiment,cRDM,1.0,,,,1187.3536536000029,1007,28,female,True
403,0.235260653229576,25,up,up,0.5806250999994518,0.8797395562181645,,experiment,cRDM,1.0,,,,1189.136939400003,1007,28,female,True
404,0.235260653229576,25,up,up,0.5124116000006325,0.640671264466725,,experiment,cRDM,1.0,,,,1190.6201940000028,1007,28,female,True
405,0.235260653229576,25,up,up,0.3671964000022854,1.61095746749926,,experiment,cRDM,1.0,,,,1193.0200802,1007,28,female,True
406,0.235260653229576,25,down,up,0.5668975999979011,1.2985339041543869,,experiment,cRDM,1.0,,,,1194.9866976000012,1007,28,female,True
407,0.235260653229576,25,down,down,0.6942888999983552,1.629249873534377,,experiment,cRDM,1.0,,,,1197.4533064000025,1007,28,female,True
408,0.235260653229576,25,up,up,0.5050837999988289,1.9316210600033636,,experiment,cRDM,1.0,,,,1200.3365306000014,1007,28,female,True
409,0.235260653229576,25,down,down,0.6938528000027873,1.3250208944341766,,experiment,cRDM,1.0,,,,1202.4197397000023,1007,28,female,True
410,0.235260653229576,25,down,down,0.7371922999991511,0.3652713326396792,,experiment,cRDM,1.0,,,,1203.7364009000012,1007,28,female,True
411,0.235260653229576,25,down,down,0.5146768000013253,1.7851786380690624,,experiment,cRDM,1.0,,,,1206.502935800003,1007,28,female,True
412,0.235260653229576,25,up,up,0.5723987000019406,1.2037823104643255,,experiment,cRDM,1.0,,,,1208.4861886,1007,28,female,True
413,0.235260653229576,25,down,down,0.5241337000006752,1.1591269037725416,,experiment,cRDM,1.0,,,,1210.4694559000018,1007,28,female,True
414,0.235260653229576,25,down,down,0.4339044000007561,1.2416524178709996,,experiment,cRDM,1.0,,,,1212.5026885000009,1007,28,female,True
415,0.235260653229576,25,down,down,0.4169856000007712,1.096953656286174,,experiment,cRDM,1.0,,,,1214.3026296000023,1007,28,female,True
416,0.235260653229576,25,up,up,0.6440263999975286,0.8359787227667548,,experiment,cRDM,1.0,,,,1215.802588100003,1007,28,female,True
417,0.235260653229576,25,up,down,0.5152368999988539,1.3998478450383165,,experiment,cRDM,1.0,,,,1218.1024585000014,1007,28,female,True
418,0.235260653229576,25,down,down,0.6389125999994576,1.414774744669897,,experiment,cRDM,1.0,,,,1220.285761500003,1007,28,female,True
419,0.235260653229576,25,up,up,0.5879628000002413,1.3921046101955354,,experiment,cRDM,1.0,,,,1222.585624700001,1007,28,female,True
420,0.235260653229576,25,down,down,0.6256319999993138,0.7790645192160379,,experiment,cRDM,1.0,,,,1224.2189730000027,1007,28,female,True
421,0.235260653229576,25,up,up,0.4910108000003674,1.0756536180363068,,experiment,cRDM,1.0,,,,1226.185560500002,1007,28,female,True
422,0.235260653229576,25,up,up,0.5161251999998058,1.1093766098121365,,experiment,cRDM,1.0,,,,1228.0355003000004,1007,28,female,True
423,154.0,25,M,up,0.7957925000009709,1.7993645734899115,,experiment,emotion,1.0,,,,1236.5018073000028,1007,28,female,True
424,142.0,25,M,down,0.7611947000004875,1.5895907127436897,,experiment,emotion,1.0,,,,1239.1683900000023,1007,28,female,True
425,154.0,25,F,down,0.5515868000002229,0.7195674110570833,,experiment,emotion,1.0,,,,1240.934988800003,1007,28,female,True
426,118.0,25,F,down,0.8569835999987845,0.7938428686559823,,experiment,emotion,1.0,,,,1242.5516026000005,1007,28,female,True
427,130.0,25,M,down,0.5617203000001609,0.4409199018294447,,experiment,emotion,1.0,,,,1244.1348682000023,1007,28,female,True
428,142.0,25,F,down,1.303522599999269,1.4018847287245662,,experiment,emotion,1.0,,,,1246.368132800002,1007,28,female,True
429,130.0,25,M,down,0.4402617000014288,1.949359889254056,,experiment,emotion,1.0,,,,1249.9013212000027,1007,28,female,True
430,118.0,25,M,down,0.532189900000958,1.167543054379138,,experiment,emotion,1.0,,,,1251.784571,1007,28,female,True
431,118.0,25,F,down,0.6734168000002683,1.7755272236892128,,experiment,emotion,1.0,,,,1254.351157700003,1007,28,female,True
432,154.0,25,F,down,0.6654875000022002,1.0408814115424367,,experiment,emotion,1.0,,,,1256.3510902000016,1007,28,female,True
433,142.0,25,F,down,0.4909441999989212,1.8697249763682864,,experiment,emotion,1.0,,,,1259.1676493000014,1007,28,female,True
434,130.0,25,F,down,0.6076871000004758,0.5111298427885133,,experiment,emotion,1.0,,,,1260.4509509000018,1007,28,female,True
435,154.0,25,F,up,0.6907690000007278,1.8792724500876703,,experiment,emotion,1.0,,,,1263.2008080000014,1007,28,female,True
436,118.0,25,F,down,0.7478588000012678,1.676626591347587,,experiment,emotion,1.0,,,,1265.850741000002,1007,28,female,True
437,130.0,25,M,down,0.7159241999979713,0.5362937976906358,,experiment,emotion,1.0,,,,1267.4006714000025,1007,28,female,True
438,142.0,25,M,down,0.8566003999985696,0.7888473316262399,,experiment,emotion,1.0,,,,1269.1839314000026,1007,28,female,True
439,118.0,25,M,down,0.5157507000003534,1.7467789830372102,,experiment,emotion,1.0,,,,1272.0838436000013,1007,28,female,True
440,142.0,25,M,up,1.0318914000017685,1.8100095433207204,,experiment,emotion,1.0,,,,1274.6837431000022,1007,28,female,True
441,142.0,25,F,up,0.8339067000015348,0.7003429670503603,,experiment,emotion,1.0,,,,1276.6836710000025,1007,28,female,True
442,154.0,25,M,up,0.5583202999987407,0.4986614717639849,,experiment,emotion,1.0,,,,1278.300259300002,1007,28,female,True
443,118.0,25,M,up,0.9680474000015238,1.7134843902025705,,experiment,emotion,1.0,,,,1280.8335257,1007,28,female,True
444,130.0,25,F,down,0.8354868999995233,0.5671965072064642,,experiment,emotion,1.0,,,,1282.650105800003,1007,28,female,True
445,154.0,25,M,up,0.6246071999994456,1.0953761515071403,,experiment,emotion,1.0,,,,1284.850034500003,1007,28,female,True
446,130.0,25,F,down,0.6650145999992674,1.8291696138910611,,experiment,emotion,1.0,,,,1287.5665933000018,1007,28,female,True
447,130.0,25,F,down,0.6417282999973395,0.5419384987052406,,experiment,emotion,1.0,,,,1289.0498773,1007,28,female,True
448,142.0,25,M,down,0.7004197999995085,0.9079865291665272,,experiment,emotion,1.0,,,,1290.8831488000033,1007,28,female,True
449,154.0,25,M,down,0.4002018999999563,0.6361539366819813,,experiment,emotion,1.0,,,,1292.483074300002,1007,28,female,True
450,118.0,25,F,down,0.5183466999988013,1.2335773450323289,,experiment,emotion,1.0,,,,1294.4162012000015,1007,28,female,True
451,142.0,25,M,down,0.5423652999998012,1.2565186747740775,,experiment,emotion,1.0,,,,1296.4662798999998,1007,28,female,True
452,118.0,25,F,down,0.5393752000018139,1.743119462420778,,experiment,emotion,1.0,,,,1299.0161953000024,1007,28,female,True
453,130.0,25,F,down,0.4508263000025181,1.1254716108823912,,experiment,emotion,1.0,,,,1300.9827626000006,1007,28,female,True
454,154.0,25,F,down,0.6048981999992975,1.9781743548151285,,experiment,emotion,1.0,,,,1303.6826652000018,1007,28,female,True
455,142.0,25,M,down,0.5600020999991102,1.077899033396322,,experiment,emotion,1.0,,,,1305.6325942000003,1007,28,female,True
456,118.0,25,M,down,0.6427576999994926,1.4448997390424376,,experiment,emotion,1.0,,,,1307.9158689000033,1007,28,female,True
457,130.0,25,M,down,0.465990699998656,1.043581587628885,,experiment,emotion,1.0,,,,1309.8657652000002,1007,28,female,True
458,130.0,25,F,down,0.536503300001641,0.7841080029949035,,experiment,emotion,1.0,,,,1311.3990405000004,1007,28,female,True
459,154.0,25,F,down,0.4689126999983273,0.9247651515417749,,experiment,emotion,1.0,,,,1313.1156531000015,1007,28,female,True
460,142.0,25,M,down,0.4169099999999162,1.6575909311956838,,experiment,emotion,1.0,,,,1315.5154592,1007,28,female,True
461,154.0,25,F,down,0.4697793000013917,0.8885188217563478,,experiment,emotion,1.0,,,,1317.0988232000018,1007,28,female,True
462,118.0,25,M,down,0.9801384000020334,0.8272748213053831,,experiment,emotion,1.0,,,,1318.6654436999995,1007,28,female,True
463,130.0,25,M,down,0.7155727999997907,1.309621790131517,,experiment,emotion,1.0,,,,1321.2320177,1007,28,female,True
464,118.0,25,M,down,0.583988499998668,1.4769230321307276,,experiment,emotion,1.0,,,,1323.6985669000023,1007,28,female,True
465,118.0,25,F,down,0.4167973999974492,1.608107364272459,,experiment,emotion,1.0,,,,1326.1651762,1007,28,female,True
466,154.0,25,F,down,0.5761222999972233,0.5340482653330022,,experiment,emotion,1.0,,,,1327.3984428000003,1007,28,female,True
467,142.0,25,M,up,0.4994907000000239,0.4529633199867049,,experiment,emotion,1.0,,,,1328.7150754000031,1007,28,female,True
468,130.0,25,F,down,1.5526187999967078,1.9275495860853744,,experiment,emotion,1.0,,,,1331.4149526,1007,28,female,True
469,142.0,25,F,up,1.0820246999974188,0.6508860305165138,,experiment,emotion,1.0,,,,1333.8815602000032,1007,28,female,True
470,154.0,25,M,up,0.5934817000015755,0.863120818362568,,experiment,emotion,1.0,,,,1336.0981217000008,1007,28,female,True
471,130.0,25,M,down,0.984857200000988,1.6145035587985668,,experiment,emotion,1.0,,,,1338.564707100002,1007,28,female,True
472,154.0,25,F,up,0.6785893999986001,0.5744400165742458,,experiment,emotion,1.0,,,,1340.3979577000027,1007,28,female,True
473,142.0,25,M,up,1.0102934000024106,0.8888089315014671,,experiment,emotion,1.0,,,,1342.231247900003,1007,28,female,True
474,118.0,25,F,down,0.8580658999999287,1.2459948179890847,,experiment,emotion,1.0,,,,1344.7644744000029,1007,28,female,True
475,142.0,25,F,up,0.9541336000002048,0.9041988723718188,,experiment,emotion,1.0,,,,1346.814456400003,1007,28,female,True
476,130.0,25,F,up,0.8605598999965878,0.6011984714243019,,experiment,emotion,1.0,,,,1348.6310032,1007,28,female,True
477,154.0,25,M,down,0.9693418000024394,1.7508791041620428,,experiment,emotion,1.0,,,,1351.5142213,1007,28,female,True
478,118.0,25,M,down,0.8403594000010344,0.6805896305238273,,experiment,emotion,1.0,,,,1353.4142004000023,1007,28,female,True
479,142.0,25,F,up,0.7671951999982412,1.4766628641682529,,experiment,emotion,1.0,,,,1355.997381600002,1007,28,female,True
480,142.0,25,F,up,0.8888903999977629,0.8440164380643305,,experiment,emotion,1.0,,,,1357.880667400001,1007,28,female,True
481,118.0,25,M,up,1.2863538999990851,1.5114506167284083,,experiment,emotion,1.0,,,,1360.5472228,1007,28,female,True
482,154.0,25,M,up,0.6277899999986403,1.760814870391575,,experiment,emotion,1.0,,,,1363.8637710000005,1007,28,female,True
483,154.0,25,M,up,0.8369478000022355,0.8615379727438712,,experiment,emotion,1.0,,,,1365.6136099000032,1007,28,female,True
484,130.0,25,M,down,1.0629189999999653,1.1890909558210403,,experiment,emotion,1.0,,,,1367.913640900002,1007,28,female,True
485,130.0,25,M,up,0.8599906999988889,1.1595181944264246,,experiment,emotion,1.0,,,,1370.4135712000025,1007,28,female,True
486,118.0,25,F,down,0.9751094000021112,0.5083642512273194,,experiment,emotion,1.0,,,,1372.063459800003,1007,28,female,True
487,130.0,25,F,down,0.7275975000011385,1.769974453328077,,experiment,emotion,1.0,,,,1375.0800232,1007,28,female,True
488,154.0,25,M,up,0.6049990000028629,1.9081998767708164,,experiment,emotion,1.0,,,,1377.9965557000032,1007,28,female,True
489,142.0,25,F,up,1.1506841000009445,0.4855967388635279,,experiment,emotion,1.0,,,,1379.3798762000006,1007,28,female,True
490,118.0,25,F,down,0.8374379999986559,1.3187835808198958,,experiment,emotion,1.0,,,,1382.1131201000026,1007,28,female,True
491,118.0,25,F,up,0.8726010999998834,1.8440859673453809,,experiment,emotion,1.0,,,,1385.0629695000025,1007,28,female,True
492,142.0,25,M,up,0.6477295000004233,1.003952035646223,,experiment,emotion,1.0,,,,1387.2128291000008,1007,28,female,True
493,130.0,25,F,down,0.8114289999975881,1.9530023595579424,,experiment,emotion,1.0,,,,1390.0961232000009,1007,28,female,True
494,154.0,25,F,up,0.6855403000008664,1.7576245349744442,,experiment,emotion,1.0,,,,1392.946012100001,1007,28,female,True
495,118.0,25,F,down,0.922947999999451,1.36474190550261,,experiment,emotion,1.0,,,,1395.2626083000032,1007,28,female,True
496,130.0,25,M,up,0.8574472000000242,0.5872111275161932,,experiment,emotion,1.0,,,,1397.0291180000022,1007,28,female,True
497,118.0,25,M,up,1.242146000000503,1.778997257722836,,experiment,emotion,1.0,,,,1399.9624170000025,1007,28,female,True
498,142.0,25,F,up,0.7772495999997773,1.975974283529694,,experiment,emotion,1.0,,,,1403.4622987000002,1007,28,female,True
499,154.0,25,M,up,0.641655700001138,0.3974944277754688,,experiment,emotion,1.0,,,,1404.9289147000018,1007,28,female,True
500,130.0,25,F,up,0.5831488000003446,1.8970501285058856,,experiment,emotion,1.0,,,,1407.7454857000012,1007,28,female,True
501,154.0,25,M,up,0.5127886999980547,0.5191360631715385,,experiment,emotion,1.0,,,,1409.1287537000026,1007,28,female,True
502,142.0,25,M,up,0.3501343999996607,0.872750915535828,,experiment,emotion,1.0,,,,1410.7953792000008,1007,28,female,True
503,0.235260653229576,25,up,up,0.5435039000003599,1.216162143393449,,experiment,cRDM,2.0,,,,1426.0781196000023,1007,28,female,True
504,0.235260653229576,25,up,up,0.7818039000012504,1.454602949491118,,experiment,cRDM,2.0,,,,1428.3280731000011,1007,28,female,True
505,0.235260653229576,25,down,down,0.684923600001639,1.0737069246096531,,experiment,cRDM,2.0,,,,1430.444624300002,1007,28,female,True
506,0.235260653229576,25,down,up,0.6770077000001038,1.795612489095178,,experiment,cRDM,2.0,,,,1433.1945368000015,1007,28,female,True
507,0.235260653229576,25,up,up,0.7697464999982913,0.8294318755813763,,experiment,cRDM,2.0,,,,1434.9778109,1007,28,female,True
508,0.235260653229576,25,down,up,0.8395261000005121,1.3085061714446746,,experiment,cRDM,2.0,,,,1437.311091200001,1007,28,female,True
509,0.235260653229576,25,up,up,0.8758875999992597,0.5175745118439004,,experiment,cRDM,2.0,,,,1438.9276903999998,1007,28,female,True
510,0.235260653229576,25,up,up,0.6362809000020206,0.4877365388788006,,experiment,cRDM,2.0,,,,1440.5442644000032,1007,28,female,True
511,0.235260653229576,25,down,up,0.5829871999994793,0.8750671854744119,,experiment,cRDM,2.0,,,,1442.3275519000017,1007,28,female,True
512,0.235260653229576,25,down,down,0.608502099999896,0.4663419722670753,,experiment,cRDM,2.0,,,,1443.644117900003,1007,28,female,True
513,0.235260653229576,25,down,down,0.6924715999994078,1.2190682827463328,,experiment,cRDM,2.0,,,,1445.744067700001,1007,28,female,True
514,0.235260653229576,25,down,down,0.78087030000097,1.5111164233263037,,experiment,cRDM,2.0,,,,1448.2106783000015,1007,28,female,True
515,0.235260653229576,25,down,down,0.6280221000015445,0.5096196171535957,,experiment,cRDM,2.0,,,,1449.7605881000018,1007,28,female,True
516,0.235260653229576,25,down,down,0.8350554999997257,1.614566523641084,,experiment,cRDM,2.0,,,,1452.2604954000017,1007,28,female,True
517,0.235260653229576,25,up,up,0.5234221999999136,0.5207695465689183,,experiment,cRDM,2.0,,,,1453.8770941000002,1007,28,female,True
518,0.235260653229576,25,up,up,0.7582048000003851,0.3457663536869772,,experiment,cRDM,2.0,,,,1455.0103724,1007,28,female,True
519,0.235260653229576,25,up,up,0.9582351000026392,1.337071967227622,,experiment,cRDM,2.0,,,,1457.3602999000032,1007,28,female,True
520,0.235260653229576,25,up,up,0.5583092999986548,0.9869231109267164,,experiment,cRDM,2.0,,,,1459.560222600001,1007,28,female,True
521,0.235260653229576,25,down,down,0.6477220999986457,1.7467947115944975,,experiment,cRDM,2.0,,,,1462.1267974000002,1007,28,female,True
522,0.235260653229576,25,up,up,0.5962947000007262,1.8538931336486977,,experiment,cRDM,2.0,,,,1464.8932735000017,1007,28,female,True
523,0.235260653229576,25,up,up,0.6772394999970857,0.895375226240064,,experiment,cRDM,2.0,,,,1466.6432899000029,1007,28,female,True
524,0.235260653229576,25,down,down,0.5656678999985161,1.6825656820914685,,experiment,cRDM,2.0,,,,1469.259860500002,1007,28,female,True
525,0.235260653229576,25,up,down,1.2293929000006756,0.7668168480865944,,experiment,cRDM,2.0,,,,1470.8431556000032,1007,28,female,True
526,0.235260653229576,25,down,down,0.7558252999988326,1.871594010287679,,experiment,cRDM,2.0,,,,1474.2097156000018,1007,28,female,True
527,0.235260653229576,25,down,down,0.6262339000022621,0.4028695473215892,,experiment,cRDM,2.0,,,,1475.626318300001,1007,28,female,True
528,0.235260653229576,25,up,down,0.5729735999993864,0.6337175186020072,,experiment,cRDM,2.0,,,,1477.1595689000023,1007,28,female,True
529,0.235260653229576,25,up,down,0.9646902000022236,0.8070305573617722,,experiment,cRDM,2.0,,,,1478.7928441000004,1007,28,female,True
530,0.235260653229576,25,down,down,0.6491756999967038,1.5375868799435866,,experiment,cRDM,2.0,,,,1481.5594115000022,1007,28,female,True
531,0.235260653229576,25,up,up,0.6843044000015652,0.6496272148178399,,experiment,cRDM,2.0,,,,1483.1092179000009,1007,28,female,True
532,0.235260653229576,25,down,down,0.9058691000027466,0.4824908217894446,,experiment,cRDM,2.0,,,,1484.5426441000018,1007,28,female,True
533,0.235260653229576,25,down,down,0.6132933999979286,1.35133039954514,,experiment,cRDM,2.0,,,,1487.059208600003,1007,28,female,True
534,0.235260653229576,25,down,down,0.6911188999984006,1.9249548464085249,,experiment,cRDM,2.0,,,,1489.842433400001,1007,28,female,True
535,0.235260653229576,25,up,up,0.647203399999853,0.7894337862575015,,experiment,cRDM,2.0,,,,1491.5923512000008,1007,28,female,True
536,0.235260653229576,25,up,up,0.6552162999978464,0.5567509971021503,,experiment,cRDM,2.0,,,,1493.0423181000006,1007,28,female,True
537,0.235260653229576,25,up,up,0.6476050000019313,0.4934561870017367,,experiment,cRDM,2.0,,,,1494.4589299,1007,28,female,True
538,0.235260653229576,25,down,down,0.7107219999998051,1.9942099059368243,,experiment,cRDM,2.0,,,,1497.3588199000003,1007,28,female,True
539,0.235260653229576,25,down,down,0.578144400002202,1.740692482716681,,experiment,cRDM,2.0,,,,1500.0753844000028,1007,28,female,True
540,0.235260653229576,25,up,up,0.6302174999982526,1.356604678631231,,experiment,cRDM,2.0,,,,1502.275293900002,1007,28,female,True
541,0.235260653229576,25,down,down,0.6846261999999115,0.9705391915017348,,experiment,cRDM,2.0,,,,1504.1418998000008,1007,28,female,True
542,0.235260653229576,25,up,up,0.6527415000018664,1.3599463467661872,,experiment,cRDM,2.0,,,,1506.441819800002,1007,28,female,True
543,0.235260653229576,25,up,up,0.5678570999989461,1.8391187659203865,,experiment,cRDM,2.0,,,,1509.1916975000022,1007,28,female,True
544,0.235260653229576,25,up,up,0.5902247000012721,1.879619264918788,,experiment,cRDM,2.0,,,,1511.9083026000008,1007,28,female,True
545,0.235260653229576,25,down,down,1.0086783000006108,0.9168766842458368,,experiment,cRDM,2.0,,,,1513.674866600002,1007,28,female,True
546,0.235260653229576,25,down,down,0.6243764000028023,1.1595778122822191,,experiment,cRDM,2.0,,,,1516.108146300001,1007,28,female,True
547,0.235260653229576,25,up,up,0.8911778000001505,1.189583437302996,,experiment,cRDM,2.0,,,,1518.191374200003,1007,28,female,True
548,0.235260653229576,25,down,down,0.6824966999993194,0.5538340344211401,,experiment,cRDM,2.0,,,,1519.9080101,1007,28,female,True
549,0.235260653229576,25,down,down,0.5833449000019755,0.8740656944931784,,experiment,cRDM,2.0,,,,1521.7412533000024,1007,28,female,True
550,0.235260653229576,25,up,up,0.5669921000007889,1.4367169238639157,,experiment,cRDM,2.0,,,,1524.024486600003,1007,28,female,True
551,0.235260653229576,25,up,up,0.6344550999965577,1.195182875902416,,experiment,cRDM,2.0,,,,1526.0410956000014,1007,28,female,True
552,0.235260653229576,25,down,down,0.8248539999985951,1.3762266754487602,,experiment,cRDM,2.0,,,,1528.3076978000026,1007,28,female,True
553,0.235260653229576,25,up,up,0.6096347999991849,1.925394692314813,,experiment,cRDM,2.0,,,,1531.3409097000003,1007,28,female,True
554,0.235260653229576,25,down,down,0.6107889999984764,1.490586814653665,,experiment,cRDM,2.0,,,,1533.6907086000028,1007,28,female,True
555,0.235260653229576,25,down,down,0.5801267999995616,0.8890909149158848,,experiment,cRDM,2.0,,,,1535.4574207000005,1007,28,female,True
556,0.235260653229576,25,down,down,0.5758467999985442,0.5034051173136646,,experiment,cRDM,2.0,,,,1536.7907298000027,1007,28,female,True
557,0.235260653229576,25,up,up,0.8755805000000692,0.3364338383088234,,experiment,cRDM,2.0,,,,1537.973965600002,1007,28,female,True
558,0.235260653229576,25,up,up,0.9116967000009026,1.9564976290975105,,experiment,cRDM,2.0,,,,1541.0738472000012,1007,28,female,True
559,0.235260653229576,25,down,down,0.656559399998514,1.7625444059617978,,experiment,cRDM,2.0,,,,1544.0069597000002,1007,28,female,True
560,0.235260653229576,25,down,down,0.6538096000003861,0.9810969423618344,,experiment,cRDM,2.0,,,,1545.9237138000026,1007,28,female,True
561,0.235260653229576,25,up,up,0.5515591000003042,1.019379835657466,,experiment,cRDM,2.0,,,,1547.8569484,1007,28,female,True
562,0.235260653229576,25,up,up,0.5839409999971394,0.6448986898244333,,experiment,cRDM,2.0,,,,1549.3235834000006,1007,28,female,True
563,0.235260653229576,25,up,up,0.5490581999983988,0.9095963242184988,,experiment,cRDM,2.0,,,,1551.0734951000013,1007,28,female,True
564,0.235260653229576,25,up,up,0.7212322000013955,1.7814907767402357,,experiment,cRDM,2.0,,,,1553.673413200002,1007,28,female,True
565,0.235260653229576,25,up,up,0.5846038999989105,0.8813181058169941,,experiment,cRDM,2.0,,,,1555.5399816999998,1007,28,female,True
566,0.235260653229576,25,down,down,0.6128634999986389,1.4188356203652952,,experiment,cRDM,2.0,,,,1557.806607100003,1007,28,female,True
567,0.235260653229576,25,down,down,0.9037518000004638,1.942036801800952,,experiment,cRDM,2.0,,,,1560.6398002000024,1007,28,female,True
568,0.235260653229576,25,up,up,0.5671605000025011,1.7971194327869928,,experiment,cRDM,2.0,,,,1563.606383600003,1007,28,female,True
569,0.235260653229576,25,down,up,0.6929540999990422,1.7535284570133274,,experiment,cRDM,2.0,,,,1566.1895798000005,1007,28,female,True
570,0.235260653229576,25,down,down,0.8146248999983072,1.183797801239652,,experiment,cRDM,2.0,,,,1568.3228751000024,1007,28,female,True
571,0.235260653229576,25,down,down,0.6433829000015976,0.3079966949106173,,experiment,cRDM,2.0,,,,1569.7061766000006,1007,28,female,True
572,0.235260653229576,25,up,up,1.0063969000002544,0.7026394914506471,,experiment,cRDM,2.0,,,,1571.3060750000004,1007,28,female,True
573,0.235260653229576,25,down,down,0.9285358000015548,1.4325248446713794,,experiment,cRDM,2.0,,,,1574.005985300002,1007,28,female,True
574,0.235260653229576,25,down,down,0.5970192000022507,1.5289642455042791,,experiment,cRDM,2.0,,,,1576.7225620000029,1007,28,female,True
575,0.235260653229576,25,down,down,0.5330125000000407,1.4470230208419457,,experiment,cRDM,2.0,,,,1579.0224861000024,1007,28,female,True
576,0.235260653229576,25,up,down,0.7251022000018565,1.5963396309874145,,experiment,cRDM,2.0,,,,1581.4224003000018,1007,28,female,True
577,0.235260653229576,25,up,down,0.5560900999989826,1.7911285459447093,,experiment,cRDM,2.0,,,,1584.205491300003,1007,28,female,True
578,0.235260653229576,25,down,down,0.5919867999982671,0.4904738397380472,,experiment,cRDM,2.0,,,,1585.5055812000028,1007,28,female,True
579,0.235260653229576,25,up,down,0.8857002000004286,0.5420705186377475,,experiment,cRDM,2.0,,,,1586.8888174000022,1007,28,female,True
580,0.235260653229576,25,down,down,0.558789099999558,1.1036895229698926,,experiment,cRDM,2.0,,,,1589.1387517000005,1007,28,female,True
581,0.235260653229576,25,up,down,0.5251668999990216,1.8412883356495175,,experiment,cRDM,2.0,,,,1591.8053577000028,1007,28,female,True
582,0.235260653229576,25,up,up,0.8592482000021846,1.3105050568924304,,experiment,cRDM,2.0,,,,1593.9052655000014,1007,28,female,True
583,154.0,25,M,up,0.7860385000021779,1.6998283498704725,,experiment,emotion,2.0,,,,1615.604460900002,1007,28,female,True
584,142.0,25,M,down,0.742542299998604,1.2397667225530191,,experiment,emotion,2.0,,,,1617.9210229000018,1007,28,female,True
585,154.0,25,F,up,0.9315531000029296,0.5293710668798699,,experiment,emotion,2.0,,,,1619.470967600002,1007,28,female,True
586,118.0,25,F,down,0.8416835999996692,1.330426532091008,,experiment,emotion,2.0,,,,1622.0208667000006,1007,28,female,True
587,130.0,25,M,down,0.6333606000007421,0.8609945844600022,,experiment,emotion,2.0,,,,1624.004151000001,1007,28,female,True
588,142.0,25,F,up,0.6777962999985903,1.0727316766914443,,experiment,emotion,2.0,,,,1625.9707080000007,1007,28,female,True
589,130.0,25,M,up,0.6502199999995355,1.6271883175109056,,experiment,emotion,2.0,,,,1628.5372939000008,1007,28,female,True
590,118.0,25,M,down,0.8093353000003844,0.8263021937954826,,experiment,emotion,2.0,,,,1630.2872075000014,1007,28,female,True
591,118.0,25,F,down,1.0184754999972938,1.0190151263099103,,experiment,emotion,2.0,,,,1632.3871248000032,1007,28,female,True
592,154.0,25,F,down,0.6481058000026678,1.2790196532815574,,experiment,emotion,2.0,,,,1634.9703923000015,1007,28,female,True
593,142.0,25,F,up,0.6561900999986392,1.5064694155009593,,experiment,emotion,2.0,,,,1637.4203035000028,1007,28,female,True
594,130.0,25,F,down,0.7692758000011963,1.579289409268663,,experiment,emotion,2.0,,,,1639.920207700001,1007,28,female,True
595,154.0,25,F,down,0.7620521999997436,0.9366038018183204,,experiment,emotion,2.0,,,,1641.9034556000006,1007,28,female,True
596,118.0,25,F,down,1.14614139999685,0.9436847833344236,,experiment,emotion,2.0,,,,1643.9033959000008,1007,28,female,True
597,130.0,25,M,down,0.7215333999993163,0.8087303980337641,,experiment,emotion,2.0,,,,1646.1199680000027,1007,28,female,True
598,142.0,25,M,down,0.7456543999978749,1.7780712877567224,,experiment,emotion,2.0,,,,1648.9198486000023,1007,28,female,True
599,118.0,25,M,down,0.7027218000002904,1.3840620161849926,,experiment,emotion,2.0,,,,1651.3197826000032,1007,28,female,True
600,142.0,25,M,down,0.5941659000018262,1.6072665346866202,,experiment,emotion,2.0,,,,1653.8863339000018,1007,28,female,True
601,142.0,25,F,down,0.6968635999983235,0.5697812156090978,,experiment,emotion,2.0,,,,1655.3196338000016,1007,28,female,True
602,154.0,25,M,down,0.8295986000011908,0.3937550125736817,,experiment,emotion,2.0,,,,1656.7029304000023,1007,28,female,True
603,118.0,25,M,down,0.5760527999991609,1.6155501022492438,,experiment,emotion,2.0,,,,1659.4194712000026,1007,28,female,True
604,130.0,25,F,down,1.2180568000003404,0.8088550729101216,,experiment,emotion,2.0,,,,1661.0694057,1007,28,female,True
605,154.0,25,M,up,0.7908199999983481,0.7485583784286034,,experiment,emotion,2.0,,,,1663.3026801000017,1007,28,female,True
606,130.0,25,F,up,0.7820496000022104,1.3339332704085571,,experiment,emotion,2.0,,,,1665.7025858000015,1007,28,female,True
607,130.0,25,F,up,1.1059960999991745,0.5554745662027767,,experiment,emotion,2.0,,,,1667.302499700003,1007,28,female,True
608,142.0,25,M,up,0.8423847999983991,0.5425911314566932,,experiment,emotion,2.0,,,,1669.219117200002,1007,28,female,True
609,154.0,25,M,up,1.0025012999976752,1.1414672797818288,,experiment,emotion,2.0,,,,1671.4690119000006,1007,28,female,True
610,118.0,25,F,down,0.7156475999981922,1.028725501206891,,experiment,emotion,2.0,,,,1673.7689339000026,1007,28,female,True
611,142.0,25,M,up,0.6789626999998291,1.1875099682635406,,experiment,emotion,2.0,,,,1675.9355510000023,1007,28,female,True
612,118.0,25,F,down,0.7933789999988221,1.8523424709146392,,experiment,emotion,2.0,,,,1678.7521169000029,1007,28,female,True
613,130.0,25,F,down,0.777657900001941,0.9672855975204524,,experiment,emotion,2.0,,,,1680.8020303000012,1007,28,female,True
614,154.0,25,F,up,0.670594400002301,1.1061650427394705,,experiment,emotion,2.0,,,,1682.9519297000006,1007,28,female,True
615,142.0,25,M,up,0.6359722999986843,0.5427278846079484,,experiment,emotion,2.0,,,,1684.418550600003,1007,28,female,True
616,118.0,25,M,up,0.6903524999979709,0.8180674824932115,,experiment,emotion,2.0,,,,1686.1351456000011,1007,28,female,True
617,130.0,25,M,down,0.5640926000014588,1.3214651934733896,,experiment,emotion,2.0,,,,1688.4184036000006,1007,28,female,True
618,130.0,25,F,down,0.6915253000006487,1.6891852084904326,,experiment,emotion,2.0,,,,1690.9349704000017,1007,28,female,True
619,154.0,25,F,up,0.9079421000024012,1.7403096884167624,,experiment,emotion,2.0,,,,1693.6515421000004,1007,28,female,True
620,142.0,25,M,up,0.8211021999995864,1.911058550274672,,experiment,emotion,2.0,,,,1696.751422600002,1007,28,female,True
621,154.0,25,F,up,0.7358027000009315,0.9808979006588212,,experiment,emotion,2.0,,,,1698.8346990000027,1007,28,female,True
622,118.0,25,M,down,0.7521152000008442,1.8765777140126252,,experiment,emotion,2.0,,,,1701.7345696000011,1007,28,female,True
623,130.0,25,M,down,0.9759672000000136,0.8617789076169797,,experiment,emotion,2.0,,,,1703.6345030000011,1007,28,female,True
624,118.0,25,M,up,1.1347384000000602,1.4947504459499084,,experiment,emotion,2.0,,,,1706.3677523000006,1007,28,female,True
625,118.0,25,F,down,1.222207899998466,1.4675863282154795,,experiment,emotion,2.0,,,,1709.2342967000004,1007,28,female,True
626,154.0,25,F,up,0.8696161000007123,1.215271869798111,,experiment,emotion,2.0,,,,1711.950857900003,1007,28,female,True
627,142.0,25,M,up,0.8263857000019925,1.0882955649860784,,experiment,emotion,2.0,,,,1714.1841176000016,1007,28,female,True
628,130.0,25,F,up,1.1701764999997977,1.9867323554604,,experiment,emotion,2.0,,,,1717.2673175000018,1007,28,female,True
629,142.0,25,F,up,0.832937099999981,1.9596604833203937,,experiment,emotion,2.0,,,,1720.6505527000008,1007,28,female,True
630,154.0,25,M,up,0.8597088999995322,1.4228730739266509,,experiment,emotion,2.0,,,,1723.1837908000016,1007,28,female,True
631,130.0,25,M,,,0.461353159579374,,experiment,emotion,2.0,,,,1724.783711400003,1007,28,female,True
632,154.0,25,F,up,0.7209188999986509,1.9316941753975263,,experiment,emotion,2.0,,,,1729.3835510999995,1007,28,female,True
633,142.0,25,M,up,0.6849947000009706,0.4499955592704674,,experiment,emotion,2.0,,,,1730.8334928000004,1007,28,female,True
634,118.0,25,F,down,0.842783000000054,1.164116717647233,,experiment,emotion,2.0,,,,1732.966738500003,1007,28,female,True
635,142.0,25,F,down,0.7911872000004223,1.7039992142781055,,experiment,emotion,2.0,,,,1735.7832974000012,1007,28,female,True
636,130.0,25,F,down,0.6435978000008618,1.251689402339574,,experiment,emotion,2.0,,,,1738.0999089000034,1007,28,female,True
637,154.0,25,M,up,0.9952986999996938,0.3159796364444558,,experiment,emotion,2.0,,,,1739.3331913000002,1007,28,female,True
638,118.0,25,M,down,0.6750934000010602,0.5064083459926408,,experiment,emotion,2.0,,,,1741.1164433000013,1007,28,female,True
639,142.0,25,F,up,0.8688068000010389,1.841028838752356,,experiment,emotion,2.0,,,,1743.8997073000028,1007,28,female,True
640,142.0,25,F,up,0.7298780999990413,1.7546155754287311,,experiment,emotion,2.0,,,,1746.7996026,1007,28,female,True
641,118.0,25,M,down,0.8677027000012458,1.7797132062961591,,experiment,emotion,2.0,,,,1749.582803200003,1007,28,female,True
642,154.0,25,M,up,0.7125022000000172,1.723954339272544,,experiment,emotion,2.0,,,,1752.4660215000004,1007,28,female,True
643,154.0,25,M,down,0.7565260000010312,0.302646458598552,,experiment,emotion,2.0,,,,1753.7659579000028,1007,28,female,True
644,130.0,25,M,up,0.8479788000004191,1.676056654567803,,experiment,emotion,2.0,,,,1756.4824909000015,1007,28,female,True
645,130.0,25,M,up,0.8144042999992962,1.646397179778406,,experiment,emotion,2.0,,,,1759.249112000001,1007,28,female,True
646,118.0,25,F,down,0.719407599997794,1.092482551273009,,experiment,emotion,2.0,,,,1761.4490521000007,1007,28,female,True
647,130.0,25,F,down,0.790319300002011,1.6887575779824044,,experiment,emotion,2.0,,,,1764.1322624000022,1007,28,female,True
648,154.0,25,M,down,0.7913034000011976,1.4305861383578524,,experiment,emotion,2.0,,,,1766.6321718,1007,28,female,True
649,142.0,25,F,down,0.9977113000022656,0.7794259427348782,,experiment,emotion,2.0,,,,1768.498769400001,1007,28,female,True
650,118.0,25,F,up,0.7495956999991904,0.6208860920776476,,experiment,emotion,2.0,,,,1770.3819212000017,1007,28,female,True
651,118.0,25,F,down,1.0248363000027894,1.6935520623239824,,experiment,emotion,2.0,,,,1773.098587200002,1007,28,female,True
652,142.0,25,M,up,0.8323517000026186,1.4633242172241294,,experiment,emotion,2.0,,,,1775.8651489000003,1007,28,female,True
653,130.0,25,F,up,0.9024408000004768,1.7871399440310662,,experiment,emotion,2.0,,,,1778.765036300003,1007,28,female,True
654,154.0,25,F,up,0.9282017000004998,1.947277219606371,,experiment,emotion,2.0,,,,1781.8982743000015,1007,28,female,True
655,118.0,25,F,up,0.8759557999983372,0.5383376783905806,,experiment,emotion,2.0,,,,1783.6315307000004,1007,28,female,True
656,130.0,25,M,down,1.0550404999994498,1.6234108509984169,,experiment,emotion,2.0,,,,1786.3814383999998,1007,28,female,True
657,118.0,25,M,down,0.9378077999972448,0.4634096488148453,,experiment,emotion,2.0,,,,1788.1646967000015,1007,28,female,True
658,142.0,25,F,down,0.7867862000020978,0.5218967707940393,,experiment,emotion,2.0,,,,1789.8978484,1007,28,female,True
659,154.0,25,M,up,0.8062475999977323,0.8743473217238829,,experiment,emotion,2.0,,,,1791.831230300002,1007,28,female,True
660,130.0,25,F,up,0.78129319999789,0.5165737361500047,,experiment,emotion,2.0,,,,1793.4311841000017,1007,28,female,True
661,154.0,25,M,down,0.8953977000019222,0.8934975860695975,,experiment,emotion,2.0,,,,1795.3811021,1007,28,female,True
662,142.0,25,M,up,0.6627805999996781,0.8447513460379426,,experiment,emotion,2.0,,,,1797.3976975000005,1007,28,female,True
663,0.235260653229576,25,up,up,0.4418663999967975,1.7030514466156872,,experiment,cRDM,3.0,,,,1818.063598300003,1007,28,female,True
664,0.235260653229576,25,up,up,0.448665500000061,0.978933826890882,,experiment,cRDM,3.0,,,,1819.7468616000008,1007,28,female,True
665,0.235260653229576,25,down,down,0.529973799999425,0.6113551066483582,,experiment,cRDM,3.0,,,,1821.0634856000036,1007,28,female,True
666,0.235260653229576,25,down,up,0.5340917000030458,0.6545855936441135,,experiment,cRDM,3.0,,,,1822.5134380000015,1007,28,female,True
667,0.235260653229576,25,up,up,0.6457757999996829,1.539734170513986,,experiment,cRDM,3.0,,,,1824.8466995000017,1007,28,female,True
668,0.235260653229576,25,down,down,0.6445320000020729,1.2713011360950175,,experiment,cRDM,3.0,,,,1827.0299397000017,1007,28,female,True
669,0.235260653229576,25,up,up,0.4416668000012578,1.754939969806888,,experiment,cRDM,3.0,,,,1829.6798280000005,1007,28,female,True
670,0.235260653229576,25,up,up,0.6053872000011324,0.6811485656531482,,experiment,cRDM,3.0,,,,1831.0631157000023,1007,28,female,True
671,0.235260653229576,25,down,down,0.5830458000018552,0.6552920779173792,,experiment,cRDM,3.0,,,,1832.596414700001,1007,28,female,True
672,0.235260653229576,25,down,up,0.6119608999979391,1.8993293591552427,,experiment,cRDM,3.0,,,,1835.3295057000032,1007,28,female,True
673,0.235260653229576,25,down,down,0.4902868999997736,0.5383531728678363,,experiment,cRDM,3.0,,,,1836.7462393000023,1007,28,female,True
674,0.235260653229576,25,down,up,0.5469717999985733,1.3337789213505409,,experiment,cRDM,3.0,,,,1838.8294956000027,1007,28,female,True
675,0.235260653229576,25,down,up,0.5582969999995839,1.6635921638874265,,experiment,cRDM,3.0,,,,1841.2961399000012,1007,28,female,True
676,0.235260653229576,25,down,up,0.5042179999982181,1.3050355777367642,,experiment,cRDM,3.0,,,,1843.4292828,1007,28,female,True
677,0.235260653229576,25,up,up,0.5578997000011441,1.165770055017944,,experiment,cRDM,3.0,,,,1845.3625793000028,1007,28,female,True
678,0.235260653229576,25,up,up,0.3504714000009699,1.2310604015724758,,experiment,cRDM,3.0,,,,1847.4125324000013,1007,28,female,True
679,0.235260653229576,25,up,up,0.6893253999987792,0.623537597424058,,experiment,cRDM,3.0,,,,1848.7291218000028,1007,28,female,True
680,0.235260653229576,25,up,up,0.680698799998936,1.7037563073552011,,experiment,cRDM,3.0,,,,1851.395762,1007,28,female,True
681,0.235260653229576,25,down,down,0.5108695000017178,1.60553586287384,,experiment,cRDM,3.0,,,,1853.945590700001,1007,28,female,True
682,0.235260653229576,25,up,up,0.5469948999998451,1.3130942254473714,,experiment,cRDM,3.0,,,,1856.0455196000005,1007,28,female,True
683,0.235260653229576,25,up,up,0.582344300000841,1.103478417498892,,experiment,cRDM,3.0,,,,1857.9621170000028,1007,28,female,True
684,0.235260653229576,25,down,down,0.6507636999995157,1.3249901687061996,,experiment,cRDM,3.0,,,,1860.128704300001,1007,28,female,True
685,0.235260653229576,25,up,up,0.7542131000009249,0.5435473197618982,,experiment,cRDM,3.0,,,,1861.5952517000003,1007,28,female,True
686,0.235260653229576,25,down,down,0.6019935000003898,1.269920119738774,,experiment,cRDM,3.0,,,,1863.8784618000027,1007,28,female,True
687,0.235260653229576,25,down,down,0.7992574000018067,0.4525938187759984,,experiment,cRDM,3.0,,,,1865.195207000001,1007,28,female,True
688,0.235260653229576,25,up,up,0.5632226999987324,1.6206594953835771,,experiment,cRDM,3.0,,,,1867.878296400002,1007,28,female,True
689,0.235260653229576,25,up,up,0.4784881999985373,1.030317720195573,,experiment,cRDM,3.0,,,,1869.7450141000008,1007,28,female,True
690,0.235260653229576,25,down,down,0.5698717999985092,1.071412548713672,,experiment,cRDM,3.0,,,,1871.5615930000024,1007,28,female,True
691,0.235260653229576,25,up,up,0.4229555999991135,1.814840466297457,,experiment,cRDM,3.0,,,,1874.2115015000015,1007,28,female,True
692,0.235260653229576,25,down,down,0.4743275000000722,0.7390215438655301,,experiment,cRDM,3.0,,,,1875.6281321000024,1007,28,female,True
693,0.235260653229576,25,down,down,0.6046924000002036,0.730160482102605,,experiment,cRDM,3.0,,,,1877.0947798000016,1007,28,female,True
694,0.235260653229576,25,down,down,0.5281386999995448,1.8543876921005076,,experiment,cRDM,3.0,,,,1879.8113187000015,1007,28,female,True
695,0.235260653229576,25,up,up,0.5379183000004559,1.7366141644945217,,experiment,cRDM,3.0,,,,1882.3445449000028,1007,28,female,True
696,0.235260653229576,25,up,up,0.5106770000020333,1.691074869893306,,experiment,cRDM,3.0,,,,1884.8277879000016,1007,28,female,True
697,0.235260653229576,25,up,up,0.508842100000038,1.7180105196177966,,experiment,cRDM,3.0,,,,1887.3276783,1007,28,female,True
698,0.235260653229576,25,down,down,0.6124792999980855,0.606407551922999,,experiment,cRDM,3.0,,,,1888.710978200001,1007,28,female,True
699,0.235260653229576,25,down,down,0.545195300001069,1.0003490070528744,,experiment,cRDM,3.0,,,,1890.5942624000015,1007,28,female,True
700,0.235260653229576,25,up,up,0.6155179999987013,0.7123849657818051,,experiment,cRDM,3.0,,,,1892.1108542,1007,28,female,True
701,0.235260653229576,25,down,down,0.4737056000012671,1.51283426551792,,experiment,cRDM,3.0,,,,1894.5107558000016,1007,28,female,True
702,0.235260653229576,25,up,up,0.4467851999979757,1.363614859881176,,experiment,cRDM,3.0,,,,1896.610677100001,1007,28,female,True
703,0.235260653229576,25,up,up,0.5685042000004614,1.88677678663592,,experiment,cRDM,3.0,,,,1899.1939552000003,1007,28,female,True
704,0.235260653229576,25,up,up,0.5819732000018121,0.6888903065914764,,experiment,cRDM,3.0,,,,1900.7105432000023,1007,28,female,True
705,0.235260653229576,25,down,down,0.4380282999991323,1.6075724641685605,,experiment,cRDM,3.0,,,,1903.1604230000007,1007,28,female,True
706,0.235260653229576,25,down,down,0.5797502999994322,1.0280464083267935,,experiment,cRDM,3.0,,,,1904.893731,1007,28,female,True
707,0.235260653229576,25,up,up,0.5814711000020907,0.4961126414106819,,experiment,cRDM,3.0,,,,1906.2269885000023,1007,28,female,True
708,0.235260653229576,25,down,down,0.508219299998018,0.935984825792186,,experiment,cRDM,3.0,,,,1908.0102882000028,1007,28,female,True
709,0.235260653229576,25,down,down,0.4990345000005618,1.6293723345611426,,experiment,cRDM,3.0,,,,1910.393436800001,1007,28,female,True
710,0.235260653229576,25,up,up,0.5449899000013829,0.4016472840603988,,experiment,cRDM,3.0,,,,1911.5434854000011,1007,28,female,True
711,0.235260653229576,25,up,up,0.630351799998607,0.6020289288567433,,experiment,cRDM,3.0,,,,1912.9600807000024,1007,28,female,True
712,0.235260653229576,25,down,down,0.5458063000005495,1.770481805378309,,experiment,cRDM,3.0,,,,1915.6266436000003,1007,28,female,True
713,0.235260653229576,25,up,up,0.5415510000020731,1.8883493590298044,,experiment,cRDM,3.0,,,,1918.3098918000032,1007,28,female,True
714,0.235260653229576,25,down,down,0.4167803999989701,1.1910268052466275,,experiment,cRDM,3.0,,,,1920.2931757000008,1007,28,female,True
715,0.235260653229576,25,down,down,0.7184712000016589,1.8576509186119976,,experiment,cRDM,3.0,,,,1922.8430333000035,1007,28,female,True
716,0.235260653229576,25,down,down,0.538170199997694,1.3564812169418057,,experiment,cRDM,3.0,,,,1925.1762777000004,1007,28,female,True
717,0.235260653229576,25,up,up,0.4758710999994946,1.4313253495821947,,experiment,cRDM,3.0,,,,1927.4095670000024,1007,28,female,True
718,0.235260653229576,25,up,up,0.6539161000000604,0.6677632267414928,,experiment,cRDM,3.0,,,,1928.8095298000007,1007,28,female,True
719,0.235260653229576,25,down,down,0.5320098000011058,1.5751508284924758,,experiment,cRDM,3.0,,,,1931.309433600003,1007,28,female,True
720,0.235260653229576,25,down,down,0.518770400001813,1.6756257017780212,,experiment,cRDM,3.0,,,,1933.792677400001,1007,28,female,True
721,0.235260653229576,25,up,up,0.5041737999999896,0.5698457822977646,,experiment,cRDM,3.0,,,,1935.1592628,1007,28,female,True
722,0.235260653229576,25,up,up,0.4676431000007142,1.2910317137221767,,experiment,cRDM,3.0,,,,1937.2258384000013,1007,28,female,True
723,0.235260653229576,25,up,up,0.5250637999997707,1.5312023609833323,,experiment,cRDM,3.0,,,,1939.4923874000012,1007,28,female,True
