,stimLvl,stimTime,rand,response,rt,precedingITI,trialNumber,trialType,stimuli,block,estIntens,estThres,estSlope,trialStart,subject,age,gender,headRest
0,150.0,100,F,,,1.8794348098554916,,introTrial,emotion,,,,,218.92511819999984,27,27,female,True
1,0.9,100,down,,,1.1359743494252443,,introTrial,cRDM,,,,,224.0083359,27,27,female,True
2,0.9,25,down,down,1.1227523000002293,1.7094704105749945,,tutorial,cRDM,,,,,260.2068312000001,27,27,female,True
3,0.9,25,down,down,0.7291485999999168,1.370312366854215,,tutorial,cRDM,,,,,262.9734545000001,27,27,female,True
4,0.9,25,up,up,0.6458999000001313,0.6672603617723482,,tutorial,cRDM,,,,,264.6566591999999,27,27,female,True
5,0.9,25,up,up,0.5975945000000138,1.7207561730898893,,tutorial,cRDM,,,,,267.2899468999999,27,27,female,True
6,0.9,25,down,up,0.3171201999998629,1.6233390622050634,,tutorial,cRDM,,,,,269.8064789,27,27,female,True
7,0.9,25,down,down,0.4398615999998583,1.5425540287023691,,tutorial,cRDM,,,,,272.0397339000001,27,27,female,True
8,0.9,25,up,up,0.4352356000003965,1.054913633134934,,tutorial,cRDM,,,,,273.80633579999994,27,27,female,True
9,0.9,25,up,up,0.4002432999996017,1.466722302137338,,tutorial,cRDM,,,,,275.9896265000002,27,27,female,True
10,0.9,25,down,down,0.4617478000000119,0.9321896649800144,,tutorial,cRDM,,,,,277.62285759999986,27,27,female,True
11,0.9,25,up,up,0.383843699999943,1.706515503980091,,tutorial,cRDM,,,,,280.03941080000004,27,27,female,True
12,200.0,25,M,up,0.8931519999996453,1.7919402103447364,,tutorial,emotion,,,,,290.67240249999986,27,27,female,True
13,200.0,25,M,up,0.7409241999998812,1.822337539713623,,tutorial,emotion,,,,,293.6556307999999,27,27,female,True
14,200.0,25,F,up,0.5123392000000422,0.9299249458725848,,tutorial,emotion,,,,,295.62223040000026,27,27,female,True
15,0.0,25,F,down,0.4939471000002413,0.8342229342926293,,tutorial,emotion,,,,,297.27263230000017,27,27,female,True
16,0.0,25,M,down,0.5737398000001122,0.4398799978259606,,tutorial,emotion,,,,,298.48881630000005,27,27,female,True
17,200.0,25,F,down,0.4169831000003796,0.7744841205134858,,tutorial,emotion,,,,,300.1220804999998,27,27,female,True
18,0.0,25,M,up,0.4002538000004279,0.9797497284709056,,tutorial,emotion,,,,,301.8219954000001,27,27,female,True
19,200.0,25,M,up,0.7202594999998837,0.3351218105872537,,tutorial,emotion,,,,,302.8552924999999,27,27,female,True
20,0.0,25,F,down,0.4853640999999697,1.435229162358988,,tutorial,emotion,,,,,305.3052183,27,27,female,True
21,0.0,25,F,down,0.557689400000072,0.5550939231579475,,tutorial,emotion,,,,,306.6218653000001,27,27,female,True
22,0.29,25,up,down,0.4753780999999435,1.0994090118987438,,psi_staircase_training,cRDM,,0.25,0.2569312402994632,0.105,322.67116590000023,27,27,female,True
23,0.39,25,up,down,0.4701258000000052,0.7822347118768654,,psi_staircase_training,cRDM,,0.3546095744690496,0.3616109212953642,0.1060620300265678,324.20443890000024,27,27,female,True
24,0.45,25,down,down,0.797812199999953,0.8932040413856019,,psi_staircase_training,cRDM,,0.4150689485921841,0.4216473382772667,0.0996547352408428,325.8377048000002,27,27,female,True
25,0.44,25,down,down,0.5373406999997314,1.2459423290979306,,psi_staircase_training,cRDM,,0.4054457120615716,0.4121127131824852,0.1009970925045164,328.1542703,27,27,female,True
26,0.43,25,up,down,0.3671680000002197,1.6847144953465951,,psi_staircase_training,cRDM,,0.3958107273700079,0.4025120380008885,0.1015168405425151,330.65417389999993,27,27,female,True
27,0.46,25,down,down,0.5220749999998588,1.8196515708845669,,psi_staircase_training,cRDM,,0.4310053600809398,0.4376465946403073,0.1006067599167771,333.18747399999984,27,27,female,True
28,0.46,25,up,down,0.4238897000000179,1.4838790743604575,,psi_staircase_training,cRDM,,0.4248918249680527,0.4315096766594727,0.1002525374358909,335.47067289999995,27,27,female,True
29,0.47,25,down,down,0.5572320999999647,0.8647433413798131,,psi_staircase_training,cRDM,,0.4472039730205345,0.4544159107843657,0.1092522308396825,337.03726689999985,27,27,female,True
30,0.48,25,down,down,0.4229758000001311,1.7545121461748887,,psi_staircase_training,cRDM,,0.4419596468083376,0.449353214373789,0.1120037050847175,339.6205264,27,27,female,True
31,0.48,25,up,down,0.416877800000293,0.5322128533046628,,psi_staircase_training,cRDM,,0.4380742118707555,0.4453811956284695,0.1106920639613927,340.8538020000001,27,27,female,True
32,0.46,25,down,up,0.4823913999998694,0.528896135296366,,psi_staircase_training,cRDM,,0.4533926867516517,0.4614185276666845,0.1215818900613952,342.08714850000024,27,27,female,True
33,0.52,25,down,down,0.4879275999996935,1.918585199482565,,psi_staircase_training,cRDM,,0.4661559023808055,0.4730657886435617,0.1046765118856991,344.7708779999998,27,27,female,True
34,0.52,25,down,down,0.4165395999998509,1.045917776764699,,psi_staircase_training,cRDM,,0.4660842495739833,0.4726080855570926,0.0988283119082622,346.57082100000025,27,27,female,True
35,0.52,25,up,down,0.3338854000003266,1.1810639594334111,,psi_staircase_training,cRDM,,0.4661563524811432,0.4722855866245031,0.0928505660238948,348.45350199999984,27,27,female,True
36,0.52,25,up,up,0.5551347000000533,1.6573915915862976,,psi_staircase_training,cRDM,,0.4645869956041616,0.4736573305288258,0.1374047249759169,350.80343010000024,27,27,female,True
37,0.52,25,down,down,0.5305560000001606,0.5404336569478301,,psi_staircase_training,cRDM,,0.4636317774059407,0.4725107204528762,0.1345053669543698,352.1700181000001,27,27,female,True
38,0.52,25,down,down,0.4415236999998342,1.0540834307959328,,psi_staircase_training,cRDM,,0.4627384794092066,0.471406192241019,0.131305481850164,354.0199803999999,27,27,female,True
39,0.52,25,up,up,0.5616007999997237,0.8393918231526485,,psi_staircase_training,cRDM,,0.46192475153337,0.4703607426532774,0.1277951750798299,355.56990159999987,27,27,female,True
40,0.52,25,up,up,0.4649593000003733,0.4900253203842211,,psi_staircase_training,cRDM,,0.4612085047112967,0.469392114956703,0.1239719067068271,356.88655359999984,27,27,female,True
41,0.52,25,up,up,0.4447228999997605,0.5370534320644694,,psi_staircase_training,cRDM,,0.4606070752895613,0.4685180637571242,0.119842012858568,358.1698099,27,27,female,True
42,0.46,25,up,up,0.4192234999995889,0.8483474516790734,,psi_staircase_training,cRDM,,0.460136265390807,0.4677554715392085,0.1154218597274879,359.7364342000001,27,27,female,True
43,0.46,25,down,down,0.2832317000002149,1.33546602873846,,psi_staircase_training,cRDM,,0.4556034258054858,0.4637735861528811,0.1237681568395398,361.7702474000002,27,27,female,True
44,0.46,25,down,down,0.5668893000001844,1.2491595552885786,,psi_staircase_training,cRDM,,0.4511845997257778,0.4597960367801191,0.1304529711335876,363.7196371,27,27,female,True
45,0.46,25,down,down,0.3171708999998373,1.5463515775082035,,psi_staircase_training,cRDM,,0.4469000614347616,0.455853734493401,0.1356374372462508,366.1195219000001,27,27,female,True
46,0.45,25,up,down,0.3172262000002774,0.6926618116566359,,psi_staircase_training,cRDM,,0.4427393026395283,0.4519520275656746,0.1395617631840397,367.5194750999999,27,27,female,True
47,0.52,25,up,up,0.5518200999999863,1.8423855073001152,,psi_staircase_training,cRDM,,0.4542783631015968,0.4628581167619176,0.1299730056110516,370.0526998,27,27,female,True
48,0.46,25,down,down,0.4585860000001958,1.61220300618281,,psi_staircase_training,cRDM,,0.4533207695592322,0.4616878454967197,0.1267511924964168,372.48594790000016,27,27,female,True
49,0.45,25,down,down,0.400322099999812,0.4333097845099166,,psi_staircase_training,cRDM,,0.4493886845236999,0.4580981372941488,0.1319377919948839,373.6525603,27,27,female,True
50,0.45,25,up,down,0.5126957999996193,1.8884019636582,,psi_staircase_training,cRDM,,0.4453983656043114,0.4544268518792259,0.1367707679878647,376.2358202999999,27,27,female,True
51,0.52,25,up,down,0.5811376000001474,1.919406102242629,,psi_staircase_training,cRDM,,0.4557636582358146,0.4641345700953159,0.1268093021267347,378.9523819000001,27,27,female,True
52,100.0,25,M,down,0.5411424000003535,0.6919307884455816,,psi_staircase_training,emotion,,100.0,100.0,25.00050000000001,384.0693844000002,27,27,female,True
53,145.0,25,M,down,0.4759856000000582,0.7545322676736876,,psi_staircase_training,emotion,,145.25719053245996,145.25719053245996,25.00050000000028,385.7355241,27,27,female,True
54,168.0,25,F,up,0.527704900000117,1.1780992739882372,,psi_staircase_training,emotion,,168.03875363226317,168.03875363226317,24.348195048155315,387.76878510000006,27,27,female,True
55,155.0,25,F,down,0.4611350999998649,0.7591234767136044,,psi_staircase_training,emotion,,155.004436652377,155.004436652377,25.558429500416704,389.4353755000002,27,27,female,True
56,170.0,25,M,up,0.7435426000001826,1.7789258850646872,,psi_staircase_training,emotion,,165.44574296022685,165.44574296022685,24.96788539774863,392.0519408,27,27,female,True
57,160.0,25,F,up,0.8299694999996063,1.7237445770657784,,psi_staircase_training,emotion,,159.5266948558149,159.5266948558149,22.495191219702527,394.9185161,27,27,female,True
58,147.0,25,M,up,0.5774271999998746,1.854093507494235,,psi_staircase_training,emotion,,153.1208070803471,153.1208070803471,23.19092239554965,397.9850879999999,27,27,female,True
59,131.0,25,F,up,0.5832015999999385,0.9441800613199628,,psi_staircase_training,emotion,,144.11172588590583,144.11172588590583,29.605855662144407,399.8682706,27,27,female,True
60,118.0,25,F,up,0.4975823999998283,1.799542209753658,,psi_staircase_training,emotion,,133.85208613142927,133.85208613142927,34.35131506104172,402.6348960999999,27,27,female,True
61,108.0,25,M,up,0.5514331999997921,1.1686625154550183,,psi_staircase_training,emotion,,123.68937544939742,123.68937544939742,37.32430622361097,404.66807560000007,27,27,female,True
62,98.0,25,F,down,0.6343886999998176,0.4123314965304641,,psi_staircase_training,emotion,,113.984414828374,113.984414828374,39.26105521671016,406.0181163000002,27,27,female,True
63,109.0,25,F,up,0.8134703000000627,1.8921007575332855,,psi_staircase_training,emotion,,119.1130947395261,119.1130947395261,38.4805487006011,408.9179828000001,27,27,female,True
64,109.0,25,F,up,0.645893999999771,0.8186554842859775,,psi_staircase_training,emotion,,112.17003267275624,112.17003267275624,39.329134367766514,410.8845437999999,27,27,female,True
65,91.0,25,M,down,0.6483919000002061,1.539786361936634,,psi_staircase_training,emotion,,106.33466948103752,106.33466948103752,39.61642455383884,413.4511238,27,27,female,True
66,111.0,25,M,down,0.5670224000000417,0.7025031197747831,,psi_staircase_training,emotion,,110.2011808199186,110.2011808199186,38.71558901581608,415.1844308999998,27,27,female,True
67,94.0,25,F,down,0.595123600000079,1.044467374889109,,psi_staircase_training,emotion,,114.89842181221243,114.89842181221243,39.1938958119798,417.1843586,27,27,female,True
68,118.0,25,F,down,0.4762435999996341,0.5122485785895882,,psi_staircase_training,emotion,,117.44966426699212,117.44966426699212,38.57472198903681,418.634274,27,27,female,True
69,138.0,25,M,up,0.5682825000003504,0.3148657807815301,,psi_staircase_training,emotion,,121.15520352095876,121.15520352095876,38.63978456570206,419.78420929999993,27,27,female,True
70,94.0,25,M,down,0.6952661000000262,1.3995827370531064,,psi_staircase_training,emotion,,118.8697651396379,118.8697651396379,38.19678546012612,422.0842290999999,27,27,female,True
71,143.0,25,M,up,0.7094129000001885,1.8366029872765277,,psi_staircase_training,emotion,,120.65627646114108,120.65627646114108,37.58904370203593,424.9840475000001,27,27,female,True
72,91.0,25,M,down,0.72512770000003,0.3202422600894368,,psi_staircase_training,emotion,,118.92304591369044,118.92304591369044,37.02331095699319,426.36734590000015,27,27,female,True
73,145.0,25,F,up,0.5881254000000808,0.3145920724145319,,psi_staircase_training,emotion,,120.34619285044435,120.34619285044435,36.35600655358136,427.7672892000001,27,27,female,True
74,90.0,25,F,down,0.6786402000002454,1.963507358762287,,psi_staircase_training,emotion,,118.91916353981226,118.91916353981226,35.7100539335057,430.6838352,27,27,female,True
75,145.0,25,F,up,0.6357531999997263,0.3427767809766266,,psi_staircase_training,emotion,,120.11472282043012,120.11472282043012,34.99192238702236,432.0337528999999,27,27,female,True
76,89.0,25,M,down,0.7578080000002956,1.4824239220276894,,psi_staircase_training,emotion,,118.8644525378555,118.8644525378555,34.27883599954758,434.5336680999999,27,27,female,True
77,145.0,25,M,up,0.5938636999999289,0.9606390130658092,,psi_staircase_training,emotion,,119.86355817186993,119.86355817186993,33.521385206676655,436.5836119999999,27,27,female,True
78,89.0,25,F,down,0.6055842000000666,1.7432561722786195,,psi_staircase_training,emotion,,118.76397685692068,118.76397685692068,32.75004462705045,439.2668656999999,27,27,female,True
79,144.0,25,F,up,0.6306489999997211,1.1284804717731518,,psi_staircase_training,emotion,,119.62000870443418,119.62000870443418,31.96143748458269,441.3667773000002,27,27,female,True
80,141.0,25,M,up,0.6174766999997701,1.9446566417386464,,psi_staircase_training,emotion,,118.61451001192528,118.61451001192528,31.139386050678524,444.34994640000014,27,27,female,True
81,89.0,25,M,down,0.5964819000000716,0.6925300836101353,,psi_staircase_training,emotion,,117.62330500786976,117.62330500786976,30.316463217087595,445.9999370999999,27,27,female,True
82,0.29,25,up,down,0.4858782000001156,1.3582258563520038,,psi_staircase,cRDM,,0.25,0.2569312402994632,0.105,462.9325612000002,27,27,female,True
83,0.39,25,up,up,0.6106715999999324,1.690326735434354,,psi_staircase,cRDM,,0.3546095744690496,0.3616109212953642,0.1060620300265678,465.3657535000002,27,27,female,True
84,0.38,25,down,down,0.5589927000000898,0.7906723277551313,,psi_staircase,cRDM,,0.3357987849034938,0.3429317268363466,0.1080555384881884,467.0324101000001,27,27,female,True
85,0.35,25,down,down,0.5164773999999852,1.7841825275990717,,psi_staircase,cRDM,,0.3178220825339425,0.3249720550198983,0.1083135309972574,469.6489448000002,27,27,female,True
86,0.34,25,up,down,0.4475951000003988,1.8628667037644928,,psi_staircase,cRDM,,0.2987461380195291,0.3059673319859477,0.1093924512374306,472.2988753,27,27,female,True
87,0.4,25,down,down,0.5266011000003346,0.8371853468094161,,psi_staircase,cRDM,,0.3638484016693292,0.3710090766335758,0.1084756607420059,473.84879779999983,27,27,female,True
88,0.39,25,up,down,0.519006200000149,1.4265527949007,,psi_staircase,cRDM,,0.3518018055539976,0.3588447855750034,0.1066927231281934,476.0654131000001,27,27,female,True
89,0.43,25,down,down,0.5410823000001983,0.3786727168326109,,psi_staircase,cRDM,,0.3977246561052595,0.4055717380011245,0.1188739047367369,477.2153546,27,27,female,True
90,0.43,25,down,down,0.6177185000001373,1.7100374607905302,,psi_staircase,cRDM,,0.3880539526633753,0.3959572397332582,0.1197253458954484,479.7319134,27,27,female,True
91,0.42,25,up,down,0.4492352000002029,1.5622041987244006,,psi_staircase,cRDM,,0.3792595091252382,0.3870948190588546,0.118695573589251,482.1651594,27,27,female,True
92,0.45,25,down,up,0.6276333999999224,1.796973084048722,,psi_staircase,cRDM,,0.4131819592245453,0.4214542872671577,0.1253158752181133,484.6817836,27,27,female,True
93,0.47,25,down,up,0.5223459999997431,0.5002539675035438,,psi_staircase,cRDM,,0.4380156110852837,0.4462096564494545,0.1241299862745418,486.0650544,27,27,female,True
94,0.46,25,down,up,0.6914734000001772,0.6700412964416135,,psi_staircase,cRDM,,0.4557633129201122,0.4634293101890165,0.1161306892357025,487.5149663000002,27,27,female,True
95,0.52,25,up,up,0.5949375000000146,1.7688952177929822,,psi_staircase,cRDM,,0.4684307456693919,0.474737398642422,0.0955382490806789,490.2315401999999,27,27,female,True
96,0.52,25,up,up,0.5836340999999265,1.0343922691008327,,psi_staircase,cRDM,,0.468660818444173,0.4745398963726184,0.0890609985826874,492.1147980999999,27,27,female,True
97,0.52,25,down,up,0.618393499999911,0.4817679592664827,,psi_staircase,cRDM,,0.4690181881240649,0.4744720262299505,0.0826191239051872,493.4480585000001,27,27,female,True
98,0.52,25,down,up,0.7050290000001951,0.9024469300686392,,psi_staircase,cRDM,,0.4650611085862327,0.4740132066018722,0.1356135772287291,495.2313497999999,27,27,female,True
99,0.63,25,up,up,0.6692103999998835,0.7563957643348433,,psi_staircase,cRDM,,0.4687301903730215,0.4788814688527898,0.1537797269066286,496.96517959999983,27,27,female,True
100,0.63,25,up,up,0.6055299999998169,0.5436445568390242,,psi_staircase,cRDM,,0.468378239040093,0.4784128958448208,0.1520130480223002,498.4478758999999,27,27,female,True
101,0.63,25,up,up,0.4485531999998784,0.3740720900098218,,psi_staircase,cRDM,,0.4680361989004544,0.4779540957116201,0.1502442737778175,499.6978429999999,27,27,female,True
102,0.63,25,up,up,0.5847202999998444,1.446654652923483,,psi_staircase,cRDM,,0.467704284710169,0.4775055394817121,0.1484772863944315,501.8477505999999,27,27,female,True
103,0.62,25,down,up,0.510701600000175,0.5679784937457656,,psi_staircase,cRDM,,0.4673826414453719,0.4770676208311291,0.1467158533781108,503.2476932999998,27,27,female,True
104,0.65,25,down,up,0.5591239000000314,0.984022706953078,,psi_staircase,cRDM,,0.4708401658328476,0.4816691280397288,0.1640458247870271,505.0143189,27,27,female,True
105,0.65,25,down,up,0.6028904999998304,1.805004120283032,,psi_staircase,cRDM,,0.4737226742662586,0.485567509788281,0.1794350904135683,507.6475154999998,27,27,female,True
106,0.65,25,up,up,0.5582869999998366,1.451701350296578,,psi_staircase,cRDM,,0.4767275356918463,0.4892210695612629,0.1892620944609763,509.96409440000025,27,27,female,True
107,0.65,25,up,up,0.5133519999999407,0.82760250420318,,psi_staircase,cRDM,,0.4763766250436589,0.4888259286763642,0.1885920592790989,511.61407180000015,27,27,female,True
108,0.65,25,down,up,0.8771302999998625,1.2073235076221296,,psi_staircase,cRDM,,0.4760254588329866,0.4884283365326868,0.1878887619246681,513.5972876000001,27,27,female,True
109,0.65,25,down,up,0.4995324999999866,1.6253970672214435,,psi_staircase,cRDM,,0.4789095110759798,0.4917123709169718,0.1939480129419638,516.3638722000001,27,27,female,True
110,0.64,25,up,up,0.4325902000000496,0.9403864323700326,,psi_staircase,cRDM,,0.4815000776032917,0.4945092016723188,0.1970726692816607,518.0638196,27,27,female,True
111,0.64,25,up,up,0.5475532999998904,0.6529653112108313,,psi_staircase,cRDM,,0.4811828465517481,0.4941781439359515,0.1968632115448398,519.4137824,27,27,female,True
112,0.64,25,down,up,0.5297190999999657,0.4915417266175313,,psi_staircase,cRDM,,0.4808605663988343,0.4938411244620252,0.1966399284613739,520.7137191000002,27,27,female,True
113,0.63,25,up,down,0.4841543000002275,1.37740747567255,,psi_staircase,cRDM,,0.4831639535919497,0.4962550367447969,0.1983142513693248,522.8802752000001,27,27,female,True
114,0.61,25,down,down,0.5978847999999743,1.598428179261126,,psi_staircase,cRDM,,0.4850979001832137,0.4982417726575542,0.1991139464480288,525.2135627000002,27,27,female,True
115,0.61,25,up,down,0.5978900999998586,0.7381455037762034,,psi_staircase,cRDM,,0.4848145136882037,0.4979540959953461,0.1990489555464969,526.8134906999999,27,27,female,True
116,0.6,25,down,down,0.47028199999977,1.4094713585734382,,psi_staircase,cRDM,,0.4864449925841418,0.4996104009501241,0.199440189447072,529.0800813999999,27,27,female,True
117,0.6,25,up,down,0.5000008999995771,0.654771720847251,,psi_staircase,cRDM,,0.486184565163878,0.4993473237387911,0.1994000482818202,530.4633824000002,27,27,female,True
118,0.58,25,down,down,0.4002675000001545,1.0047297797385493,,psi_staircase,cRDM,,0.4875829074318164,0.5007605216440536,0.1996250934182798,532.2299432,27,27,female,True
119,0.58,25,up,down,0.416953000000376,1.0247308721550816,,psi_staircase,cRDM,,0.4873329806577754,0.5005089976036949,0.1996008967440763,533.9298666999998,27,27,female,True
120,0.58,25,up,down,0.582528800000091,1.2724628233940545,,psi_staircase,cRDM,,0.4885187323833455,0.5017025968281665,0.1997197769659505,535.8798379999998,27,27,female,True
121,0.5700000000000001,25,down,down,0.6059600999997201,0.3659258843394909,,psi_staircase,cRDM,,0.489546826664908,0.5027361897125675,0.1998030742220097,537.0964371999999,27,27,female,True
122,0.5700000000000001,25,down,down,0.5073484999998072,1.048163391672687,,psi_staircase,cRDM,,0.4893428563402127,0.5025314446469669,0.1997913378239699,539.0130416000002,27,27,female,True
123,0.5700000000000001,25,down,down,0.5004594000001816,1.934555941747992,,psi_staircase,cRDM,,0.489133756823556,0.5023215257380664,0.1997789250115629,541.7129088000002,27,27,female,True
124,0.5700000000000001,25,up,down,0.553489499999614,0.7427393814843918,,psi_staircase,cRDM,,0.4889193755090358,0.5021062779454426,0.1997657989046975,543.2128806999999,27,27,female,True
125,0.5700000000000001,25,up,down,0.454934399999729,0.9149263016192012,,psi_staircase,cRDM,,0.4898700589825582,0.5030609234671827,0.199825819196143,544.9294561000002,27,27,female,True
126,0.5700000000000001,25,down,down,0.5986144999997123,1.6621988728050745,,psi_staircase,cRDM,,0.4907060207193567,0.5038998294257516,0.1998704206343468,547.3126965000001,27,27,female,True
127,0.5700000000000001,25,down,down,0.6116921999996521,0.5937581706136396,,psi_staircase,cRDM,,0.4905331864928043,0.5037264836717109,0.1998626716047439,548.7626958000001,27,27,female,True
128,0.5700000000000001,25,down,down,0.3838000000000647,0.3794863627248628,,psi_staircase,cRDM,,0.4903562423946779,0.5035489983724047,0.1998544730542083,550.0126279000001,27,27,female,True
129,0.5700000000000001,25,up,down,0.4375825000001896,0.8636068396181327,,psi_staircase,cRDM,,0.4901750717472681,0.5033672552104935,0.1998458001443014,551.5458320000002,27,27,female,True
130,0.56,25,up,down,0.6155675999998493,1.6509169193275408,,psi_staircase,cRDM,,0.4909716080799003,0.5041663915327861,0.1998851868777773,553.8958149999999,27,27,female,True
131,0.56,25,up,down,0.7096590999999535,0.9162222259862168,,psi_staircase,cRDM,,0.4916621258622629,0.5048585376699819,0.1999098545058089,555.6957407999998,27,27,female,True
132,100.0,25,M,down,0.6117062000002988,0.4255609168395116,,psi_staircase,emotion,,100.0,100.0,25.00050000000001,561.1289643,27,27,female,True
133,145.0,25,M,up,0.4172784000002139,0.6311354255052972,,psi_staircase,emotion,,145.25719053245996,145.25719053245996,25.00050000000028,562.7288474000002,27,27,female,True
134,121.0,25,F,up,0.6095617000000857,0.7230418494242548,,psi_staircase,emotion,,120.36392901436103,120.36392901436103,25.71326925488699,564.2288146999999,27,27,female,True
135,97.0,25,F,down,0.8466521000000284,0.822705548902231,,psi_staircase,emotion,,102.3887610608496,102.3887610608496,26.14633372628729,566.0287243000002,27,27,female,True
136,113.0,25,M,down,0.4307358999999451,1.6472682800784124,,psi_staircase,emotion,,114.01123255420406,114.01123255420406,23.00305641778335,568.9119891,27,27,female,True
137,127.0,25,F,up,0.422501700000339,1.509072737833859,,psi_staircase,emotion,,123.15505271238727,123.15505271238727,23.86267166612523,571.2118801000001,27,27,female,True
138,117.0,25,M,down,0.8125605000000178,1.0710160398924269,,psi_staircase,emotion,,116.72664759921038,116.72664759921038,20.612160618334432,573.1118452999999,27,27,female,True
139,128.0,25,F,up,0.4919526999997288,1.1543890872740237,,psi_staircase,emotion,,122.23098691439831,122.23098691439831,20.832163948572948,575.4283960000002,27,27,female,True
140,113.0,25,F,down,0.7386901999998372,1.6598720614743512,,psi_staircase,emotion,,118.62736425730574,118.62736425730574,17.52430219955878,577.9116505000002,27,27,female,True
141,124.0,25,M,up,0.468821299999945,0.3098152209428848,,psi_staircase,emotion,,120.91210012930686,120.91210012930686,14.786658830345468,579.3615441000002,27,27,female,True
142,119.0,25,F,up,0.4408985000000029,1.2591674713120646,,psi_staircase,emotion,,118.71347309422406,118.71347309422406,11.783902417745557,581.4614455999999,27,27,female,True
143,114.0,25,F,up,0.494229500000074,0.645607245296965,,psi_staircase,emotion,,116.57491965363631,116.57491965363631,11.796055383081258,582.9281400999998,27,27,female,True
144,103.0,25,F,up,0.5312610000000859,0.5780271747464214,,psi_staircase,emotion,,112.88202270198975,112.88202270198975,18.580549075630355,584.3780984999999,27,27,female,True
145,90.0,25,M,down,0.6436876000002485,1.1836958525515378,,psi_staircase,emotion,,107.06439997846148,107.06439997846148,27.48870896290817,586.4446324,27,27,female,True
146,91.0,25,M,down,0.7036662000000433,1.9269190504457605,,psi_staircase,emotion,,109.31074678159558,109.31074678159558,25.315137457822114,589.361668,27,27,female,True
147,93.0,25,F,down,0.6139198000000761,1.391984118575032,,psi_staircase,emotion,,110.93964231794676,110.93964231794676,23.358471466995223,591.8444364000002,27,27,female,True
148,94.0,25,F,down,0.6183347000001049,1.9062211908385056,,psi_staircase,emotion,,112.1735196657551,112.1735196657551,21.59013890673483,594.7110213999999,27,27,female,True
149,130.0,25,M,down,0.8339553999999225,1.3738285846181335,,psi_staircase,emotion,,113.08397838247517,113.08397838247517,20.02533162273428,597.0613938000001,27,27,female,True
150,140.0,25,M,up,0.6052277999997386,1.4029481273064883,,psi_staircase,emotion,,117.00018031134924,117.00018031134924,27.08137224797155,599.6441479999999,27,27,female,True
151,139.0,25,M,up,0.8598500999996759,1.4308574589534917,,psi_staircase,emotion,,115.85840766012676,115.85840766012676,25.62744826935908,602.0774455000001,27,27,female,True
152,92.0,25,M,down,0.7627290000000357,1.554110239991169,,psi_staircase,emotion,,114.9525499550932,114.9525499550932,24.293430304254123,604.8606008000002,27,27,female,True
153,137.0,25,F,up,0.5901604999999108,1.3470194432654834,,psi_staircase,emotion,,115.68590193891433,115.68590193891433,23.07003597754657,607.3271705000002,27,27,female,True
154,94.0,25,F,down,0.6738891999998486,1.0849769775880715,,psi_staircase,emotion,,114.93238022153166,114.93238022153166,21.82450298935604,609.3604693000002,27,27,female,True
155,136.0,25,F,up,0.6022723999999471,1.2317593545732706,,psi_staircase,emotion,,115.55173790471098,115.55173790471098,20.701443359553995,611.6270288000001,27,27,female,True
156,96.0,25,M,down,0.6280288000002656,1.8964521373090488,,psi_staircase,emotion,,114.9457957234597,114.9457957234597,19.60735091090999,614.5102757,27,27,female,True
157,134.0,25,M,up,0.6212064000001192,0.9917062413709464,,psi_staircase,emotion,,115.48153846791944,115.48153846791944,18.61932515630158,616.5101774999998,27,27,female,True
158,98.0,25,F,down,0.5961578000001282,1.2263943662625567,,psi_staircase,emotion,,114.9581263869242,114.9581263869242,17.674361993536035,618.7101444,27,27,female,True
159,132.0,25,F,up,0.4779656000000614,1.318216047723914,,psi_staircase,emotion,,115.43764439047172,115.43764439047172,16.8285326232022,620.9933710999999,27,27,female,True
160,100.0,25,M,down,0.5356811999999991,1.200511680902347,,psi_staircase,emotion,,114.96950984049734,114.96950984049734,16.027829577937837,623.0266283999999,27,27,female,True
161,130.0,25,M,up,0.5941048999998202,0.3212485150150403,,psi_staircase,emotion,,115.41607154877666,115.41607154877666,15.312873281382462,624.243223,27,27,female,True
162,102.0,25,F,down,0.8687859000001481,0.4991889106846147,,psi_staircase,emotion,,114.980107271501,114.980107271501,14.63722477478019,625.7265280000001,27,27,female,True
163,128.0,25,M,up,0.7752255000000332,0.6905355664301582,,psi_staircase,emotion,,115.41302986861,115.41302986861,14.03223334807733,627.6430884000001,27,27,female,True
164,104.0,25,F,down,0.6341075000000274,1.7540668627491225,,psi_staircase,emotion,,114.99017722573612,114.99017722573612,13.45689014329497,630.5262831,27,27,female,True
165,126.0,25,M,up,0.6217554999998356,1.9467636758702336,,psi_staircase,emotion,,115.42541705782288,115.42541705782288,12.938593700914083,633.4595503,27,27,female,True
166,105.0,25,F,down,0.6242111999999906,0.4397096868773696,,psi_staircase,emotion,,115.0001441213122,115.0001441213122,12.439149508258495,634.8761835,27,27,female,True
167,124.0,25,M,up,0.548915500000021,0.777509944301431,,psi_staircase,emotion,,115.4099803038551,115.4099803038551,11.984206481049446,636.6094053000002,27,27,female,True
168,107.0,25,F,up,0.7885670000000573,0.5529159747353469,,psi_staircase,emotion,,114.96976944014273,114.96976944014273,11.540984961913692,638.0927605000002,27,27,female,True
169,125.0,25,M,up,0.6980417999998281,1.386394799667025,,psi_staircase,emotion,,113.6049823947986,113.6049823947986,12.830492134980268,640.6092878,27,27,female,True
170,124.0,25,M,up,0.52317260000018,1.2786839967941006,,psi_staircase,emotion,,113.27012843598318,113.27012843598318,12.406268777940468,642.9092070000002,27,27,female,True
171,101.0,25,F,down,0.696798200000103,0.867321493605907,,psi_staircase,emotion,,112.94578522810605,112.94578522810605,12.017537374062792,644.6924623999998,27,27,female,True
172,123.0,25,F,down,0.936993899999834,1.7790079220898924,,psi_staircase,emotion,,113.21943167149836,113.21943167149836,11.643964806581367,647.5423003999999,27,27,female,True
173,101.0,25,F,down,0.8766617999999653,0.8499857593011257,,psi_staircase,emotion,,114.48724705066066,114.48724705066066,13.021452932883715,649.6756146000002,27,27,female,True
174,102.0,25,M,up,0.7408080000000155,1.9608809591353136,,psi_staircase,emotion,,114.73347099429252,114.73347099429252,12.65610405875064,652.8755077000001,27,27,female,True
175,129.0,25,M,up,0.5535350000000108,1.0672160052725512,,psi_staircase,emotion,,113.49666988802517,113.49666988802517,14.379036969261428,655.0587788000003,27,27,female,True
176,98.0,25,F,down,0.5795980000002601,1.2090578974662336,,psi_staircase,emotion,,113.280124193953,113.280124193953,13.99701178522908,657.1587087000003,27,27,female,True
177,128.0,25,F,down,0.8037353999998231,1.3693231877571623,,psi_staircase,emotion,,113.4948885029185,113.4948885029185,13.634837091820035,659.4585780000002,27,27,female,True
178,97.0,25,F,down,1.1511215999998967,0.9484280593524936,,psi_staircase,emotion,,114.69965693175868,114.69965693175868,15.514211206453306,661.5751868000002,27,27,female,True
179,132.0,25,M,up,0.9492291000001388,0.8970110708371297,,psi_staircase,emotion,,114.8919601754709,114.8919601754709,15.129230868458798,663.9750699000001,27,27,female,True
180,98.0,25,M,down,0.6006187000002683,0.6394441272181213,,psi_staircase,emotion,,114.69632149665482,114.69632149665482,14.766819611372512,665.8916800000002,27,27,female,True
181,131.0,25,M,up,0.6398029999995742,0.8332568750936418,,psi_staircase,emotion,,114.88127088318667,114.88127088318667,14.43718609050023,667.6915437000002,27,27,female,True
182,0.4922798829994618,25,down,down,0.5947046000001137,1.2124057094121103,,experiment,cRDM,0.0,,,,675.3245763999998,27,27,female,True
183,0.4922798829994618,25,up,up,0.4340861999999106,0.6590813392174466,,experiment,cRDM,0.0,,,,676.8411867999998,27,27,female,True
184,0.4922798829994618,25,down,down,0.585211099999924,1.1548517430205505,,experiment,cRDM,0.0,,,,678.6911365999999,27,27,female,True
185,0.4922798829994618,25,up,up,0.5459470000000692,1.738568731103976,,experiment,cRDM,0.0,,,,681.2743430999999,27,27,female,True
186,0.4922798829994618,25,down,down,0.6200438999999278,0.5417115882472118,,experiment,cRDM,0.0,,,,682.6242846,27,27,female,True
187,0.4922798829994618,25,down,up,0.4170497000000068,0.4597455176954277,,experiment,cRDM,0.0,,,,683.9742476000001,27,27,female,True
188,0.4922798829994618,25,up,down,0.5314464000002772,1.88582127501498,,experiment,cRDM,0.0,,,,686.5408372000002,27,27,female,True
189,0.4922798829994618,25,down,down,0.8522130999999717,1.300779861149102,,experiment,cRDM,0.0,,,,688.6240544000002,27,27,female,True
190,0.4922798829994618,25,up,up,0.5782902000000831,0.6727196400642221,,experiment,cRDM,0.0,,,,690.4239874999998,27,27,female,True
191,0.4922798829994618,25,up,up,0.758691799999724,1.3097882309603912,,experiment,cRDM,0.0,,,,692.5739275000001,27,27,female,True
192,0.4922798829994618,25,down,down,0.529450099999849,1.036798854444232,,experiment,cRDM,0.0,,,,694.6238364999999,27,27,female,True
193,0.4922798829994618,25,up,up,0.586833000000297,1.5264918721709992,,experiment,cRDM,0.0,,,,696.9404260000001,27,27,female,True
194,0.4922798829994618,25,up,down,0.432582899999943,0.7161616195281866,,experiment,cRDM,0.0,,,,698.5237075999999,27,27,female,True
195,0.4922798829994618,25,up,up,0.6386388999999326,1.1082353743825228,,experiment,cRDM,0.0,,,,700.3236215000002,27,27,female,True
196,0.4922798829994618,25,down,down,0.4004522999998698,1.2455155655781118,,experiment,cRDM,0.0,,,,702.4569476000001,27,27,female,True
197,0.4922798829994618,25,down,down,0.6590762999999242,0.8523155820381001,,experiment,cRDM,0.0,,,,703.9901783999999,27,27,female,True
198,0.4922798829994618,25,up,up,0.4901933000001008,1.5781007640416105,,experiment,cRDM,0.0,,,,706.4900619,27,27,female,True
199,0.4922798829994618,25,up,up,0.6685403999999835,1.615257810091108,,experiment,cRDM,0.0,,,,708.8566918000001,27,27,female,True
200,0.4922798829994618,25,down,down,0.4547788999998374,1.0669255949312173,,experiment,cRDM,0.0,,,,710.8404759999999,27,27,female,True
201,0.4922798829994618,25,down,up,0.6430497999999716,1.0518995771157365,,experiment,cRDM,0.0,,,,712.6231779999998,27,27,female,True
202,0.4922798829994618,25,up,down,0.6011721999998372,0.5543751995585573,,experiment,cRDM,0.0,,,,714.0731461,27,27,female,True
203,0.4922798829994618,25,down,down,0.6962234000002354,0.3314444877831029,,experiment,cRDM,0.0,,,,715.2730884000002,27,27,female,True
204,0.4922798829994618,25,up,up,0.8896291000000929,1.916360237040239,,experiment,cRDM,0.0,,,,718.1396285999999,27,27,female,True
205,0.4922798829994618,25,down,down,0.5504364999997051,1.7131036227880434,,experiment,cRDM,0.0,,,,721.0228499,27,27,female,True
206,0.4922798829994618,25,down,down,0.5478665000000547,1.29932938359451,,experiment,cRDM,0.0,,,,723.1394350999999,27,27,female,True
207,0.4922798829994618,25,up,down,0.4961882999996305,1.3581823356721037,,experiment,cRDM,0.0,,,,725.3060466000002,27,27,female,True
208,0.4922798829994618,25,up,down,0.5468947999997908,0.6272717030721231,,experiment,cRDM,0.0,,,,726.6893390999999,27,27,female,True
209,0.4922798829994618,25,down,down,0.531977999999981,1.851929221529169,,experiment,cRDM,0.0,,,,729.3392032000002,27,27,female,True
210,0.4922798829994618,25,up,down,0.5520859999996901,1.0516490160784293,,experiment,cRDM,0.0,,,,731.1891518000002,27,27,female,True
211,0.4922798829994618,25,down,down,0.6171346999999514,0.7864274332583778,,experiment,cRDM,0.0,,,,732.7890818000001,27,27,female,True
212,0.4922798829994618,25,up,down,0.5018872000000556,1.2073509633372146,,experiment,cRDM,0.0,,,,734.8723611999999,27,27,female,True
213,0.4922798829994618,25,down,down,0.3671623000000181,1.0837523869685788,,experiment,cRDM,0.0,,,,736.7222858,27,27,female,True
214,0.4922798829994618,25,up,down,0.5384199000000081,1.9272282087179735,,experiment,cRDM,0.0,,,,739.3388288000001,27,27,female,True
215,0.4922798829994618,25,down,down,0.3671754000001783,1.800198796767375,,experiment,cRDM,0.0,,,,741.9387256999998,27,27,female,True
216,0.4922798829994618,25,up,down,0.4312267999998767,0.8425463611170307,,experiment,cRDM,0.0,,,,743.4720440000001,27,27,female,True
217,0.4922798829994618,25,down,down,0.3838988999996218,1.0913992719155603,,experiment,cRDM,0.0,,,,745.2552845999999,27,27,female,True
218,0.4922798829994618,25,up,down,0.3997329999997419,1.5095725652411194,,experiment,cRDM,0.0,,,,747.4390846000001,27,27,female,True
219,0.4922798829994618,25,down,down,0.3671578000003137,0.7001719108453205,,experiment,cRDM,0.0,,,,748.8217951000001,27,27,female,True
220,0.4922798829994618,25,up,down,0.5062394999999924,1.81709556923944,,experiment,cRDM,0.0,,,,751.3050420999998,27,27,female,True
221,0.4922798829994618,25,down,down,0.4169764999996914,1.2278267371116884,,experiment,cRDM,0.0,,,,753.3216332000002,27,27,female,True
222,0.4922798829994618,25,down,down,0.4589757999997346,0.603978689564811,,experiment,cRDM,0.0,,,,754.588291,27,27,female,True
223,0.4922798829994618,25,up,down,0.350500799999736,0.9162503527890484,,experiment,cRDM,0.0,,,,756.2381836,27,27,female,True
224,0.4922798829994618,25,down,down,0.4853858999999829,1.4876476748730167,,experiment,cRDM,0.0,,,,758.4048164999999,27,27,female,True
225,0.4922798829994618,25,up,down,0.4947950000000674,0.4129165020772159,,experiment,cRDM,0.0,,,,759.5714201999999,27,27,female,True
226,0.4922798829994618,25,up,down,0.6218729999995958,1.1327528944290604,,experiment,cRDM,0.0,,,,761.4713572999999,27,27,female,True
227,0.4922798829994618,25,down,down,0.5750444999998763,0.6837908714309124,,experiment,cRDM,0.0,,,,763.0213124000002,27,27,female,True
228,0.4922798829994618,25,down,down,0.6326318999999785,1.4911148747933822,,experiment,cRDM,0.0,,,,765.3545761999999,27,27,female,True
229,0.4922798829994618,25,up,down,0.5934297999997398,0.7852800673252058,,experiment,cRDM,0.0,,,,767.0377914999999,27,27,female,True
230,0.4922798829994618,25,down,down,0.5991865000000871,0.5325824745340422,,experiment,cRDM,0.0,,,,768.4210902,27,27,female,True
231,0.4922798829994618,25,up,down,0.6554744000000028,0.8406523243204402,,experiment,cRDM,0.0,,,,770.1376949999999,27,27,female,True
232,0.4922798829994618,25,up,down,0.6209263000000647,1.5801368346858642,,experiment,cRDM,0.0,,,,772.6543044999999,27,27,female,True
233,0.4922798829994618,25,up,down,0.6370480999999018,0.563440387496704,,experiment,cRDM,0.0,,,,774.104202,27,27,female,True
234,0.4922798829994618,25,up,up,1.0054271999997582,0.4288098815638349,,experiment,cRDM,0.0,,,,775.4207968999999,27,27,female,True
235,0.4922798829994618,25,up,up,0.5841762000000017,0.7210793848635693,,experiment,cRDM,0.0,,,,777.4040758000001,27,27,female,True
236,0.4922798829994618,25,down,up,0.6354849999997896,1.8313288865511088,,experiment,cRDM,0.0,,,,780.0707138000002,27,27,female,True
237,0.4922798829994618,25,down,down,0.6849924000002829,1.4641198729037217,,experiment,cRDM,0.0,,,,782.4371897000001,27,27,female,True
238,0.4922798829994618,25,down,down,0.5323539999999412,0.6335854510442404,,experiment,cRDM,0.0,,,,784.003835,27,27,female,True
239,0.4922798829994618,25,up,down,0.5244477000001098,0.8572512052740786,,experiment,cRDM,0.0,,,,785.6538046000001,27,27,female,True
240,0.4922798829994618,25,down,up,0.725181799999973,1.1448006112788207,,experiment,cRDM,0.0,,,,787.5870346000002,27,27,female,True
241,0.4922798829994618,25,down,down,0.6246050000004288,1.4724772329344018,,experiment,cRDM,0.0,,,,790.0536489000001,27,27,female,True
242,0.4922798829994618,25,down,down,0.8456289000000652,0.6117906737976526,,experiment,cRDM,0.0,,,,791.5535650000002,27,27,female,True
243,0.4922798829994618,25,up,up,0.4470578000000387,1.3233027200715146,,experiment,cRDM,0.0,,,,793.9701576000002,27,27,female,True
244,0.4922798829994618,25,down,down,0.6410547000000406,0.3083914715416836,,experiment,cRDM,0.0,,,,794.9701289999998,27,27,female,True
245,0.4922798829994618,25,up,up,0.6261196999998901,0.5991779788839671,,experiment,cRDM,0.0,,,,796.4700693999998,27,27,female,True
246,0.4922798829994618,25,up,down,0.5932245999997576,1.619553987928536,,experiment,cRDM,0.0,,,,798.96999,27,27,female,True
247,0.4922798829994618,25,down,up,0.5673068000000967,1.0572228297867177,,experiment,cRDM,0.0,,,,800.8699108999999,27,27,female,True
248,0.4922798829994618,25,up,down,0.5594207999997707,1.755107872514592,,experiment,cRDM,0.0,,,,803.4697801000002,27,27,female,True
249,0.4922798829994618,25,down,down,0.5401214000003165,1.356036170168484,,experiment,cRDM,0.0,,,,805.6530561,27,27,female,True
250,0.4922798829994618,25,up,up,0.7465937000001759,1.564592937893912,,experiment,cRDM,0.0,,,,808.0196085000002,27,27,female,True
251,0.4922798829994618,25,down,down,0.6510376000001088,1.9026716628799076,,experiment,cRDM,0.0,,,,810.9361432000001,27,27,female,True
252,0.4922798829994618,25,up,up,0.730156099999931,0.9448132312907316,,experiment,cRDM,0.0,,,,812.7860937999999,27,27,female,True
253,0.4922798829994618,25,down,down,0.6031782999998541,1.046586828783079,,experiment,cRDM,0.0,,,,814.8359937999999,27,27,female,True
254,0.4922798829994618,25,down,down,0.8548055000001114,0.3622103708046855,,experiment,cRDM,0.0,,,,816.0693633000001,27,27,female,True
255,0.4922798829994618,25,down,down,0.7293069999996078,1.8967608937730127,,experiment,cRDM,0.0,,,,819.0858825,27,27,female,True
256,0.4922798829994618,25,down,down,0.9410198000000491,0.6955361502552653,,experiment,cRDM,0.0,,,,820.7691539000002,27,27,female,True
257,0.4922798829994618,25,down,down,0.5131944999998268,1.636380144322225,,experiment,cRDM,0.0,,,,823.6189955999998,27,27,female,True
258,0.4922798829994618,25,up,down,0.5281708000002254,1.1893075117290175,,experiment,cRDM,0.0,,,,825.5689817000002,27,27,female,True
259,0.4922798829994618,25,up,up,0.6916086000001087,0.5362959940778036,,experiment,cRDM,0.0,,,,826.8855475,27,27,female,True
260,0.4922798829994618,25,up,down,0.7709712999999283,0.4117163815304139,,experiment,cRDM,0.0,,,,828.2521882000001,27,27,female,True
261,0.4922798829994618,25,up,up,0.4249487000001863,1.0695509640188112,,experiment,cRDM,0.0,,,,830.3521630999999,27,27,female,True
262,120.0,25,M,down,0.8952945000000909,1.9428571978576783,,experiment,emotion,0.0,,,,838.3018864000001,27,27,female,True
263,109.0,25,M,down,0.8400166000001263,0.5972131209176225,,experiment,emotion,0.0,,,,840.0851198,27,27,female,True
264,116.0,25,F,up,0.7650796000002629,0.4892939938360555,,experiment,emotion,0.0,,,,841.7350589000002,27,27,female,True
265,120.0,25,F,up,0.7672231999999894,1.8602418586395948,,experiment,emotion,0.0,,,,844.6349279000001,27,27,female,True
266,116.0,25,M,down,0.7372599000000264,1.3109475539184037,,experiment,emotion,0.0,,,,846.9848907999999,27,27,female,True
267,112.0,25,F,down,0.6427372999996805,1.1740383040701785,,experiment,emotion,0.0,,,,849.2014269000001,27,27,female,True
268,109.0,25,M,down,0.73110429999997,1.0496766198501366,,experiment,emotion,0.0,,,,851.1680565000001,27,27,female,True
269,112.0,25,M,down,0.7282476000000315,1.7512794711426838,,experiment,emotion,0.0,,,,853.9178522000002,27,27,female,True
270,120.0,25,F,up,0.510891399999764,1.1347028975212314,,experiment,emotion,0.0,,,,856.0512489000002,27,27,female,True
271,112.0,25,F,down,0.68666549999989,1.7604309137636134,,experiment,emotion,0.0,,,,858.5844456,27,27,female,True
272,116.0,25,F,down,0.8131121000001258,1.6055066442182997,,experiment,emotion,0.0,,,,861.1510245,27,27,female,True
273,120.0,25,F,down,1.1635318999997253,0.3805021476725589,,experiment,emotion,0.0,,,,862.6176011000002,27,27,female,True
274,116.0,25,F,down,0.7492606999999225,1.7470927340311986,,experiment,emotion,0.0,,,,865.8008970999999,27,27,female,True
275,109.0,25,F,down,0.988710699999956,0.3842738612698619,,experiment,emotion,0.0,,,,867.2174206999998,27,27,female,True
276,112.0,25,M,down,0.6147390999999516,0.5867949281526744,,experiment,emotion,0.0,,,,869.0674306000001,27,27,female,True
277,109.0,25,M,down,0.555203899999924,1.2727117700205617,,experiment,emotion,0.0,,,,871.2339267000002,27,27,female,True
278,120.0,25,M,down,0.9816160999998828,1.837327185787557,,experiment,emotion,0.0,,,,873.9005444,27,27,female,True
279,109.0,25,M,down,0.6213394000001244,1.882669617649262,,experiment,emotion,0.0,,,,877.0337709999999,27,27,female,True
280,116.0,25,F,up,0.623461899999711,1.6490662346239786,,experiment,emotion,0.0,,,,879.5836603000002,27,27,female,True
281,116.0,25,M,down,0.7192767999999887,1.5460870091050638,,experiment,emotion,0.0,,,,882.0168466,27,27,female,True
282,112.0,25,M,down,0.7629259999998794,0.8958211947098482,,experiment,emotion,0.0,,,,883.9001759000002,27,27,female,True
283,112.0,25,F,down,0.6253882000000885,1.3378449484105694,,experiment,emotion,0.0,,,,886.2667283999999,27,27,female,True
284,109.0,25,M,down,0.5834128000001328,0.3049638013313293,,experiment,emotion,0.0,,,,887.4667058,27,27,female,True
285,120.0,25,F,down,0.590578800000003,1.5831380362193728,,experiment,emotion,0.0,,,,889.9165843999999,27,27,female,True
286,116.0,25,F,down,0.5845649999996567,0.791643896428419,,experiment,emotion,0.0,,,,891.5665466999999,27,27,female,True
287,109.0,25,M,down,0.9566771999998308,1.0970038850000856,,experiment,emotion,0.0,,,,893.5164362,27,27,female,True
288,120.0,25,M,up,0.6470401999999922,0.8311633892318606,,experiment,emotion,0.0,,,,895.5830503000002,27,27,female,True
289,120.0,25,F,up,0.5477759000000333,0.4147823634669871,,experiment,emotion,0.0,,,,896.9163283000003,27,27,female,True
290,112.0,25,M,up,0.9891606999999568,0.940170871387942,,experiment,emotion,0.0,,,,898.6829545999999,27,27,female,True
291,109.0,25,F,up,1.122943099999702,1.507063411432084,,experiment,emotion,0.0,,,,901.4661617000002,27,27,female,True
292,112.0,25,F,up,0.6537318000000596,1.8871709847667948,,experiment,emotion,0.0,,,,904.7493909,27,27,female,True
293,116.0,25,F,up,0.6031702000000223,1.1346196674266658,,experiment,emotion,0.0,,,,906.8159328000002,27,27,female,True
294,109.0,25,M,up,0.629238400000304,1.230890303797041,,experiment,emotion,0.0,,,,908.9158648000002,27,27,female,True
295,120.0,25,M,up,0.6799814999999398,0.7751146040553776,,experiment,emotion,0.0,,,,910.5991176000002,27,27,female,True
296,116.0,25,M,up,0.6360026000002108,1.5599291781496856,,experiment,emotion,0.0,,,,913.0991312,27,27,female,True
297,120.0,25,F,up,0.969450400000369,0.8545980013489947,,experiment,emotion,0.0,,,,914.8656651,27,27,female,True
298,109.0,25,F,down,0.7358527000001231,1.2250115619367514,,experiment,emotion,0.0,,,,917.3322452000002,27,27,female,True
299,116.0,25,M,up,0.7529770999999528,1.633650801558998,,experiment,emotion,0.0,,,,919.9821279000004,27,27,female,True
300,112.0,25,F,down,0.9890255999998772,0.4721954043245003,,experiment,emotion,0.0,,,,921.4820899,27,27,female,True
301,112.0,25,M,up,0.6531367999996291,1.1387487868409223,,experiment,emotion,0.0,,,,923.8819533,27,27,female,True
302,116.0,25,M,up,0.6772181000001183,1.382542495209768,,experiment,emotion,0.0,,,,926.1819099,27,27,female,True
303,120.0,25,M,up,0.6162722999997641,0.3017496896503314,,experiment,emotion,0.0,,,,927.4318168,27,27,female,True
304,112.0,25,F,up,0.456907400000091,0.342024458860829,,experiment,emotion,0.0,,,,928.6651508999998,27,27,female,True
305,109.0,25,F,up,0.746715199999926,1.4316145683314832,,experiment,emotion,0.0,,,,930.8484011,27,27,female,True
306,109.0,25,M,up,0.5771058000000266,0.5951512771980534,,experiment,emotion,0.0,,,,932.4650265,27,27,female,True
307,112.0,25,F,up,0.5798933999999463,1.2949230271825911,,experiment,emotion,0.0,,,,934.5982421,27,27,female,True
308,120.0,25,F,up,0.599239099999977,1.2673357826479663,,experiment,emotion,0.0,,,,936.7147854999998,27,27,female,True
309,116.0,25,M,up,0.6663902999998754,1.8263284726310036,,experiment,emotion,0.0,,,,939.4147031000002,27,27,female,True
310,109.0,25,M,up,0.6090984999996181,0.8493283555125082,,experiment,emotion,0.0,,,,941.1979849,27,27,female,True
311,120.0,25,F,up,0.5791429999999309,1.486744159027793,,experiment,emotion,0.0,,,,943.5479276,27,27,female,True
312,116.0,25,M,down,0.8819124999999985,1.2318101149558929,,experiment,emotion,0.0,,,,945.6311848,27,27,female,True
313,116.0,25,F,down,0.9209768000000622,0.5611837403297032,,experiment,emotion,0.0,,,,947.3310994,27,27,female,True
314,109.0,25,F,up,0.9739974999997684,0.8124008495971478,,experiment,emotion,0.0,,,,949.3310655,27,27,female,True
315,112.0,25,F,down,0.9331592000003184,1.7908297473442625,,experiment,emotion,0.0,,,,952.3809069,27,27,female,True
316,120.0,25,M,down,0.7785364999999729,0.8179814487629904,,experiment,emotion,0.0,,,,954.3975283,27,27,female,True
317,112.0,25,M,down,0.694635500000004,0.7448216878423786,,experiment,emotion,0.0,,,,956.197431,27,27,female,True
318,112.0,25,F,up,1.260388199999852,1.9581302862651229,,experiment,emotion,0.0,,,,959.1306813,27,27,female,True
319,112.0,25,F,up,0.7338475000001381,0.5831176860111307,,experiment,emotion,0.0,,,,961.2472551,27,27,female,True
320,120.0,25,M,up,0.6745473999999376,1.634739374149056,,experiment,emotion,0.0,,,,963.8804998,27,27,female,True
321,116.0,25,M,up,0.6109996000000137,0.9258225413811264,,experiment,emotion,0.0,,,,965.7470693,27,27,female,True
322,109.0,25,M,up,0.6393761999997878,1.011480194547805,,experiment,emotion,0.0,,,,967.6636874,27,27,female,True
323,109.0,25,M,up,0.6007708999995884,0.6177796846615227,,experiment,emotion,0.0,,,,969.1802860000004,27,27,female,True
324,116.0,25,M,down,0.8284997999999177,1.8673004526631245,,experiment,emotion,0.0,,,,971.9135067000002,27,27,female,True
325,120.0,25,F,down,0.7166480999999294,1.9641116214675896,,experiment,emotion,0.0,,,,974.9633824000002,27,27,female,True
326,120.0,25,F,down,0.6710425999999643,1.3822086943850314,,experiment,emotion,0.0,,,,977.3300061999998,27,27,female,True
327,109.0,25,M,down,0.7719444000003932,1.4481376886103747,,experiment,emotion,0.0,,,,979.7131521,27,27,female,True
328,120.0,25,F,down,0.6039001000003736,1.8438293829659371,,experiment,emotion,0.0,,,,982.6131245,27,27,female,True
329,112.0,25,F,down,0.4673722000002271,1.5414370150704546,,experiment,emotion,0.0,,,,985.0296981,27,27,female,True
330,116.0,25,F,down,0.5711510000000999,1.9467264207613524,,experiment,emotion,0.0,,,,987.7129387,27,27,female,True
331,112.0,25,M,down,0.7362159999997857,1.3105441484515212,,experiment,emotion,0.0,,,,989.8628321,27,27,female,True
332,109.0,25,F,down,0.7150777000001654,1.9222263543989375,,experiment,emotion,0.0,,,,992.7960671,27,27,female,True
333,116.0,25,F,down,0.6604722000001857,1.916693434462433,,experiment,emotion,0.0,,,,995.7126051,27,27,female,True
334,112.0,25,F,down,0.6345277999998871,1.9269430436401027,,experiment,emotion,0.0,,,,998.562509,27,27,female,True
335,116.0,25,M,down,0.7959900999999263,1.1094320860812688,,experiment,emotion,0.0,,,,1000.5790812,27,27,female,True
336,109.0,25,M,down,0.8346730999996907,0.6223059248865129,,experiment,emotion,0.0,,,,1002.2623814,27,27,female,True
337,120.0,25,F,down,0.8350970999999845,0.4554009095794196,,experiment,emotion,0.0,,,,1003.8289122,27,27,female,True
338,116.0,25,M,down,0.6439354999997704,1.8679960342374364,,experiment,emotion,0.0,,,,1006.8121751,27,27,female,True
339,120.0,25,F,up,0.5662928000001557,1.6053210789347294,,experiment,emotion,0.0,,,,1009.3287569,27,27,female,True
340,109.0,25,M,up,0.6023761999999806,1.075237836708612,,experiment,emotion,0.0,,,,1011.2286706999998,27,27,female,True
341,112.0,25,M,up,0.8613778999997521,1.859440316714924,,experiment,emotion,0.0,,,,1013.9786129,27,27,female,True
342,0.4922798829994618,25,up,up,0.6352194000000964,1.923555634988631,,experiment,cRDM,1.0,,,,1025.6448016,27,27,female,True
343,0.4922798829994618,25,up,up,0.775655800000095,1.324691348592685,,experiment,cRDM,1.0,,,,1027.8613506000002,27,27,female,True
344,0.4922798829994618,25,down,down,0.5508284000002277,1.9123165435372251,,experiment,cRDM,1.0,,,,1030.8112055,27,27,female,True
345,0.4922798829994618,25,down,down,0.600157500000023,0.5586355696727993,,experiment,cRDM,1.0,,,,1032.1778501,27,27,female,True
346,0.4922798829994618,25,up,up,0.4562440999998216,0.9886519356071386,,experiment,cRDM,1.0,,,,1034.0277642,27,27,female,True
347,0.4922798829994618,25,down,down,0.4729447999998228,1.6268340863807098,,experiment,cRDM,1.0,,,,1036.3610212,27,27,female,True
348,0.4922798829994618,25,up,up,0.4927200000001903,1.69404171631496,,experiment,cRDM,1.0,,,,1038.7942773,27,27,female,True
349,0.4922798829994618,25,up,down,0.5156561999997393,1.4239913248973264,,experiment,cRDM,1.0,,,,1040.9775132999998,27,27,female,True
350,0.4922798829994618,25,down,down,0.5898841999996876,0.8428030966554638,,experiment,cRDM,1.0,,,,1042.5941240000002,27,27,female,True
351,0.4922798829994618,25,down,down,0.6033194999999978,1.931816869624296,,experiment,cRDM,1.0,,,,1045.360681,27,27,female,True
352,0.4922798829994618,25,down,down,0.606549399999949,1.0788309127412612,,experiment,cRDM,1.0,,,,1047.3105988000002,27,27,female,True
353,0.4922798829994618,25,down,up,0.6894737999996323,1.045024532925879,,experiment,cRDM,1.0,,,,1049.2105230000002,27,27,female,True
354,0.4922798829994618,25,down,down,0.9278709999998682,1.466873106779212,,experiment,cRDM,1.0,,,,1051.6271446,27,27,female,True
355,0.4922798829994618,25,down,down,0.6129390000000967,0.3638148689877738,,experiment,cRDM,1.0,,,,1053.1770566,27,27,female,True
356,0.4922798829994618,25,up,up,0.6036794999999984,1.5000950873126868,,experiment,cRDM,1.0,,,,1055.5603162000002,27,27,female,True
357,0.4922798829994618,25,up,up,0.8004549000002044,1.0625529226251278,,experiment,cRDM,1.0,,,,1057.4935495,27,27,female,True
358,0.4922798829994618,25,up,down,0.7775575000000572,1.691097385783223,,experiment,cRDM,1.0,,,,1060.2434647,27,27,female,True
359,0.4922798829994618,25,up,up,0.6222902999998041,1.741193182121468,,experiment,cRDM,1.0,,,,1063.0266801000002,27,27,female,True
360,0.4922798829994618,25,down,down,0.9756213000000572,0.3343578749000724,,experiment,cRDM,1.0,,,,1064.2433614,27,27,female,True
361,0.4922798829994618,25,up,up,0.6877682000003915,0.7290443640311994,,experiment,cRDM,1.0,,,,1066.1932117,27,27,female,True
362,0.4922798829994618,25,up,up,0.5868188999997983,1.6943377669784143,,experiment,cRDM,1.0,,,,1068.8431810000002,27,27,female,True
363,0.4922798829994618,25,down,up,0.5908994999999777,0.4941786835690913,,experiment,cRDM,1.0,,,,1070.1930841,27,27,female,True
364,0.4922798829994618,25,up,up,0.5756113000002188,1.0700624366827427,,experiment,cRDM,1.0,,,,1072.1263830000005,27,27,female,True
365,0.4922798829994618,25,down,down,0.6453755000002275,1.3891663748938423,,experiment,cRDM,1.0,,,,1074.3595928,27,27,female,True
366,0.4922798829994618,25,down,up,0.6317977000003339,1.8109320012910388,,experiment,cRDM,1.0,,,,1077.0762067,27,27,female,True
367,0.4922798829994618,25,up,up,0.5262748000000101,0.5229049766756373,,experiment,cRDM,1.0,,,,1078.4927652,27,27,female,True
368,0.4922798829994618,25,up,up,0.4715937999999369,0.8684000714012268,,experiment,cRDM,1.0,,,,1080.1593828,27,27,female,True
369,0.4922798829994618,25,down,down,0.5597078999999212,1.5221406481312696,,experiment,cRDM,1.0,,,,1082.4092650000002,27,27,female,True
370,0.4922798829994618,25,up,up,0.6533954000001359,1.407959117469323,,experiment,cRDM,1.0,,,,1084.6425786999998,27,27,female,True
371,0.4922798829994618,25,down,up,0.6364475999998831,0.8409572344454299,,experiment,cRDM,1.0,,,,1086.3924889999998,27,27,female,True
372,0.4922798829994618,25,down,down,0.7239724999999453,1.8697570276356767,,experiment,cRDM,1.0,,,,1089.1590442000002,27,27,female,True
373,0.4922798829994618,25,down,down,0.6831364999998186,1.9192857633912053,,experiment,cRDM,1.0,,,,1092.0588758,27,27,female,True
374,0.4922798829994618,25,up,up,0.5917054000001372,0.5568578242397089,,experiment,cRDM,1.0,,,,1093.5422474000002,27,27,female,True
375,0.4922798829994618,25,up,up,0.6365121999997427,1.3295212140271968,,experiment,cRDM,1.0,,,,1095.7254549,27,27,female,True
376,0.4922798829994618,25,up,up,0.5126324000002569,1.6991842371793793,,experiment,cRDM,1.0,,,,1098.3253637000005,27,27,female,True
377,0.4922798829994618,25,down,down,0.7316898999997647,1.9792282549082256,,experiment,cRDM,1.0,,,,1101.0752782,27,27,female,True
378,0.4922798829994618,25,down,up,0.6485046000002512,1.6357443715444837,,experiment,cRDM,1.0,,,,1103.7084761,27,27,female,True
379,0.4922798829994618,25,up,up,0.4761555000000044,0.8190635030900606,,experiment,cRDM,1.0,,,,1105.4417976,27,27,female,True
380,0.4922798829994618,25,down,down,0.5902728000000934,1.6672073191150032,,experiment,cRDM,1.0,,,,1107.8416998000002,27,27,female,True
381,0.4922798829994618,25,up,up,0.4734132000003228,1.8012121841130555,,experiment,cRDM,1.0,,,,1110.4915662,27,27,female,True
382,0.4922798829994618,25,up,up,0.4824238999999579,1.9157176989390696,,experiment,cRDM,1.0,,,,1113.1415091,27,27,female,True
383,0.4922798829994618,25,up,up,0.583581200000026,0.9968753469682652,,experiment,cRDM,1.0,,,,1114.8913977000002,27,27,female,True
384,0.4922798829994618,25,down,down,0.6118469000002733,1.1520072651268365,,experiment,cRDM,1.0,,,,1116.8913088,27,27,female,True
385,0.4922798829994618,25,down,down,0.6630353999998988,0.7896111110139443,,experiment,cRDM,1.0,,,,1118.5579122,27,27,female,True
386,0.4922798829994618,25,up,up,0.4423599000001559,0.4905860453204173,,experiment,cRDM,1.0,,,,1119.9745523,27,27,female,True
387,0.4922798829994618,25,down,down,0.7884172000003673,0.5291764474051125,,experiment,cRDM,1.0,,,,1121.2245294,27,27,female,True
388,0.4922798829994618,25,down,down,0.6224928000001455,1.7500025077433077,,experiment,cRDM,1.0,,,,1124.0244432,27,27,female,True
389,0.4922798829994618,25,up,up,0.4733742000003076,1.9420460687671488,,experiment,cRDM,1.0,,,,1126.8576194000002,27,27,female,True
390,0.4922798829994618,25,up,up,0.497039500000028,0.7831080269286861,,experiment,cRDM,1.0,,,,1128.3909106,27,27,female,True
391,0.4922798829994618,25,down,up,0.4169200999999702,0.5411239488031898,,experiment,cRDM,1.0,,,,1129.6908400000002,27,27,female,True
392,0.4922798829994618,25,up,up,0.4170157999997173,0.6923059827589435,,experiment,cRDM,1.0,,,,1131.0741456,27,27,female,True
393,0.4922798829994618,25,down,down,0.6288551000002371,1.1616645432001498,,experiment,cRDM,1.0,,,,1132.9240877000002,27,27,female,True
394,0.4922798829994618,25,down,down,0.8336586999998872,1.9819065869087695,,experiment,cRDM,1.0,,,,1135.8072777000002,27,27,female,True
395,0.4922798829994618,25,down,up,0.7263512999998056,0.5822481397015145,,experiment,cRDM,1.0,,,,1137.490531,27,27,female,True
396,0.4922798829994618,25,up,up,0.6388153000002603,0.722484840285315,,experiment,cRDM,1.0,,,,1139.2071394,27,27,female,True
397,0.4922798829994618,25,up,up,0.558155700000043,0.3794777350405964,,experiment,cRDM,1.0,,,,1140.4737904,27,27,female,True
398,0.4922798829994618,25,down,up,0.4835401000000274,0.9922506882487314,,experiment,cRDM,1.0,,,,1142.2903934,27,27,female,True
399,0.4922798829994618,25,down,up,0.4826296999999613,0.9565567420836408,,experiment,cRDM,1.0,,,,1143.9903032000002,27,27,female,True
400,0.4922798829994618,25,up,up,0.5626607999997759,1.4082162402824243,,experiment,cRDM,1.0,,,,1146.1402662,27,27,female,True
401,0.4922798829994618,25,up,up,0.4877645999999913,0.7655206948149601,,experiment,cRDM,1.0,,,,1147.7401911000002,27,27,female,True
402,0.4922798829994618,25,up,up,0.5131612000000132,1.4316073887429832,,experiment,cRDM,1.0,,,,1149.9067458,27,27,female,True
403,0.4922798829994618,25,up,up,0.5666562999999769,1.393948021573272,,experiment,cRDM,1.0,,,,1152.0733817,27,27,female,True
404,0.4922798829994618,25,up,up,0.4559785999999803,1.2408605072843804,,experiment,cRDM,1.0,,,,1154.1399906,27,27,female,True
405,0.4922798829994618,25,down,down,0.6574318999996649,1.5517280846895534,,experiment,cRDM,1.0,,,,1156.4064833000002,27,27,female,True
406,0.4922798829994618,25,down,down,0.625099500000033,0.6048329623576997,,experiment,cRDM,1.0,,,,1157.9398166,27,27,female,True
407,0.4922798829994618,25,up,down,0.5311388999998599,0.6995527171628697,,experiment,cRDM,1.0,,,,1159.5397672,27,27,female,True
408,0.4922798829994618,25,down,up,0.8766122000001815,0.6195697668584376,,experiment,cRDM,1.0,,,,1160.956342,27,27,female,True
409,0.4922798829994618,25,down,up,0.5969534000000749,0.3286043690764723,,experiment,cRDM,1.0,,,,1162.4229283,27,27,female,True
410,0.4922798829994618,25,down,up,0.5080192000000352,0.4445775022168913,,experiment,cRDM,1.0,,,,1163.7229149999998,27,27,female,True
411,0.4922798829994618,25,up,up,0.4217951000000539,0.8253283593986691,,experiment,cRDM,1.0,,,,1165.3061523,27,27,female,True
412,0.4922798829994618,25,down,down,0.7741465999997672,1.4383645642232534,,experiment,cRDM,1.0,,,,1167.4227633,27,27,female,True
413,0.4922798829994618,25,down,up,0.6329396999999517,1.051257859573515,,experiment,cRDM,1.0,,,,1169.5060016000002,27,27,female,True
414,0.4922798829994618,25,down,up,0.4969255999999404,0.6635501310841858,,experiment,cRDM,1.0,,,,1171.0559616,27,27,female,True
415,0.4922798829994618,25,up,up,0.548012799999924,1.4880307846479737,,experiment,cRDM,1.0,,,,1173.3058726,27,27,female,True
416,0.4922798829994618,25,up,up,0.2670920999998998,1.1306211777485973,,experiment,cRDM,1.0,,,,1175.23918,27,27,female,True
417,0.4922798829994618,25,down,down,0.5481895000002623,1.8257847170415744,,experiment,cRDM,1.0,,,,1177.755714,27,27,female,True
418,0.4922798829994618,25,up,up,0.6888586000000032,0.3721475109066463,,experiment,cRDM,1.0,,,,1178.9390431000002,27,27,female,True
419,0.4922798829994618,25,down,down,0.5626176999999188,1.5914920790571745,,experiment,cRDM,1.0,,,,1181.4722349,27,27,female,True
420,0.4922798829994618,25,up,up,0.4414153000002443,1.313885534579993,,experiment,cRDM,1.0,,,,1183.6054821000002,27,27,female,True
421,0.4922798829994618,25,up,up,0.5425147000000834,0.8920428141873988,,experiment,cRDM,1.0,,,,1185.2053848,27,27,female,True
422,120.0,25,M,down,0.7800472000003538,0.6616180557418487,,experiment,emotion,1.0,,,,1193.4718449000002,27,27,female,True
423,109.0,25,M,down,0.6441030999999384,1.0796236735531657,,experiment,emotion,1.0,,,,1195.6217875000002,27,27,female,True
424,116.0,25,F,up,0.6573597000001428,0.8463699008945367,,experiment,emotion,1.0,,,,1197.4055216000002,27,27,female,True
425,120.0,25,F,up,0.5420383000000584,0.5773502688675456,,experiment,emotion,1.0,,,,1198.9049062,27,27,female,True
426,116.0,25,M,up,0.7566231000000698,1.419833602103057,,experiment,emotion,1.0,,,,1201.1382647,27,27,female,True
427,112.0,25,F,up,0.9451364000001377,1.890274688242629,,experiment,emotion,1.0,,,,1204.0547489,27,27,female,True
428,109.0,25,M,up,0.6148097999998754,1.066257003401327,,experiment,emotion,1.0,,,,1206.3380618,27,27,female,True
429,112.0,25,M,down,0.6646130999997695,1.147326702787376,,experiment,emotion,1.0,,,,1208.3712916,27,27,female,True
430,120.0,25,F,up,0.6070494000000508,0.3578022441073115,,experiment,emotion,1.0,,,,1209.6878924000002,27,27,female,True
431,112.0,25,F,up,0.9620504999998049,1.8676076865339428,,experiment,emotion,1.0,,,,1212.4378213,27,27,female,True
432,116.0,25,F,up,0.5361120000002302,0.3711919381655038,,experiment,emotion,1.0,,,,1214.0377870000002,27,27,female,True
433,120.0,25,F,up,0.57019739999987,0.3373015513823693,,experiment,emotion,1.0,,,,1215.1876837999998,27,27,female,True
434,116.0,25,F,up,1.0732075999999324,0.6171698592097951,,experiment,emotion,1.0,,,,1216.6376672,27,27,female,True
435,109.0,25,F,up,0.6053009000002021,1.054056885780431,,experiment,emotion,1.0,,,,1219.0375758,27,27,female,True
436,112.0,25,M,down,0.8040235000003122,0.5589726410169322,,experiment,emotion,1.0,,,,1220.4708462,27,27,female,True
437,109.0,25,M,down,0.8107860000000073,1.3594911595084689,,experiment,emotion,1.0,,,,1222.9040674000005,27,27,female,True
438,120.0,25,M,down,0.614822500000173,0.5623618706884468,,experiment,emotion,1.0,,,,1224.5540308999998,27,27,female,True
439,109.0,25,M,up,0.6425757999995767,0.4004816826682284,,experiment,emotion,1.0,,,,1225.8373074,27,27,female,True
440,116.0,25,F,up,0.5722845999998754,0.3310296826662297,,experiment,emotion,1.0,,,,1227.0706129,27,27,female,True
441,116.0,25,M,up,0.6173463000000083,0.5445960070350415,,experiment,emotion,1.0,,,,1228.4705267,27,27,female,True
442,112.0,25,M,up,0.8044810000001235,0.9573571408054582,,experiment,emotion,1.0,,,,1230.320381,27,27,female,True
443,112.0,25,F,up,0.668806499999846,0.9021118420399872,,experiment,emotion,1.0,,,,1232.2870528,27,27,female,True
444,109.0,25,M,up,0.9862732999999936,1.3934289609658037,,experiment,emotion,1.0,,,,1234.6036344,27,27,female,True
445,120.0,25,F,up,0.780605999999807,1.943306791468,,experiment,emotion,1.0,,,,1237.8035028,27,27,female,True
446,116.0,25,F,up,0.5997849000000315,0.5695421413169746,,experiment,emotion,1.0,,,,1239.4201088,27,27,female,True
447,109.0,25,M,up,1.2457948999999644,0.5609219561294965,,experiment,emotion,1.0,,,,1240.8700651,27,27,female,True
448,120.0,25,M,up,0.5861187999998947,0.4556686523553422,,experiment,emotion,1.0,,,,1242.8367134,27,27,female,True
449,120.0,25,F,down,0.907751400000052,1.9181979596488457,,experiment,emotion,1.0,,,,1245.6032652,27,27,female,True
450,112.0,25,M,up,0.6541861000000608,0.6071026639856345,,experiment,emotion,1.0,,,,1247.4198231,27,27,female,True
451,109.0,25,F,up,0.5016989999999169,0.3165062745814105,,experiment,emotion,1.0,,,,1248.6531065,27,27,female,True
452,112.0,25,F,up,0.3834748999997828,0.6210561489516606,,experiment,emotion,1.0,,,,1250.0530805,27,27,female,True
453,116.0,25,F,down,0.890164200000072,0.5663975545746227,,experiment,emotion,1.0,,,,1251.3196833000002,27,27,female,True
454,109.0,25,M,down,0.5882784000000356,0.6355091315797228,,experiment,emotion,1.0,,,,1253.1195822999998,27,27,female,True
455,120.0,25,M,up,0.6154301999999916,0.8427120907131498,,experiment,emotion,1.0,,,,1254.8195107,27,27,female,True
456,116.0,25,M,down,0.8130820000001222,1.6922071606512883,,experiment,emotion,1.0,,,,1257.4027847000002,27,27,female,True
457,120.0,25,F,up,0.7451859000002514,1.8334713302766303,,experiment,emotion,1.0,,,,1260.302658,27,27,female,True
458,109.0,25,F,up,0.5292187000000013,1.1217029638150224,,experiment,emotion,1.0,,,,1262.4526159000002,27,27,female,True
459,116.0,25,M,up,0.5740330000003269,1.334846690979578,,experiment,emotion,1.0,,,,1264.5858145000002,27,27,female,True
460,112.0,25,F,up,0.6210542000003443,1.74625862750966,,experiment,emotion,1.0,,,,1267.1857394,27,27,female,True
461,112.0,25,M,down,1.660797300000013,1.06161311132583,,experiment,emotion,1.0,,,,1269.1190226,27,27,female,True
462,116.0,25,M,up,0.7356850000001032,1.8487683655560152,,experiment,emotion,1.0,,,,1272.9021819,27,27,female,True
463,120.0,25,M,up,0.9740336999998362,1.376104413051742,,experiment,emotion,1.0,,,,1275.3187773999998,27,27,female,True
464,112.0,25,F,down,0.675796999999875,1.0852004246535794,,experiment,emotion,1.0,,,,1277.6520378,27,27,female,True
465,109.0,25,F,down,0.6649253999999019,0.3857208034776308,,experiment,emotion,1.0,,,,1279.0018869,27,27,female,True
466,109.0,25,M,down,0.6869861000000128,1.264659619843791,,experiment,emotion,1.0,,,,1281.2018334,27,27,female,True
467,112.0,25,F,down,0.608056999999917,1.3374810901632637,,experiment,emotion,1.0,,,,1283.5017609,27,27,female,True
468,120.0,25,F,down,0.7068438999999671,1.0971282512688905,,experiment,emotion,1.0,,,,1285.4850385,27,27,female,True
469,116.0,25,M,down,0.8625662999997985,1.7843244468848605,,experiment,emotion,1.0,,,,1288.268273,27,27,female,True
470,109.0,25,M,up,0.7112762000001567,1.0550343537700269,,experiment,emotion,1.0,,,,1290.4515612,27,27,female,True
471,120.0,25,F,up,0.572370299999875,0.8682844011686712,,experiment,emotion,1.0,,,,1292.3014382,27,27,female,True
472,116.0,25,M,up,0.6851013999998941,1.5548512805312138,,experiment,emotion,1.0,,,,1294.6847235,27,27,female,True
473,116.0,25,F,up,1.1502055000000837,1.352500479313732,,experiment,emotion,1.0,,,,1296.9846334,27,27,female,True
474,109.0,25,F,down,0.9132842999997592,1.4706160591037534,,experiment,emotion,1.0,,,,1299.8845302,27,27,female,True
475,112.0,25,F,down,0.8713705000000118,0.8058541573456206,,experiment,emotion,1.0,,,,1301.8844382000002,27,27,female,True
476,120.0,25,M,up,1.310218800000257,1.7756159557930364,,experiment,emotion,1.0,,,,1304.817643,27,27,female,True
477,112.0,25,M,up,0.5986164000000826,0.6919450308307835,,experiment,emotion,1.0,,,,1307.0842475,27,27,female,True
478,112.0,25,F,up,0.6022910000001502,1.6189809057401512,,experiment,emotion,1.0,,,,1309.5675179999998,27,27,female,True
479,112.0,25,F,up,0.4970812999999907,0.3638449461893454,,experiment,emotion,1.0,,,,1310.8007501000002,27,27,female,True
480,120.0,25,M,up,0.5035302999999658,1.3138596739995785,,experiment,emotion,1.0,,,,1312.8673864000002,27,27,female,True
481,116.0,25,M,up,0.5837091999997028,1.8411680174271956,,experiment,emotion,1.0,,,,1315.5172096,27,27,female,True
482,109.0,25,M,up,0.5062392999998337,1.1185237066770228,,experiment,emotion,1.0,,,,1317.5005156000002,27,27,female,True
483,109.0,25,M,up,0.603327100000115,0.8618338579045055,,experiment,emotion,1.0,,,,1319.1504733000002,27,27,female,True
484,116.0,25,M,up,0.6164169000003312,1.5639011176155568,,experiment,emotion,1.0,,,,1321.6003460000002,27,27,female,True
485,120.0,25,F,up,0.5141673000002811,1.0028693318819015,,experiment,emotion,1.0,,,,1323.4836283999998,27,27,female,True
486,120.0,25,F,up,0.6259230000000571,1.5496819406397522,,experiment,emotion,1.0,,,,1325.8168773000002,27,27,female,True
487,109.0,25,M,up,0.4770064999997885,0.4095122685725434,,experiment,emotion,1.0,,,,1327.116791,27,27,female,True
488,120.0,25,F,up,0.4786744000002727,1.3853049965479682,,experiment,emotion,1.0,,,,1329.2500927,27,27,female,True
489,112.0,25,F,up,0.4967560999998568,0.6910987229865957,,experiment,emotion,1.0,,,,1330.7000176,27,27,female,True
490,116.0,25,F,up,0.445154999999886,1.6763729981734046,,experiment,emotion,1.0,,,,1333.1666182,27,27,female,True
491,112.0,25,M,up,0.4948837000001731,0.7611464908037417,,experiment,emotion,1.0,,,,1334.6498923,27,27,female,True
492,109.0,25,F,up,1.014301799999885,1.9134250343103871,,experiment,emotion,1.0,,,,1337.3164824,27,27,female,True
493,116.0,25,F,up,0.5404475000000275,1.9102004357564064,,experiment,emotion,1.0,,,,1340.5163395999998,27,27,female,True
494,112.0,25,F,up,0.627117300000009,1.2841163403705302,,experiment,emotion,1.0,,,,1342.5995782999998,27,27,female,True
495,116.0,25,M,up,0.6049318000000312,1.1434308657467995,,experiment,emotion,1.0,,,,1344.6328376,27,27,female,True
496,109.0,25,M,up,0.4490000000000691,0.8857705361348369,,experiment,emotion,1.0,,,,1346.3827918000002,27,27,female,True
497,120.0,25,F,up,0.5780556999998225,0.3790799092763587,,experiment,emotion,1.0,,,,1347.4827371,27,27,female,True
498,116.0,25,M,down,0.778087400000004,0.7474213782277017,,experiment,emotion,1.0,,,,1349.0826876,27,27,female,True
499,120.0,25,F,down,0.600548500000059,1.6151940510795824,,experiment,emotion,1.0,,,,1351.7492327,27,27,female,True
500,109.0,25,M,up,0.5128558000001249,1.055805735706722,,experiment,emotion,1.0,,,,1353.6659016,27,27,female,True
501,112.0,25,M,down,0.7933199999997669,0.9764555233364012,,experiment,emotion,1.0,,,,1355.4324459,27,27,female,True
502,0.4922798829994618,25,up,up,0.835649199999807,1.0944812708331522,,experiment,cRDM,2.0,,,,1361.6821149000002,27,27,female,True
503,0.4922798829994618,25,up,up,0.732159799999863,1.5747640465433264,,experiment,cRDM,2.0,,,,1364.3486884,27,27,female,True
504,0.4922798829994618,25,down,down,0.5611487000001034,1.467244400137934,,experiment,cRDM,2.0,,,,1366.7985933,27,27,female,True
505,0.4922798829994618,25,down,down,0.5665297000000464,0.5885526556871994,,experiment,cRDM,2.0,,,,1368.2152483,27,27,female,True
506,0.4922798829994618,25,up,up,0.487251500000184,0.4522865431483123,,experiment,cRDM,2.0,,,,1369.4985087,27,27,female,True
507,0.4922798829994618,25,down,down,0.5036789000000681,1.066927046151253,,experiment,cRDM,2.0,,,,1371.31511,27,27,female,True
508,0.4922798829994618,25,up,down,0.7213937000001351,1.986919482089088,,experiment,cRDM,2.0,,,,1374.0483493000002,27,27,female,True
509,0.4922798829994618,25,up,down,0.6425066000001607,1.057097485875148,,experiment,cRDM,2.0,,,,1376.0982401,27,27,female,True
510,0.4922798829994618,25,down,down,0.5235534999997071,0.3582457730604566,,experiment,cRDM,2.0,,,,1377.3482196,27,27,female,True
511,0.4922798829994618,25,down,up,0.6666315999996186,0.7571784760582008,,experiment,cRDM,2.0,,,,1378.8981219000002,27,27,female,True
512,0.4922798829994618,25,down,down,0.5639478999996754,0.7761559973637115,,experiment,cRDM,2.0,,,,1380.6148074000002,27,27,female,True
513,0.4922798829994618,25,down,down,0.5170422999999573,0.5856518367515211,,experiment,cRDM,2.0,,,,1382.0147168,27,27,female,True
514,0.4922798829994618,25,down,down,0.3505169000000023,0.6417319728508261,,experiment,cRDM,2.0,,,,1383.4313214,27,27,female,True
515,0.4922798829994618,25,down,down,0.4675002999997559,0.9719044904774544,,experiment,cRDM,2.0,,,,1385.0812374000002,27,27,female,True
516,0.4922798829994618,25,up,up,0.6272973000000093,1.663104018200329,,experiment,cRDM,2.0,,,,1387.4644914,27,27,female,True
517,0.4922798829994618,25,up,up,0.5140223999997033,1.889389415336764,,experiment,cRDM,2.0,,,,1390.2477171,27,27,female,True
518,0.4922798829994618,25,up,up,0.5613777999997183,1.4934572180319985,,experiment,cRDM,2.0,,,,1392.5143491,27,27,female,True
519,0.4922798829994618,25,up,up,0.4610988999997971,0.4072062660763039,,experiment,cRDM,2.0,,,,1393.7475932000002,27,27,female,True
520,0.4922798829994618,25,down,up,0.4675474000000577,1.1439398267918597,,experiment,cRDM,2.0,,,,1395.6141957999998,27,27,female,True
521,0.4922798829994618,25,up,up,0.567009699999744,1.733627380009848,,experiment,cRDM,2.0,,,,1398.0807252,27,27,female,True
522,0.4922798829994618,25,up,up,0.5456948000000921,0.6564685706838329,,experiment,cRDM,2.0,,,,1399.564045,27,27,female,True
523,0.4922798829994618,25,down,down,0.6407523000002584,0.3960244346476723,,experiment,cRDM,2.0,,,,1400.7639857,27,27,female,True
524,0.4922798829994618,25,up,up,0.468105899999955,1.5708816036470394,,experiment,cRDM,2.0,,,,1403.2305761000002,27,27,female,True
525,0.4922798829994618,25,down,down,0.4933058999999957,1.358332566719518,,experiment,cRDM,2.0,,,,1405.3304939,27,27,female,True
526,0.4922798829994618,25,down,down,0.5989905999999792,0.8797040256589719,,experiment,cRDM,2.0,,,,1406.9637616999998,27,27,female,True
527,0.4922798829994618,25,up,up,0.5797515999997813,1.683101828388976,,experiment,cRDM,2.0,,,,1409.4969924000002,27,27,female,True
528,0.4922798829994618,25,up,up,0.9860827000002246,0.3155382733002237,,experiment,cRDM,2.0,,,,1410.6636261,27,27,female,True
529,0.4922798829994618,25,down,up,1.23951390000002,1.5254114565388155,,experiment,cRDM,2.0,,,,1413.4302151000002,27,27,female,True
530,0.4922798829994618,25,up,up,0.5366642999997566,0.8001344978646163,,experiment,cRDM,2.0,,,,1415.7301558,27,27,female,True
531,0.4922798829994618,25,down,down,0.6816286000002947,0.3021243944203262,,experiment,cRDM,2.0,,,,1416.8300943,27,27,female,True
532,0.4922798829994618,25,down,down,0.6760764999999083,1.3266592521494829,,experiment,cRDM,2.0,,,,1419.0966452000002,27,27,female,True
533,0.4922798829994618,25,down,down,0.5365116999996644,1.1846272173973469,,experiment,cRDM,2.0,,,,1421.2131968,27,27,female,True
534,0.4922798829994618,25,up,up,0.4696094999999332,0.7959341442066528,,experiment,cRDM,2.0,,,,1422.8131426,27,27,female,True
535,0.4922798829994618,25,up,up,0.5313656000002993,1.7085547856058798,,experiment,cRDM,2.0,,,,1425.2464117,27,27,female,True
536,0.4922798829994618,25,up,up,0.4976744000000508,0.6678754232524046,,experiment,cRDM,2.0,,,,1426.7130246000002,27,27,female,True
537,0.4922798829994618,25,down,down,0.5920375000000604,1.4513614204534528,,experiment,cRDM,2.0,,,,1428.9296332,27,27,female,True
538,0.4922798829994618,25,down,up,0.4998309999996309,0.8751130819083488,,experiment,cRDM,2.0,,,,1430.6628752,27,27,female,True
539,0.4922798829994618,25,up,up,0.4906243999998878,1.8680666172199405,,experiment,cRDM,2.0,,,,1433.2960995,27,27,female,True
540,0.4922798829994618,25,down,down,0.6063411000000087,1.1264848597133053,,experiment,cRDM,2.0,,,,1435.1793774000002,27,27,female,True
541,0.4922798829994618,25,up,up,0.4324212000001353,1.1770287947878617,,experiment,cRDM,2.0,,,,1437.2293132,27,27,female,True
542,0.4922798829994618,25,up,up,0.4918603999999504,0.5138961552611704,,experiment,cRDM,2.0,,,,1438.4459171,27,27,female,True
543,0.4922798829994618,25,up,up,0.4665038999996795,0.9290892673005122,,experiment,cRDM,2.0,,,,1440.129196,27,27,female,True
544,0.4922798829994618,25,down,up,0.7832911000000422,1.0014575961898269,,experiment,cRDM,2.0,,,,1441.8624455,27,27,female,True
545,0.4922798829994618,25,down,down,0.697391400000015,0.809718466145233,,experiment,cRDM,2.0,,,,1443.7123425999998,27,27,female,True
546,0.4922798829994618,25,up,up,0.4640967999998793,1.9658228643411648,,experiment,cRDM,2.0,,,,1446.6456065000002,27,27,female,True
547,0.4922798829994618,25,down,down,0.5205565999999635,1.7896639662478473,,experiment,cRDM,2.0,,,,1449.1621725,27,27,female,True
548,0.4922798829994618,25,down,up,0.5805995000000621,0.970916168809365,,experiment,cRDM,2.0,,,,1450.9121522,27,27,female,True
549,0.4922798829994618,25,up,up,0.5170308000001569,1.623243187158074,,experiment,cRDM,2.0,,,,1453.3786605,27,27,female,True
550,0.4922798829994618,25,up,up,0.4584727999999813,1.7902039661751057,,experiment,cRDM,2.0,,,,1455.9452606999998,27,27,female,True
551,0.4922798829994618,25,down,down,0.6278827999999521,1.888892283069331,,experiment,cRDM,2.0,,,,1458.5618086,27,27,female,True
552,0.4922798829994618,25,up,up,0.4678875999998126,1.259115898400302,,experiment,cRDM,2.0,,,,1460.7117869,27,27,female,True
553,0.4922798829994618,25,down,down,0.5670709999999417,0.7123203849523845,,experiment,cRDM,2.0,,,,1462.1616854,27,27,female,True
554,0.4922798829994618,25,down,up,0.4984530000001541,1.451170690349458,,experiment,cRDM,2.0,,,,1464.4282751,27,27,female,True
555,0.4922798829994618,25,down,up,0.46450139999979,0.7233256063999616,,experiment,cRDM,2.0,,,,1465.9281887000002,27,27,female,True
556,0.4922798829994618,25,up,up,0.4170509999999012,1.7736793879771255,,experiment,cRDM,2.0,,,,1468.4447768,27,27,female,True
557,0.4922798829994618,25,up,up,0.447610799999893,0.3048180351244613,,experiment,cRDM,2.0,,,,1469.4280825,27,27,female,True
558,0.4922798829994618,25,down,down,0.5150416999999834,1.4702898944521707,,experiment,cRDM,2.0,,,,1471.5946623,27,27,female,True
559,0.4922798829994618,25,down,down,0.54837310000039,0.5051557294786039,,experiment,cRDM,2.0,,,,1472.8612815,27,27,female,True
560,0.4922798829994618,25,up,up,0.4181543999998212,1.3832499083229155,,experiment,cRDM,2.0,,,,1475.0445309000002,27,27,female,True
561,0.4922798829994618,25,up,up,0.4711935000000267,0.5209623121974333,,experiment,cRDM,2.0,,,,1476.2444898,27,27,female,True
562,0.4922798829994618,25,up,up,0.4170285999998668,1.468608573551865,,experiment,cRDM,2.0,,,,1478.4277499,27,27,female,True
563,0.4922798829994618,25,up,up,0.4537243999998281,1.6619275947197014,,experiment,cRDM,2.0,,,,1480.7609873,27,27,female,True
564,0.4922798829994618,25,up,up,0.3671604999999545,1.0990752845880485,,experiment,cRDM,2.0,,,,1482.5775718,27,27,female,True
565,0.4922798829994618,25,down,up,0.4225014000003284,1.1838739450701952,,experiment,cRDM,2.0,,,,1484.4441852,27,27,female,True
566,0.4922798829994618,25,down,down,0.9152957000001152,1.5487501356901292,,experiment,cRDM,2.0,,,,1486.6774057000002,27,27,female,True
567,0.4922798829994618,25,up,up,0.4777001000002201,0.8958029059629726,,experiment,cRDM,2.0,,,,1488.744022,27,27,female,True
568,0.4922798829994618,25,down,up,0.59801219999963,1.9319049433477864,,experiment,cRDM,2.0,,,,1491.4106385,27,27,female,True
569,0.4922798829994618,25,down,up,0.5688427999998567,0.7106911999658552,,experiment,cRDM,2.0,,,,1492.9938453,27,27,female,True
570,0.4922798829994618,25,down,down,0.7189010999995844,1.7247383611583849,,experiment,cRDM,2.0,,,,1495.5437651000002,27,27,female,True
571,0.4922798829994618,25,up,up,0.5783249999999498,1.3381741097079678,,experiment,cRDM,2.0,,,,1497.8603392,27,27,female,True
572,0.4922798829994618,25,down,down,0.4873686999999336,1.5137760410570458,,experiment,cRDM,2.0,,,,1500.2102959,27,27,female,True
573,0.4922798829994618,25,down,down,0.6332507000001897,1.4246674509310446,,experiment,cRDM,2.0,,,,1502.3934794000002,27,27,female,True
574,0.4922798829994618,25,down,up,0.6819322000001193,0.3934618517938174,,experiment,cRDM,2.0,,,,1503.6767788000002,27,27,female,True
575,0.4922798829994618,25,up,up,0.4733126999999513,0.422809427670787,,experiment,cRDM,2.0,,,,1505.0434125000002,27,27,female,True
576,0.4922798829994618,25,up,up,0.4962840999996842,0.3569386992870354,,experiment,cRDM,2.0,,,,1506.143363,27,27,female,True
577,0.4922798829994618,25,down,up,0.4577386999999362,0.3643914263377111,,experiment,cRDM,2.0,,,,1507.2599921,27,27,female,True
578,0.4922798829994618,25,up,up,0.6445106000001033,0.9278391670611305,,experiment,cRDM,2.0,,,,1508.8932268,27,27,female,True
579,0.4922798829994618,25,down,down,0.5751405999999406,1.5904804207311083,,experiment,cRDM,2.0,,,,1511.3764999,27,27,female,True
580,0.4922798829994618,25,up,up,0.6212077000000136,1.9060126559523936,,experiment,cRDM,2.0,,,,1514.1264439,27,27,female,True
581,0.4922798829994618,25,up,up,0.4963079999997717,1.1661317914510367,,experiment,cRDM,2.0,,,,1516.1763323,27,27,female,True
582,120.0,25,M,up,1.107506100000137,1.5862253062688585,,experiment,emotion,2.0,,,,1523.4261447,27,27,female,True
583,109.0,25,M,up,0.6502654000000803,1.0377484803304042,,experiment,emotion,2.0,,,,1525.8593320999998,27,27,female,True
584,116.0,25,F,down,0.7917990999999347,1.829152542760232,,experiment,emotion,2.0,,,,1528.6259553,27,27,female,True
585,120.0,25,F,down,0.7211935000000267,1.1109768023990454,,experiment,emotion,2.0,,,,1530.7924791,27,27,female,True
586,116.0,25,M,down,0.633864899999935,1.437278638534188,,experiment,emotion,2.0,,,,1533.2257793,27,27,female,True
587,112.0,25,F,up,0.8156627000003027,1.2057641874906813,,experiment,emotion,2.0,,,,1535.3589719,27,27,female,True
588,109.0,25,M,up,0.7437104999999065,1.9024631332200272,,experiment,emotion,2.0,,,,1538.3589015000002,27,27,female,True
589,112.0,25,M,up,1.1927928999998585,0.5389890294493801,,experiment,emotion,2.0,,,,1539.9088416999998,27,27,female,True
590,120.0,25,F,down,0.8918828000000758,0.6219675299264571,,experiment,emotion,2.0,,,,1542.008765,27,27,female,True
591,112.0,25,F,down,0.7975997999997162,0.3572510273242336,,experiment,emotion,2.0,,,,1543.5420285,27,27,female,True
592,116.0,25,F,down,0.8183632000000216,1.487507538988612,,experiment,emotion,2.0,,,,1546.1252800000002,27,27,female,True
593,120.0,25,F,down,0.6054371999998693,1.264078738480933,,experiment,emotion,2.0,,,,1548.4751540000002,27,27,female,True
594,116.0,25,F,up,0.6468198000002303,0.4891292005131891,,experiment,emotion,2.0,,,,1549.84181,27,27,female,True
595,109.0,25,F,down,0.652607199999693,1.9401341793532785,,experiment,emotion,2.0,,,,1552.7250063,27,27,female,True
596,112.0,25,M,up,0.7893937999997434,0.8068854264163168,,experiment,emotion,2.0,,,,1554.4582546,27,27,female,True
597,109.0,25,M,down,0.911772999999812,1.3669183648252765,,experiment,emotion,2.0,,,,1556.8748518000002,27,27,female,True
598,120.0,25,M,up,0.6088537000000542,1.2095935450977708,,experiment,emotion,2.0,,,,1559.2747711000002,27,27,female,True
599,109.0,25,M,up,0.7529637000002367,1.5622266473977642,,experiment,emotion,2.0,,,,1561.7246732,27,27,female,True
600,116.0,25,F,up,0.6687138000002051,1.5011153979511005,,experiment,emotion,2.0,,,,1564.2579054000005,27,27,female,True
601,116.0,25,M,up,1.0004423000000315,0.5014861923787389,,experiment,emotion,2.0,,,,1565.6911735,27,27,female,True
602,112.0,25,M,up,0.6094538999996075,0.6829899945993776,,experiment,emotion,2.0,,,,1567.6411415000002,27,27,female,True
603,112.0,25,F,up,0.9692752999999356,1.7509819634958488,,experiment,emotion,2.0,,,,1570.274325,27,27,female,True
604,109.0,25,M,up,1.0347523000000365,0.9640153478129898,,experiment,emotion,2.0,,,,1572.4908679,27,27,female,True
605,120.0,25,F,up,0.7067589999996926,1.3342736847417267,,experiment,emotion,2.0,,,,1575.1408431999998,27,27,female,True
606,116.0,25,F,up,0.6479097000001275,1.5657198965284922,,experiment,emotion,2.0,,,,1577.6907021000002,27,27,female,True
607,109.0,25,M,up,0.7162997999998879,1.9079493199142443,,experiment,emotion,2.0,,,,1580.5072968,27,27,female,True
608,120.0,25,M,up,0.6646952000000965,1.334196559418198,,experiment,emotion,2.0,,,,1582.8238898999998,27,27,female,True
609,120.0,25,F,up,0.7261775000001762,1.3342992858271792,,experiment,emotion,2.0,,,,1585.0904213,27,27,female,True
610,112.0,25,M,up,0.5413478999998915,0.6861091615937027,,experiment,emotion,2.0,,,,1586.7903369,27,27,female,True
611,109.0,25,F,up,0.5015513000003011,0.4691961836447506,,experiment,emotion,2.0,,,,1588.0570422,27,27,female,True
612,112.0,25,F,down,0.6766461000001982,1.9704664655660136,,experiment,emotion,2.0,,,,1590.8069366999998,27,27,female,True
613,116.0,25,F,down,0.5971396999998433,0.3224196907052761,,experiment,emotion,2.0,,,,1592.0735343,27,27,female,True
614,109.0,25,M,down,0.6291246000000683,0.6913877492873655,,experiment,emotion,2.0,,,,1593.6234737999998,27,27,female,True
615,120.0,25,M,down,0.6331617999999253,1.0170409553131816,,experiment,emotion,2.0,,,,1595.5234345,27,27,female,True
616,116.0,25,M,up,0.8513283000002048,1.5010613486780158,,experiment,emotion,2.0,,,,1597.9233133000002,27,27,female,True
617,120.0,25,F,up,0.5147212000001673,0.4931606988776499,,experiment,emotion,2.0,,,,1599.5399275999998,27,27,female,True
618,109.0,25,F,up,0.6473660999999993,0.398713834207747,,experiment,emotion,2.0,,,,1600.7232438,27,27,female,True
619,116.0,25,M,down,0.8231223000002501,1.2122666517720615,,experiment,emotion,2.0,,,,1602.8564729,27,27,female,True
620,112.0,25,F,down,0.6598271000002569,0.468961841091973,,experiment,emotion,2.0,,,,1604.4397554000002,27,27,female,True
621,112.0,25,M,down,0.6579249999999774,1.670000850215637,,experiment,emotion,2.0,,,,1607.0396448,27,27,female,True
622,116.0,25,M,up,0.7834205999997721,1.5905982107430394,,experiment,emotion,2.0,,,,1609.5561951,27,27,female,True
623,120.0,25,M,up,0.5374053999998978,0.3964633829317904,,experiment,emotion,2.0,,,,1611.0061746,27,27,female,True
624,112.0,25,F,up,0.4834909999999581,0.9476060002748126,,experiment,emotion,2.0,,,,1612.7561082000002,27,27,female,True
625,109.0,25,F,down,0.6369031999997787,1.1640153704312688,,experiment,emotion,2.0,,,,1614.6726481,27,27,female,True
626,109.0,25,M,down,0.6829986000002464,1.353372629439218,,experiment,emotion,2.0,,,,1616.9226159999998,27,27,female,True
627,112.0,25,F,down,0.4781103000000257,1.0054356039990924,,experiment,emotion,2.0,,,,1618.8724981,27,27,female,True
628,120.0,25,F,up,0.4951452000000245,1.7126969671632586,,experiment,emotion,2.0,,,,1621.3224488,27,27,female,True
629,116.0,25,M,up,0.6012385999997605,1.410665799907865,,experiment,emotion,2.0,,,,1623.5223547,27,27,female,True
630,109.0,25,M,up,0.7456818000000567,1.6062441016011624,,experiment,emotion,2.0,,,,1625.9888944,27,27,female,True
631,120.0,25,F,up,0.6240595999997822,0.7637133780846124,,experiment,emotion,2.0,,,,1627.7555138000002,27,27,female,True
632,116.0,25,M,up,0.5914451999997254,0.925332094945288,,experiment,emotion,2.0,,,,1629.5721288,27,27,female,True
633,116.0,25,F,up,0.6005388000003222,1.9230415712472853,,experiment,emotion,2.0,,,,1632.3720228000002,27,27,female,True
634,109.0,25,F,up,0.8687479000000167,1.972802397645793,,experiment,emotion,2.0,,,,1635.2219309000002,27,27,female,True
635,112.0,25,F,up,0.4831131000000823,1.5600434299617143,,experiment,emotion,2.0,,,,1637.9384759999998,27,27,female,True
636,120.0,25,M,up,0.5191711999996187,1.100599021419845,,experiment,emotion,2.0,,,,1639.7883967000002,27,27,female,True
637,112.0,25,M,up,0.6378810000001067,0.7467860710874303,,experiment,emotion,2.0,,,,1641.3216791999998,27,27,female,True
638,112.0,25,F,up,0.7029950999999528,1.8447354136875864,,experiment,emotion,2.0,,,,1644.0715942000002,27,27,female,True
639,112.0,25,F,up,0.6413923999998588,0.982513203279704,,experiment,emotion,2.0,,,,1646.0381665999998,27,27,female,True
640,120.0,25,M,up,0.4461584999999104,1.2244383026452352,,experiment,emotion,2.0,,,,1648.1714373999998,27,27,female,True
641,116.0,25,M,up,0.4170076000000335,0.687122873750998,,experiment,emotion,2.0,,,,1649.5879968,27,27,female,True
642,109.0,25,M,down,0.4295878999996603,1.7561314702713264,,experiment,emotion,2.0,,,,1652.0379673000002,27,27,female,True
643,109.0,25,M,down,0.5086678000002394,0.8260013780480371,,experiment,emotion,2.0,,,,1653.5878836000002,27,27,female,True
644,116.0,25,M,down,0.7060554999998203,1.3400630084040122,,experiment,emotion,2.0,,,,1655.7044853000002,27,27,female,True
645,120.0,25,F,up,0.4965072999998483,1.540833058899428,,experiment,emotion,2.0,,,,1658.2210332999998,27,27,female,True
646,120.0,25,F,up,0.7135643000001437,0.4793733697988705,,experiment,emotion,2.0,,,,1659.4710013,27,27,female,True
647,109.0,25,M,down,0.5833688000002439,1.9115911167403603,,experiment,emotion,2.0,,,,1662.3542278999998,27,27,female,True
648,120.0,25,F,down,0.6107548999998471,1.7075936723291518,,experiment,emotion,2.0,,,,1664.9208122,27,27,female,True
649,112.0,25,F,down,0.6611835000003339,0.3658983455905409,,experiment,emotion,2.0,,,,1666.1873818,27,27,female,True
650,116.0,25,F,up,0.7869903000000704,1.6323780158070704,,experiment,emotion,2.0,,,,1668.7706353,27,27,female,True
651,112.0,25,M,down,0.7799779000001763,0.7485958739101517,,experiment,emotion,2.0,,,,1670.5705636000002,27,27,female,True
652,109.0,25,F,down,0.6663797999999588,1.8221559787289825,,experiment,emotion,2.0,,,,1673.4371787,27,27,female,True
653,116.0,25,F,up,0.6631591000000299,1.9429498817363209,,experiment,emotion,2.0,,,,1676.3203829,27,27,female,True
654,112.0,25,F,up,0.6725672000002305,1.1472710344252692,,experiment,emotion,2.0,,,,1678.3869597000005,27,27,female,True
655,116.0,25,M,up,0.7946376999998392,1.5961181260834207,,experiment,emotion,2.0,,,,1680.9368742,27,27,female,True
656,109.0,25,M,up,0.6467109999998684,0.448678302733884,,experiment,emotion,2.0,,,,1682.4368211,27,27,female,True
657,120.0,25,F,up,0.5535858000002918,1.8078808806247948,,experiment,emotion,2.0,,,,1685.1700094000005,27,27,female,True
658,116.0,25,M,up,0.5589780999998766,1.9908733577513804,,experiment,emotion,2.0,,,,1687.9865744,27,27,female,True
659,120.0,25,F,up,0.5936817000001611,0.8450351337285285,,experiment,emotion,2.0,,,,1689.6698459,27,27,female,True
660,109.0,25,M,up,0.6147863999999572,1.016486621945464,,experiment,emotion,2.0,,,,1691.5697872,27,27,female,True
661,112.0,25,M,up,0.4652003999999579,0.5206089084691352,,experiment,emotion,2.0,,,,1692.986311,27,27,female,True
662,0.4922798829994618,25,up,up,0.6587611999998444,1.994742847564295,,experiment,cRDM,3.0,,,,1701.2027607,27,27,female,True
663,0.4922798829994618,25,up,up,0.4702383999997437,0.6341032597021048,,experiment,cRDM,3.0,,,,1702.7692894000002,27,27,female,True
664,0.4922798829994618,25,down,down,0.4686367999997856,1.088124979199422,,experiment,cRDM,3.0,,,,1704.5859077,27,27,female,True
665,0.4922798829994618,25,down,down,0.4879385999997794,1.4829187164078863,,experiment,cRDM,3.0,,,,1706.8025335000002,27,27,female,True
666,0.4922798829994618,25,up,up,0.4568217999994886,1.2182835191045036,,experiment,cRDM,3.0,,,,1708.7857327000002,27,27,female,True
667,0.4922798829994618,25,down,down,0.4885158999995838,1.5107220979277738,,experiment,cRDM,3.0,,,,1711.0189925000004,27,27,female,True
668,0.4922798829994618,25,up,up,0.4769213999998101,1.0681506408847825,,experiment,cRDM,3.0,,,,1712.8355933000005,27,27,female,True
669,0.4922798829994618,25,up,up,0.6280084999998508,1.2621731937340936,,experiment,cRDM,3.0,,,,1714.8354958,27,27,female,True
670,0.4922798829994618,25,down,down,0.5751001999997243,0.7025760889792385,,experiment,cRDM,3.0,,,,1716.4354739,27,27,female,True
671,0.4922798829994618,25,down,down,0.6201270000001387,1.305189162181611,,experiment,cRDM,3.0,,,,1718.5853757000004,27,27,female,True
672,0.4922798829994618,25,down,down,0.6279477999996743,1.4145925927370215,,experiment,cRDM,3.0,,,,1720.8686098999997,27,27,female,True
673,0.4922798829994618,25,down,down,0.5250018000006094,1.6118072865966724,,experiment,cRDM,3.0,,,,1723.3685016999998,27,27,female,True
674,0.4922798829994618,25,down,down,0.6480555999996795,1.4628168626273808,,experiment,cRDM,3.0,,,,1725.6184436000003,27,27,female,True
675,0.4922798829994618,25,down,down,0.6235145000000557,1.567831233068712,,experiment,cRDM,3.0,,,,1728.0850057999996,27,27,female,True
676,0.4922798829994618,25,up,up,0.5825426000001244,0.4166026222775676,,experiment,cRDM,3.0,,,,1729.3849910999998,27,27,female,True
677,0.4922798829994618,25,up,up,0.5712374999993699,0.4296116156945019,,experiment,cRDM,3.0,,,,1730.6682585999995,27,27,female,True
678,0.4922798829994618,25,up,up,0.6036562999997841,1.6867792299794513,,experiment,cRDM,3.0,,,,1733.1848419999997,27,27,female,True
679,0.4922798829994618,25,up,up,0.4947969000004377,0.8855200113458273,,experiment,cRDM,3.0,,,,1734.9347521999998,27,27,female,True
680,0.4922798829994618,25,down,down,0.6510815000001458,1.104344327907724,,experiment,cRDM,3.0,,,,1736.8014105000002,27,27,female,True
681,0.4922798829994618,25,up,up,0.5869657999992342,1.683399902302394,,experiment,cRDM,3.0,,,,1739.3845898,27,27,female,True
682,0.4922798829994618,25,up,up,0.4870101999995313,1.1518607454177787,,experiment,cRDM,3.0,,,,1741.3845021999996,27,27,female,True
683,0.4922798829994618,25,down,down,0.6106918000004953,0.3362318647659922,,experiment,cRDM,3.0,,,,1742.4677920000004,27,27,female,True
684,0.4922798829994618,25,up,up,0.518170100000134,0.9284880681674228,,experiment,cRDM,3.0,,,,1744.2843844999998,27,27,female,True
685,0.4922798829994618,25,down,down,0.7650862999998935,0.6681269178150819,,experiment,cRDM,3.0,,,,1745.7343687000002,27,27,female,True
686,0.4922798829994618,25,down,down,0.663886199999979,1.7548203293482758,,experiment,cRDM,3.0,,,,1748.5175898999996,27,27,female,True
687,0.4922798829994618,25,up,up,0.4736240000001999,0.5218881282772483,,experiment,cRDM,3.0,,,,1749.9508638999996,27,27,female,True
688,0.4922798829994618,25,up,up,0.5496785999994245,1.668657482888493,,experiment,cRDM,3.0,,,,1752.3508018000002,27,27,female,True
689,0.4922798829994618,25,down,down,0.4747987000000648,1.280765449151627,,experiment,cRDM,3.0,,,,1754.4506947999998,27,27,female,True
690,0.4922798829994618,25,up,up,0.4561806000001525,1.3348240176792416,,experiment,cRDM,3.0,,,,1756.5172912999997,27,27,female,True
691,0.4922798829994618,25,down,down,0.641885000000002,0.757213440578365,,experiment,cRDM,3.0,,,,1758.0005732999998,27,27,female,True
692,0.4922798829994618,25,down,down,0.4769974000000729,1.685849967574892,,experiment,cRDM,3.0,,,,1760.6004779000004,27,27,female,True
693,0.4922798829994618,25,down,down,0.556376000000455,0.6852290205448477,,experiment,cRDM,3.0,,,,1762.0170835999998,27,27,female,True
694,0.4922798829994618,25,up,up,0.679163900000276,1.4979954235769826,,experiment,cRDM,3.0,,,,1764.3503124,27,27,female,True
695,0.4922798829994618,25,up,up,0.5575742000000901,1.7730029304865176,,experiment,cRDM,3.0,,,,1767.0668934000005,27,27,female,True
696,0.4922798829994618,25,up,up,0.5110745000001771,1.731070558538569,,experiment,cRDM,3.0,,,,1769.6334775000005,27,27,female,True
697,0.4922798829994618,25,down,down,0.5493688999995356,0.8962839259501454,,experiment,cRDM,3.0,,,,1771.3000972,27,27,female,True
698,0.4922798829994618,25,down,down,0.5251453000000765,1.7806104380103085,,experiment,cRDM,3.0,,,,1773.8833218,27,27,female,True
699,0.4922798829994618,25,up,up,0.5406671000000642,1.1193351673662897,,experiment,cRDM,3.0,,,,1775.7837783000004,27,27,female,True
700,0.4922798829994618,25,down,down,0.5269361000000572,0.4890801791929295,,experiment,cRDM,3.0,,,,1777.0665219000002,27,27,female,True
701,0.4922798829994618,25,up,up,0.36715600000025,0.4528993229979648,,experiment,cRDM,3.0,,,,1778.3164678000005,27,27,female,True
702,0.4922798829994618,25,up,up,0.5129750000005515,0.9259366719473778,,experiment,cRDM,3.0,,,,1779.9164710000005,27,27,female,True
703,0.4922798829994618,25,up,up,0.5720953000000009,1.8348302021462464,,experiment,cRDM,3.0,,,,1782.5163607000004,27,27,female,True
704,0.4922798829994618,25,down,down,0.5152402000003349,1.1695611851764554,,experiment,cRDM,3.0,,,,1784.5162400999998,27,27,female,True
705,0.4922798829994618,25,down,down,0.5336072000000058,0.7376544924543564,,experiment,cRDM,3.0,,,,1786.0328425999996,27,27,female,True
706,0.4922798829994618,25,up,up,0.4516675000004397,1.5595891626061176,,experiment,cRDM,3.0,,,,1788.3827908000003,27,27,female,True
707,0.4922798829994618,25,down,down,0.6234594999996261,1.0351275438621297,,experiment,cRDM,3.0,,,,1790.1160130999997,27,27,female,True
708,0.4922798829994618,25,down,down,0.6671219999998357,0.5481605308300984,,experiment,cRDM,3.0,,,,1791.5493243,27,27,female,True
709,0.4922798829994618,25,up,up,0.5182454000005237,1.669815904844941,,experiment,cRDM,3.0,,,,1794.1492056999996,27,27,female,True
710,0.4922798829994618,25,up,up,0.5202868999995189,1.017016160169113,,experiment,cRDM,3.0,,,,1795.9491392,27,27,female,True
711,0.4922798829994618,25,down,down,0.5193895000002158,1.6767228870967377,,experiment,cRDM,3.0,,,,1798.3990584000005,27,27,female,True
712,0.4922798829994618,25,up,up,0.4391734999999244,1.291630485800732,,experiment,cRDM,3.0,,,,1800.4822802999995,27,27,female,True
713,0.4922798829994618,25,down,down,0.5472364000006564,1.953773594951384,,experiment,cRDM,3.0,,,,1803.132205,27,27,female,True
714,0.4922798829994618,25,down,down,0.4676734000004217,0.816942752931392,,experiment,cRDM,3.0,,,,1804.7487923,27,27,female,True
715,0.4922798829994618,25,down,up,0.4002381000000241,1.4141598438430574,,experiment,cRDM,3.0,,,,1806.8987336,27,27,female,True
716,0.4922798829994618,25,up,up,0.4761313999997583,1.3498987253506531,,experiment,cRDM,3.0,,,,1808.9153294,27,27,female,True
717,0.4922798829994618,25,up,up,0.5761834000004455,1.2125826623095606,,experiment,cRDM,3.0,,,,1810.8652545000004,27,27,female,True
718,0.4922798829994618,25,down,down,0.6679450000001452,1.4404415758684577,,experiment,cRDM,3.0,,,,1813.1484899,27,27,female,True
719,0.4922798829994618,25,down,down,0.6700158999992709,1.3693314760101625,,experiment,cRDM,3.0,,,,1815.4484188,27,27,female,True
720,0.4922798829994618,25,up,up,0.5091363999999885,1.9634349512873108,,experiment,cRDM,3.0,,,,1818.348292,27,27,female,True
721,0.4922798829994618,25,up,up,0.6625530999999683,0.8470298649623307,,experiment,cRDM,3.0,,,,1819.9648872,27,27,female,True
722,0.4922798829994618,25,up,down,0.4633192999999664,1.3609650176913697,,experiment,cRDM,3.0,,,,1822.2481378,27,27,female,True
723,0.4922798829994618,25,up,up,0.8073413000001892,1.1376320129406157,,experiment,cRDM,3.0,,,,1824.098084,27,27,female,True
724,0.4922798829994618,25,up,up,0.5927356000001964,0.3956558057178291,,experiment,cRDM,3.0,,,,1825.5646892000004,27,27,female,True
725,0.4922798829994618,25,down,down,0.5874689000002036,1.479939188548274,,experiment,cRDM,3.0,,,,1827.8979375,27,27,female,True
726,0.4922798829994618,25,down,down,0.5292254000005414,1.934763652937325,,experiment,cRDM,3.0,,,,1830.6811714,27,27,female,True
727,0.4922798829994618,25,up,down,0.7049740000002203,1.0362115597251624,,experiment,cRDM,3.0,,,,1832.5144307,27,27,female,True
728,0.4922798829994618,25,down,down,0.6533225000002858,0.4365625275904403,,experiment,cRDM,3.0,,,,1833.9310718,27,27,female,True
729,0.4922798829994618,25,down,down,0.6561328000007052,1.8065243166730265,,experiment,cRDM,3.0,,,,1836.6642874,27,27,female,True
730,0.4922798829994618,25,down,down,0.5802108999996562,0.927904192380467,,experiment,cRDM,3.0,,,,1838.5142104,27,27,female,True
731,0.4922798829994618,25,up,down,0.6316741999999067,0.6128151134202537,,experiment,cRDM,3.0,,,,1839.9808098000003,27,27,female,True
732,0.4922798829994618,25,down,down,0.5143277000006492,0.3789820676031061,,experiment,cRDM,3.0,,,,1841.2640917,27,27,female,True
733,0.4922798829994618,25,down,down,0.5286925999998857,0.9330736130140392,,experiment,cRDM,3.0,,,,1842.9807217,27,27,female,True
734,0.4922798829994618,25,down,down,0.5288594000003286,1.8167341878595125,,experiment,cRDM,3.0,,,,1845.5806097000004,27,27,female,True
735,0.4922798829994618,25,up,down,0.6498771000005945,1.5662182751596403,,experiment,cRDM,3.0,,,,1847.9305198,27,27,female,True
736,0.4922798829994618,25,up,down,0.612992999999733,1.8855739407382897,,experiment,cRDM,3.0,,,,1850.7304164,27,27,female,True
737,0.4922798829994618,25,down,down,0.5947611000001416,1.3515875443977308,,experiment,cRDM,3.0,,,,1852.9636472,27,27,female,True
738,0.4922798829994618,25,up,down,0.5468540000001667,1.6311525334741572,,experiment,cRDM,3.0,,,,1855.4635671,27,27,female,True
739,0.4922798829994618,25,down,down,0.4866601000003356,1.859612420945736,,experiment,cRDM,3.0,,,,1858.1467987,27,27,female,True
740,0.4922798829994618,25,up,down,0.6423383000001195,1.4402946946521775,,experiment,cRDM,3.0,,,,1860.3300603,27,27,female,True
741,0.4922798829994618,25,up,down,0.5653639000001931,0.6775845502387234,,experiment,cRDM,3.0,,,,1861.9133265,27,27,female,True
742,120.0,25,M,down,0.9615660999998,0.4071233132731847,,experiment,emotion,3.0,,,,1869.7297757,27,27,female,True
743,109.0,25,M,down,0.8041733000000022,1.374644789628236,,experiment,emotion,3.0,,,,1872.3462696,27,27,female,True
