,stimLvl,stimTime,rand,response,rt,precedingITI,trialNumber,trialType,stimuli,block,estIntens,estThres,estSlope,trialStart,subject,age,gender,headRest
0,0.9,100,down,down,2.04390519997105,1.0468379293052616,,introTrial,cRDM,,,,,141.47420999989845,98,26,female,True
1,150.0,100,F,up,1.1334664999740198,0.8751320619043177,,introTrial,emotion,,,,,144.6905280998908,98,26,female,True
2,0.9,25,up,up,0.7195392999565229,0.3299820316144625,,tutorial,cRDM,,,,,167.50649539998267,98,26,female,True
3,0.9,25,down,down,0.6393021000549197,1.2232052168191945,,tutorial,cRDM,,,,,169.73972219997086,98,26,female,True
4,0.9,25,up,up,0.4606807000236586,1.4356278829559723,,tutorial,cRDM,,,,,172.10630039998796,98,26,female,True
5,0.9,25,up,up,0.5722389000002295,0.5382643477651032,,tutorial,cRDM,,,,,173.37280539993662,98,26,female,True
6,0.9,25,down,down,0.3839625000255182,0.98739166120393,,tutorial,cRDM,,,,,175.20619279996026,98,26,female,True
7,0.9,25,down,down,0.4885483999969437,0.8459326019686626,,tutorial,cRDM,,,,,176.73946599999908,98,26,female,True
8,0.9,25,up,up,0.6100228000432253,0.7713502258665444,,tutorial,cRDM,,,,,178.2730009999359,98,26,female,True
9,0.9,25,down,down,0.5056968000717461,1.6928527736473344,,tutorial,cRDM,,,,,180.83932219992855,98,26,female,True
10,0.9,25,up,up,0.3671593000181019,1.339000256997813,,tutorial,cRDM,,,,,182.95588939997836,98,26,female,True
11,0.9,25,down,down,0.367251299903728,0.8170932666075825,,tutorial,cRDM,,,,,184.4724535999121,98,26,female,True
12,200.0,25,M,up,0.58196889993269,0.3385630649193379,,tutorial,emotion,,,,,189.18901699990963,98,26,female,True
13,200.0,25,M,up,0.772948500001803,1.9071081856621015,,tutorial,emotion,,,,,191.9720190999797,98,26,female,True
14,200.0,25,F,up,0.4509782999521121,0.9488537864237028,,tutorial,emotion,,,,,193.97201109991877,98,26,female,True
15,0.0,25,F,down,0.476277899928391,0.8656839770468885,,tutorial,emotion,,,,,195.5887963999994,98,26,female,True
16,0.0,25,M,down,0.6300244000740349,1.3198035391936929,,tutorial,emotion,,,,,197.67196179996245,98,26,female,True
17,200.0,25,F,up,0.5303805000148714,0.8107219769771927,,tutorial,emotion,,,,,199.3886307999492,98,26,female,True
18,0.0,25,M,down,0.7677890999475494,1.263610140042003,,tutorial,emotion,,,,,201.455209299922,98,26,female,True
19,200.0,25,M,up,0.5529119999846444,0.645773454847536,,tutorial,emotion,,,,,203.15514659998007,98,26,female,True
20,0.0,25,F,down,0.6246924999868497,1.260804991041246,,tutorial,emotion,,,,,205.23844879993703,98,26,female,True
21,0.0,25,F,down,0.6166875000344589,0.7431907467007637,,tutorial,emotion,,,,,206.8883699999424,98,26,female,True
22,0.29,25,up,up,0.6217961000511423,1.6489124683978131,,psi_staircase_training,cRDM,,0.25,0.2569312402994632,0.105,214.67122729995756,98,26,female,True
23,0.25,25,up,up,0.5903834999771789,1.6348246612159163,,psi_staircase_training,cRDM,,0.2191026665318312,0.2260132002683492,0.1046863203387393,217.2046389000025,98,26,female,True
24,0.21,25,down,down,0.5457367000635713,1.0540550399381936,,psi_staircase_training,cRDM,,0.1900540959403307,0.1968497961554001,0.1029467298424999,219.1212455999339,98,26,female,True
25,0.18,25,down,down,0.7944715999765322,1.960958312012808,,psi_staircase_training,cRDM,,0.1635257589279754,0.1701521334256793,0.1003816477568649,221.90451669995676,98,26,female,True
26,0.15,25,up,up,0.5992617000592873,1.826915358650573,,psi_staircase_training,cRDM,,0.1401895574244936,0.1466013351187503,0.0971307628663642,224.787724899943,98,26,female,True
27,0.13,25,down,down,0.5597375999204814,1.5891479517677451,,psi_staircase_training,cRDM,,0.1198760602145479,0.1260554767618333,0.0936107694196103,227.25426719989628,98,26,female,True
28,0.11,25,up,up,0.4638341000536456,1.3618050133149195,,psi_staircase_training,cRDM,,0.1025773523696548,0.1084910344569865,0.0895852101993795,229.4542001999216,98,26,female,True
29,0.09,25,down,up,1.0331984999356791,0.42383337926206,,psi_staircase_training,cRDM,,0.087844325958594,0.0934818215320969,0.0854013148647635,230.6208116998896,98,26,female,True
30,0.15,25,down,up,0.729305199929513,0.8387752799684334,,psi_staircase_training,cRDM,,0.131559124731803,0.1381188895520143,0.0993725908154588,232.7706851999974,98,26,female,True
31,0.23,25,up,down,0.8833736999658868,1.567849850392807,,psi_staircase_training,cRDM,,0.1889892425399224,0.1968770422405746,0.1194907307762242,235.32064279995396,98,26,female,True
32,0.32,25,down,down,0.7077925000339746,1.5622574213597822,,psi_staircase_training,cRDM,,0.2630277868854259,0.2716706396297911,0.130928881260778,238.0372078999644,98,26,female,True
33,0.3,25,down,down,0.7058957000263035,1.9650504751339168,,psi_staircase_training,cRDM,,0.2431965009752507,0.2518706189965367,0.1314025128093678,240.98708160000388,98,26,female,True
34,0.28,25,down,down,0.6200165000045672,1.51138956757325,,psi_staircase_training,cRDM,,0.2256590437356463,0.2342824406801506,0.1306341491641922,243.4869908998953,98,26,female,True
35,0.26,25,up,up,0.7424123000819236,0.954378995567897,,psi_staircase_training,cRDM,,0.2100860448420795,0.2186320218623475,0.129461329914882,245.3536014999263,98,26,female,True
36,0.22,25,up,up,0.7055247999960557,1.0093389457978523,,psi_staircase_training,cRDM,,0.1958382793876554,0.2043426902576883,0.1288316524565747,247.3704859999707,98,26,female,True
37,0.22,25,down,down,0.7938707999419421,1.5663968446993246,,psi_staircase_training,cRDM,,0.1806347527304805,0.1893600469877301,0.1321777715717265,249.92010379990097,98,26,female,True
38,0.21,25,down,down,0.6319052000762895,1.9813573033938432,,psi_staircase_training,cRDM,,0.1672586592643563,0.1760809306812518,0.1336468595448569,252.97002519993111,98,26,female,True
39,0.21,25,up,up,0.644684600061737,0.8240998000954047,,psi_staircase_training,cRDM,,0.1554195582385473,0.1642670227143834,0.1340285042540989,254.70329899992797,98,26,female,True
40,0.2,25,up,down,0.7804888000246137,1.5667200459205806,,psi_staircase_training,cRDM,,0.1454577181159089,0.1542447535777753,0.1331130769723016,257.1865341999801,98,26,female,True
41,0.23,25,up,up,0.6656113000353798,1.30168860537857,,psi_staircase_training,cRDM,,0.1830024130800438,0.1922293603903594,0.1397772152926449,259.5364242999349,98,26,female,True
42,0.22,25,up,up,0.5959713000338525,0.8062720269790677,,psi_staircase_training,cRDM,,0.1724775472151524,0.1817319724458525,0.1401934729198125,261.30304439994507,98,26,female,True
43,0.19,25,down,up,1.4366088000824675,0.3206521111372988,,psi_staircase_training,cRDM,,0.1628816648233405,0.1721591894579172,0.1405434012590762,262.48635489994194,98,26,female,True
44,0.24,25,down,up,1.2044637000653893,1.7046253738901058,,psi_staircase_training,cRDM,,0.19420857214087,0.2030025614964035,0.1332184201437257,265.9195414999267,98,26,female,True
45,0.29,25,down,down,0.9109075999585912,0.9417953545488698,,psi_staircase_training,cRDM,,0.2287489768669152,0.2380738580939309,0.1412607969907595,268.3361063000048,98,26,female,True
46,0.29,25,up,,,1.5834528018373533,,psi_staircase_training,cRDM,,0.2196371563420028,0.2287972723926113,0.1387648016457275,271.1026634000009,98,26,female,True
47,0.29,25,down,down,0.7419688000809401,1.5834528018373533,,psi_staircase_training,cRDM,,0.2196371563420028,0.2287972723926113,0.1387648016457275,275.36902949993964,98,26,female,True
48,0.23,25,up,up,0.8311619000742212,1.1006410907447537,,psi_staircase_training,cRDM,,0.21210121650704,0.2210664243515961,0.1358121754559981,277.485803199932,98,26,female,True
49,0.23,25,down,down,0.9172200000612064,0.4015994286760038,,psi_staircase_training,cRDM,,0.202272374909937,0.2114724670640127,0.1393703917973754,278.9857308999635,98,26,female,True
50,0.23,25,down,down,0.54903499991633,1.618562038035197,,psi_staircase_training,cRDM,,0.1933000733511492,0.2026476117297012,0.1416040257360518,281.81893719988875,98,26,female,True
51,0.23,25,up,up,1.016815899987705,0.7124391609512899,,psi_staircase_training,cRDM,,0.1852368939127179,0.194661171306798,0.1427665300328774,283.3691569999792,98,26,female,True
52,0.23,25,up,down,0.788896800018847,1.9360438683561896,,psi_staircase_training,cRDM,,0.1780591048241074,0.1875050434124728,0.1430946712170944,286.60210389993154,98,26,female,True
53,100.0,25,M,up,0.7950588000239804,0.8327022272525981,,psi_staircase_training,emotion,,100.0,100.0,25.00050000000001,291.6519418999087,98,26,female,True
54,55.0,25,M,down,0.7934718999313191,1.8119615825136333,,psi_staircase_training,emotion,,54.7428094675419,54.7428094675419,25.00050000000011,294.6184750999091,98,26,female,True
55,79.0,25,F,down,0.9259500000625848,1.417278231808783,,psi_staircase_training,emotion,,79.636070985635,79.636070985635,25.713269254886413,297.1850603999337,98,26,female,True
56,103.0,25,F,up,1.1263575000921264,0.8930198693369733,,psi_staircase_training,emotion,,97.61123893914808,97.61123893914808,26.1463337262867,299.3516131999204,98,26,female,True
57,87.0,25,M,up,0.7154230999294668,0.7302596020289467,,psi_staircase_training,emotion,,85.98876744579668,85.98876744579668,23.003056417783498,301.55157199990936,98,26,female,True
58,73.0,25,F,down,0.7261629999848083,0.3237335420788447,,psi_staircase_training,emotion,,76.84494728761523,76.84494728761523,23.862671666125223,302.93483549996745,98,26,female,True
59,83.0,25,M,up,0.7085876000346616,0.4636445642034683,,psi_staircase_training,emotion,,83.27335240078496,83.27335240078496,20.612160618333935,304.4514233999653,98,26,female,True
60,72.0,25,M,down,0.7527355001075193,1.4348255282702436,,psi_staircase_training,emotion,,77.76901308559849,77.76901308559849,20.83216394857253,306.9682666999288,98,26,female,True
61,87.0,25,F,up,0.8530670000473037,1.7685734166847895,,psi_staircase_training,emotion,,81.3726357426898,81.3726357426898,17.524302199558218,309.81790199992247,98,26,female,True
62,76.0,25,F,up,1.3134517000289634,0.5519363971045296,,psi_staircase_training,emotion,,79.08789987068586,79.08789987068586,14.786658830344503,311.58452699997,98,26,female,True
63,64.0,25,F,down,1.5105685000307858,1.0566186060555092,,psi_staircase_training,emotion,,74.18466172485039,74.18466172485039,21.48321515845384,314.3344226999907,98,26,female,True
64,65.0,25,F,down,1.0560491000069303,1.4058579132069473,,psi_staircase_training,emotion,,76.72615155172763,76.72615155172763,18.56361341636848,317.65094849991146,98,26,female,True
65,89.0,25,F,down,0.7117535999277607,1.12298966675552,,psi_staircase_training,emotion,,78.26252959583962,78.26252959583962,16.16390565506239,320.184213600005,98,26,female,True
66,100.0,25,F,down,0.7549126000376418,1.0901064680224672,,psi_staircase_training,emotion,,82.43874255248122,82.43874255248122,23.929118806865556,322.33410249999724,98,26,female,True
67,111.0,25,M,up,0.8705985000124201,1.8966173427339947,,psi_staircase_training,emotion,,87.81435178850116,87.81435178850116,30.967222168727005,325.31735749996733,98,26,female,True
68,110.0,25,M,up,1.091103499988094,1.4053626791144602,,psi_staircase_training,emotion,,86.05581820820665,86.05581820820665,29.51336553462632,327.93390099995304,98,26,female,True
69,109.0,25,M,up,1.0675453000003472,1.2807425602311744,,psi_staircase_training,emotion,,84.66318835725497,84.66318835725497,28.148581653405405,330.6504604999209,98,26,female,True
70,60.0,25,M,down,0.7098467000760138,1.3932483871591528,,psi_staircase_training,emotion,,83.55087795289788,83.55087795289788,26.87333973708316,333.4670754999388,98,26,female,True
71,107.0,25,F,up,0.7340342999668792,1.5817021458208218,,psi_staircase_training,emotion,,84.63745218747971,84.63745218747971,25.521787314881564,336.11694340000395,98,26,female,True
72,62.0,25,M,down,0.6384047999745235,0.3464349351113774,,psi_staircase_training,emotion,,83.712217452854,83.712217452854,24.26000823790134,337.5835838998901,98,26,female,True
73,106.0,25,M,up,0.7272939000977203,0.5069805083319033,,psi_staircase_training,emotion,,84.60903851737712,84.60903851737712,22.96498055565196,339.0667104999302,98,26,female,True
74,63.0,25,F,down,0.9695456000044942,0.6450959500117346,,psi_staircase_training,emotion,,83.86420177388042,83.86420177388042,21.79268941471707,340.7834609999554,98,26,female,True
75,104.0,25,M,up,0.7020037999609485,0.8488622408753317,,psi_staircase_training,emotion,,84.57799191262475,84.57799191262475,20.63007881264444,343.1500001999084,98,26,female,True
76,65.0,25,F,down,0.7780443000374362,0.3527463328809402,,psi_staircase_training,emotion,,83.93680274658446,83.93680274658446,19.576474858337708,344.54996099998243,98,26,female,True
77,102.0,25,F,up,1.0100803000386804,0.3109574897306152,,psi_staircase_training,emotion,,84.54202554658188,84.54202554658188,18.557069375670626,345.9999129999196,98,26,female,True
78,67.0,25,M,down,0.6501915999688208,1.4870687132386684,,psi_staircase_training,emotion,,83.97162402789392,83.97162402789392,17.639483687651364,348.8498087999178,98,26,female,True
79,99.0,25,M,up,1.194922799943015,0.742074007796961,,psi_staircase_training,emotion,,84.50017689516521,84.50017689516521,16.769355540629753,350.5830786000006,98,26,female,True
80,68.0,25,F,down,0.6753862999612466,1.764876872537681,,psi_staircase_training,emotion,,83.93492488749679,83.93492488749679,15.975058357445862,353.8996163998964,98,26,female,True
81,97.0,25,M,down,0.7921239000279456,0.3159954114725296,,psi_staircase_training,emotion,,84.38125342592441,84.38125342592441,15.249895100858168,355.23287319997326,98,26,female,True
82,106.0,25,F,down,0.9999070999911056,1.2980815843377798,,psi_staircase_training,emotion,,86.54975744703883,86.54975744703883,17.949787078058026,357.66604889999144,98,26,female,True
83,0.29,25,up,up,0.8091544000199065,1.228263601121939,,psi_staircase,cRDM,,0.25,0.2569312402994632,0.105,366.0158460999373,98,26,female,True
84,0.25,25,up,up,1.070879300008528,1.2519690307613105,,psi_staircase,cRDM,,0.2191026665318312,0.2260132002683492,0.1046863203387393,368.3490823999746,98,26,female,True
85,0.21,25,down,down,0.6076353000244126,1.1479737523839726,,psi_staircase,cRDM,,0.1900540959403307,0.1968497961554001,0.1029467298424999,370.8323598999996,98,26,female,True
86,0.18,25,down,down,0.6777085000649095,1.8231980868731117,,psi_staircase,cRDM,,0.1635257589279754,0.1701521334256793,0.1003816477568649,373.5322648999281,98,26,female,True
87,0.15,25,up,up,0.6475917000789195,0.8967892559979804,,psi_staircase,cRDM,,0.1401895574244936,0.1466013351187503,0.0971307628663642,375.3654530999484,98,26,female,True
88,0.13,25,down,down,0.6002485000062734,1.6222521424492184,,psi_staircase,cRDM,,0.1198760602145479,0.1260554767618333,0.0936107694196103,377.8987454999005,98,26,female,True
89,0.11,25,up,up,0.6226670000469312,1.195616382162502,,psi_staircase,cRDM,,0.1025773523696548,0.1084910344569865,0.0895852101993795,379.9653462999268,98,26,female,True
90,0.09,25,down,up,0.8146851999917999,1.917736278184828,,psi_staircase,cRDM,,0.087844325958594,0.0934818215320969,0.0854013148647635,382.765222499962,98,26,female,True
91,0.15,25,down,down,0.9737778999842704,1.0245927394231067,,psi_staircase,cRDM,,0.131559124731803,0.1381188895520143,0.0993725908154588,384.8651328999549,98,26,female,True
92,0.14,25,up,up,0.7222540000220761,0.6221625751868158,,psi_staircase,cRDM,,0.1176635618172359,0.1239020005991555,0.0945048856771392,386.7317406999646,98,26,female,True
93,0.13,25,down,up,0.9273123999591916,1.061580102365952,,psi_staircase,cRDM,,0.106749225970393,0.1126411889911647,0.0892561923194218,388.7816797998967,98,26,female,True
94,0.17,25,down,down,0.9277576999738812,1.63043720996159,,psi_staircase,cRDM,,0.1465589856303487,0.1539648623676711,0.1121901743154211,391.5982416999759,98,26,female,True
95,0.17,25,down,up,0.8439286999637261,1.5779787741607316,,psi_staircase,cRDM,,0.1334024841028031,0.1405265876000131,0.1079216467599565,394.36505619995296,98,26,female,True
96,0.24,25,up,up,0.6422506000380963,1.1945763926783364,,psi_staircase,cRDM,,0.1819323847508816,0.1906958083686617,0.1327553857767944,396.66474119992927,98,26,female,True
97,0.22,25,up,up,0.8236954000312835,1.7161568171025956,,psi_staircase,cRDM,,0.1667735443920769,0.1754077435974481,0.1307977904956183,399.2812897999538,98,26,female,True
98,0.2,25,down,down,0.7587748999940231,0.3588079099061186,,psi_staircase,cRDM,,0.1540108648316918,0.1624855486074758,0.1283813225356251,400.7312196999556,98,26,female,True
99,0.16,25,down,down,1.0788146000122651,0.4185738467847171,,psi_staircase,cRDM,,0.1429787639828751,0.1513056632551791,0.1261425640746616,402.1811862000032,98,26,female,True
100,0.16,25,up,up,0.6725292999763042,0.5551287058642862,,psi_staircase,cRDM,,0.1318418792174595,0.1402595710124545,0.1275179621954416,404.0644539999776,98,26,female,True
101,0.16,25,up,up,0.7042553999926895,1.2882741805596225,,psi_staircase,cRDM,,0.1222686659777219,0.1306768338366217,0.1273736859552892,406.2977026998997,98,26,female,True
102,0.16,25,up,up,0.5727246999740601,1.846918942471488,,psi_staircase,cRDM,,0.1142443239972338,0.1225623885637937,0.1260087288499319,409.1142654999858,98,26,female,True
103,0.16,25,up,up,0.5614072000607848,1.7411777595460458,,psi_staircase,cRDM,,0.10764357845187,0.1158097713226276,0.1237080543140231,411.6974912999431,98,26,female,True
104,0.11,25,down,down,0.5987282000714913,0.5427972599713544,,psi_staircase,cRDM,,0.1022945195402628,0.1102630077470216,0.1207130651312819,413.04730999993626,98,26,female,True
105,0.12,25,down,down,1.0838728999951854,0.857670555790321,,psi_staircase,cRDM,,0.0947356519774308,0.1030240555569344,0.1255594003738801,414.7640767999692,98,26,female,True
106,0.12,25,down,down,0.9322205999633296,1.8983787528233984,,psi_staircase,cRDM,,0.0882464727318693,0.0966565729461426,0.1274029588278862,418.01393229991663,98,26,female,True
107,0.12,25,up,up,0.4957911999663338,0.6473547818164417,,psi_staircase,cRDM,,0.08255737716042,0.091005250476869,0.1279751761450012,419.847190600005,98,26,female,True
108,0.12,25,up,up,0.3670141999609768,0.6875156068231287,,psi_staircase,cRDM,,0.0776266222562709,0.0860444179585218,0.1275195362660823,421.2971475999802,98,26,female,True
109,0.08,25,down,up,0.7648767000064254,1.112379152980637,,psi_staircase,cRDM,,0.0733867165395163,0.0817204551205064,0.1262461714206797,423.0970903999405,98,26,female,True
110,0.13,25,down,up,0.7748519999440759,0.3860805140410903,,psi_staircase,cRDM,,0.0878837611243332,0.0956255562031045,0.1172789353925497,424.4970341000008,98,26,female,True
111,0.16,25,up,up,0.7143817000323907,1.875732631562212,,psi_staircase,cRDM,,0.1035219790029814,0.1122440097041973,0.132128332601395,427.4135990999639,98,26,female,True
112,0.16,25,up,up,0.8047634999966249,1.2266034592814925,,psi_staircase,cRDM,,0.099445899086145,0.1079945714758212,0.1295021615374539,429.6301756999456,98,26,female,True
113,0.11,25,down,down,1.265779500012286,0.4897987776429547,,psi_staircase,cRDM,,0.0960266239086924,0.1043809689948103,0.1265583353256848,431.1801813999191,98,26,female,True
114,0.11,25,up,down,1.260950700030662,0.7683000256946328,,psi_staircase,cRDM,,0.0903668771365063,0.0989610717797513,0.1301917692293249,433.4800259999465,98,26,female,True
115,0.17,25,down,down,0.877423100057058,1.8891754689315212,,psi_staircase,cRDM,,0.1059758210293222,0.1141058459547701,0.1231601532034798,436.8965649999445,98,26,female,True
116,0.11,25,up,up,0.744800699991174,0.5760491576074813,,psi_staircase,cRDM,,0.1032949664268201,0.1111677327209304,0.1192629926487449,438.61317429994233,98,26,female,True
117,0.11,25,down,down,1.1461866999743506,1.956471624310235,,psi_staircase,cRDM,,0.0975356726873466,0.1057996910594884,0.1251899936497776,441.5797606999986,98,26,female,True
118,0.11,25,up,up,0.8379571998957545,0.8077202279694977,,psi_staircase,cRDM,,0.0921804510504525,0.1007348255072432,0.1295885410339295,443.8129933999153,98,26,female,True
119,0.11,25,down,up,0.8497566999867558,1.1728150198034704,,psi_staircase,cRDM,,0.0872815873692995,0.0960397557056993,0.1326757745497857,446.0962282998953,98,26,female,True
120,0.16,25,up,up,0.6391391000943258,1.4576102250130634,,psi_staircase,cRDM,,0.1011941515807662,0.1095345315681803,0.1263467807841389,448.66282869991846,98,26,female,True
121,0.1,25,up,up,0.6735077000921592,0.8136347301458939,,psi_staircase,cRDM,,0.0987565182317651,0.1068778621095146,0.1230286457143512,450.3794391999254,98,26,female,True
122,0.1,25,down,down,1.098312900052406,1.214775135289382,,psi_staircase,cRDM,,0.0934936225392468,0.102008695440921,0.1289931694829601,452.5126684999559,98,26,female,True
123,0.1,25,down,up,0.7136779999127612,0.5610037809091908,,psi_staircase,cRDM,,0.0885829963820468,0.097396746675,0.1335177747093479,454.4292449998902,98,26,female,True
124,0.16,25,down,down,0.712093900074251,0.8297308064693731,,psi_staircase,cRDM,,0.1012591873273767,0.1094599968886779,0.124232455770334,456.2458466999233,98,26,female,True
125,0.1,25,up,up,0.704868400003761,1.2985674640706102,,psi_staircase,cRDM,,0.0991996564031058,0.1071687235586037,0.1207218355121915,458.5290997999255,98,26,female,True
126,0.1,25,up,up,0.7693849999923259,0.6446062515632591,,psi_staircase,cRDM,,0.0942007667905166,0.1025837191202383,0.1269917008488288,460.1456170999445,98,26,female,True
127,0.1,25,down,up,0.8059595000231639,0.8914943047514321,,psi_staircase,cRDM,,0.0895280424572457,0.0982287855729567,0.131805851143322,462.0790211999556,98,26,female,True
128,0.16,25,down,down,0.6546925000147894,1.0208497920556223,,psi_staircase,cRDM,,0.101446826900705,0.1094947062924189,0.1219157466226356,464.1622564999852,98,26,female,True
129,0.1,25,down,down,0.63715319999028,1.896015003465339,,psi_staircase,cRDM,,0.0997051650671494,0.107509418166909,0.1182250997037592,466.978817999945,98,26,female,True
130,0.1,25,up,down,0.66025419998914,1.7498108615162098,,psi_staircase,cRDM,,0.0949301311850208,0.1031676667969921,0.1247888115095313,469.6287225999404,98,26,female,True
131,0.16,25,up,up,0.93402370007243,0.7691205694850081,,psi_staircase,cRDM,,0.1063647210070631,0.1137417213453142,0.1117527314088862,471.3119579999475,98,26,female,True
132,0.16,25,up,down,1.0707087999908254,0.9866030591320472,,psi_staircase,cRDM,,0.1050291057973497,0.1121035434739999,0.1071692689843397,473.49523749994114,98,26,female,True
133,100.0,25,M,up,1.0100181000307202,1.9129715672299976,,psi_staircase,emotion,,100.0,100.0,25.00050000000001,479.8619213999482,98,26,female,True
134,55.0,25,M,down,0.5666711999801919,0.6071644505097495,,psi_staircase,emotion,,54.7428094675419,54.7428094675419,25.00050000000011,481.8282501999056,98,26,female,True
135,79.0,25,F,down,0.6942062999587506,0.7249089146165788,,psi_staircase,emotion,,79.636070985635,79.636070985635,25.713269254886413,483.4617827999173,98,26,female,True
136,103.0,25,F,up,0.6815212001092732,1.7576407522429662,,psi_staircase,emotion,,97.61123893914808,97.61123893914808,26.1463337262867,486.2613950999221,98,26,female,True
137,87.0,25,M,down,0.4532731999643147,1.896001367997112,,psi_staircase,emotion,,85.98876744579668,85.98876744579668,23.003056417783498,489.19465029996354,98,26,female,True
138,95.0,25,F,down,0.7284054999472573,1.761010845132689,,psi_staircase,emotion,,95.05640406123077,95.05640406123077,22.150603223582728,491.744557900005,98,26,female,True
139,108.0,25,M,up,0.743489500018768,1.3309826233578212,,psi_staircase,emotion,,102.67895770092096,102.67895770092096,23.933073614491192,494.14445269992575,98,26,female,True
140,105.0,25,F,up,0.8035955000668764,0.7167424782787648,,psi_staircase,emotion,,97.15511396427232,97.15511396427232,20.021669804154147,495.961330799968,98,26,female,True
141,92.0,25,F,down,1.0296697999583555,1.4955175511071397,,psi_staircase,emotion,,94.35050340433408,94.35050340433408,16.907117635955494,498.5943027999019,98,26,female,True
142,97.0,25,M,down,0.8394868000177667,1.9104430033075888,,psi_staircase,emotion,,97.3372187693312,97.3372187693312,13.849209143469048,501.87751339992974,98,26,female,True
143,104.0,25,F,down,0.5972723999293521,1.6800199112368894,,psi_staircase,emotion,,99.9222554941848,99.9222554941848,13.420456935215608,504.7607038998976,98,26,female,True
144,116.0,25,F,up,0.916598099982366,0.4272629447834676,,psi_staircase,emotion,,104.99701909539544,104.99701909539544,23.10975868675051,506.1273711998947,98,26,female,True
145,114.0,25,F,up,0.7421134000178427,1.2744881229495004,,psi_staircase,emotion,,102.34312734755642,102.34312734755642,19.993361601481432,508.6608515999978,98,26,female,True
146,113.0,25,M,down,0.7941372999921441,0.8601371600512149,,psi_staircase,emotion,,100.66982728850763,100.66982728850763,17.340816000997467,510.593866399955,98,26,female,True
147,124.0,25,M,up,0.5932704999577254,0.9162124697413953,,psi_staircase,emotion,,104.83468362177524,104.83468362177524,26.29549296947203,512.6437626999104,98,26,female,True
148,123.0,25,F,up,0.7718560999492183,1.7885254013995175,,psi_staircase,emotion,,103.28258187532477,103.28258187532477,24.371879949549484,515.3770336000016,98,26,female,True
149,84.0,25,F,down,0.7278246999485418,1.7561897789148333,,psi_staircase,emotion,,102.1527297514868,102.1527297514868,22.63067382892494,518.2601342999842,98,26,female,True
150,121.0,25,M,up,0.7387729999609292,1.9770042358655364,,psi_staircase,emotion,,103.1903531849794,103.1903531849794,20.90188856745711,521.3101441999897,98,26,female,True
151,86.0,25,M,down,0.7141777999931946,1.0791760171192872,,psi_staircase,emotion,,102.33668232169106,102.33668232169106,19.281041770345063,523.4767285999842,98,26,female,True
152,119.0,25,M,up,0.8056009999709204,0.5963542333968068,,psi_staircase,emotion,,103.1310060246404,103.1310060246404,17.725318207867918,525.143317699898,98,26,female,True
153,88.0,25,M,down,0.5566991000669077,1.440240622529229,,psi_staircase,emotion,,102.47661662100931,102.47661662100931,16.327852913277916,527.7432193999412,98,26,female,True
154,117.0,25,F,up,0.6388334000948817,1.5911441030917368,,psi_staircase,emotion,,103.09540859790638,103.09540859790638,15.021959634358092,530.2431270999368,98,26,female,True
155,90.0,25,F,down,0.6412841000128537,0.5426684193799244,,psi_staircase,emotion,,102.57206329904656,102.57206329904656,13.88470714597154,531.7596871999558,98,26,female,True
156,114.0,25,F,up,0.7796816999325529,1.9709860535966977,,psi_staircase,emotion,,103.07322634623822,103.07322634623822,12.838096953137988,534.7262919999193,98,26,female,True
157,92.0,25,M,down,0.7847561000380665,1.899626620015091,,psi_staircase,emotion,,102.5851273246158,102.5851273246158,11.92674758869669,537.7761942999205,98,26,female,True
158,111.0,25,M,up,0.8972083000699058,0.9386463710040052,,psi_staircase,emotion,,103.01508165640212,103.01508165640212,11.09892613925714,539.8427669999655,98,26,female,True
159,94.0,25,F,down,0.7349401999963447,1.3364137488899177,,psi_staircase,emotion,,102.50774132430476,102.50774132430476,10.371991017982513,542.4260223999154,98,26,female,True
160,108.0,25,F,up,1.218364999978803,1.1834629305373945,,psi_staircase,emotion,,102.90191402576184,102.90191402576184,9.707701695937716,544.6926090999041,98,26,female,True
161,107.0,25,M,down,0.7671348000876606,1.431359614494357,,psi_staircase,emotion,,102.32317093293145,102.32317093293145,9.115958389324934,547.675840199925,98,26,female,True
162,94.0,25,M,down,0.904251900035888,1.738965073536317,,psi_staircase,emotion,,103.66549270064584,103.66549270064584,10.465948198522224,550.52572159993,98,26,female,True
163,113.0,25,F,down,0.8087013000622392,1.9036357803284167,,psi_staircase,emotion,,103.97281165300475,103.97281165300475,9.904342469723607,553.6922654999653,98,26,female,True
164,119.0,25,M,down,0.9447386999381706,1.2081786842705635,,psi_staircase,emotion,,105.36181385980042,105.36181385980042,12.257959642750563,556.0421798999887,98,26,female,True
165,125.0,25,F,up,0.6662230000365525,1.8606007773692723,,psi_staircase,emotion,,107.06467848147848,107.06467848147848,16.40452496951125,559.20873199997,98,26,female,True
166,124.0,25,M,up,0.7949966000160202,1.5721131293859771,,psi_staircase,emotion,,106.7076288567994,106.7076288567994,15.493076408022958,561.7919753999449,98,26,female,True
167,123.0,25,F,up,0.6034385000821203,0.3337969900652771,,psi_staircase,emotion,,106.41903765003154,106.41903765003154,14.718250436653689,563.2584476999473,98,26,female,True
168,91.0,25,M,down,0.6674168000463396,1.118840920942855,,psi_staircase,emotion,,106.17853555423976,106.17853555423976,14.054718217177417,565.3085210999707,98,26,female,True
169,92.0,25,F,down,0.6882003999780864,0.8053469725504983,,psi_staircase,emotion,,106.43409624431894,106.43409624431894,13.447785918375244,567.1417666999623,98,26,female,True
170,121.0,25,M,up,0.7588929999619722,0.43633172602278,,psi_staircase,emotion,,106.66289342950806,106.66289342950806,12.91657521809504,568.6250766000012,98,26,female,True
171,93.0,25,M,down,0.7246213000034913,1.4797602126471583,,psi_staircase,emotion,,106.43877998970645,106.43877998970645,12.425482363597196,571.2083041999722,98,26,female,True
172,120.0,25,F,up,1.1436712000286209,0.9247422173213762,,psi_staircase,emotion,,106.65150371211456,106.65150371211456,11.995072385659274,573.2082393999444,98,26,female,True
173,94.0,25,F,down,0.6085796999977902,1.156675685672405,,psi_staircase,emotion,,106.44888076511292,106.44888076511292,11.600152557133873,575.8583893999457,98,26,female,True
174,119.0,25,F,up,0.8241993000265211,0.6640042486337226,,psi_staircase,emotion,,106.65176454201604,106.65176454201604,11.244346799680162,577.474735399941,98,26,female,True
175,95.0,25,M,down,0.7807463000062853,0.7218482023020842,,psi_staircase,emotion,,106.4615257231934,106.4615257231934,10.918762256429918,579.3582559999777,98,26,female,True
176,118.0,25,M,up,0.9823531000874935,0.3248013161800474,,psi_staircase,emotion,,106.6592303158426,106.6592303158426,10.61760013723155,580.824615499936,98,26,female,True
177,96.0,25,F,down,0.7231792999664322,0.9049497616558352,,psi_staircase,emotion,,106.47487331868096,106.47487331868096,10.341877839162816,583.0577730999794,98,26,female,True
178,97.0,25,F,down,0.5819091000594199,1.1234322004062136,,psi_staircase,emotion,,106.67101132244017,106.67101132244017,10.080990971539048,585.2580376999686,98,26,female,True
179,116.0,25,F,up,0.7905458000022918,0.981171392581343,,psi_staircase,emotion,,106.86802106922296,106.86802106922296,9.841008225468013,587.1743828000035,98,26,female,True
180,97.0,25,M,up,0.6276960000395775,1.9774255622862016,,psi_staircase,emotion,,106.66153270580078,106.66153270580078,9.605581548500036,590.2742722999537,98,26,female,True
181,117.0,25,M,up,0.7777429999550804,0.7247334888620384,,psi_staircase,emotion,,105.75384609944398,105.75384609944398,10.686242255883837,591.9742195999715,98,26,female,True
182,95.0,25,M,up,0.6956541000399739,1.9393543274872365,,psi_staircase,emotion,,105.58511934090548,105.58511934090548,10.445805428447429,595.0572988999775,98,26,female,True
183,0.1109390039111105,25,down,down,0.8407468000659719,1.736287325691637,,experiment,cRDM,0.0,,,,601.0072065999266,98,26,female,True
184,0.1109390039111105,25,up,up,0.614167100051418,1.572746118368317,,experiment,cRDM,0.0,,,,603.6737983999774,98,26,female,True
185,0.1109390039111105,25,down,up,0.8266394999809563,0.7869921761563401,,experiment,cRDM,0.0,,,,605.3403266998939,98,26,female,True
186,0.1109390039111105,25,up,up,1.151649000006728,0.5067589529804647,,experiment,cRDM,0.0,,,,606.9403000999009,98,26,female,True
187,0.1109390039111105,25,down,up,1.020084899966605,1.7485591931544937,,experiment,cRDM,0.0,,,,610.1068630999653,98,26,female,True
188,0.1109390039111105,25,down,down,0.7295199000509456,1.8909808766887333,,experiment,cRDM,0.0,,,,613.2734463999514,98,26,female,True
189,0.1109390039111105,25,up,up,0.6461824000580236,0.4421689600934359,,experiment,cRDM,0.0,,,,614.7066936999327,98,26,female,True
190,0.1109390039111105,25,down,up,0.8210108999628574,0.3741694769555606,,experiment,cRDM,0.0,,,,615.9899868998909,98,26,female,True
191,0.1109390039111105,25,up,up,0.7366886999225244,1.611389787915733,,experiment,cRDM,0.0,,,,618.6732519998914,98,26,female,True
192,0.1109390039111105,25,up,up,0.7492416000459343,1.4680292575534697,,experiment,cRDM,0.0,,,,621.1567193999654,98,26,female,True
193,0.1109390039111105,25,down,down,0.7262735998956487,1.1646695863782848,,experiment,cRDM,0.0,,,,623.3397021999117,98,26,female,True
194,0.1109390039111105,25,up,up,0.6112890000222251,0.5481703138582925,,experiment,cRDM,0.0,,,,624.8896664999193,98,26,female,True
195,0.1109390039111105,25,up,up,0.638321700040251,1.1246411617257133,,experiment,cRDM,0.0,,,,626.8896249999525,98,26,female,True
196,0.1109390039111105,25,up,up,0.6578057000879198,0.5658957973705543,,experiment,cRDM,0.0,,,,628.3561560999369,98,26,female,True
197,0.1109390039111105,25,down,down,0.5651185000315309,1.4008695324977751,,experiment,cRDM,0.0,,,,630.6727724999655,98,26,female,True
198,0.1109390039111105,25,down,up,0.5982654999243096,1.6167611345933113,,experiment,cRDM,0.0,,,,633.1226917000022,98,26,female,True
199,0.1109390039111105,25,up,up,0.8120700999861583,1.0694461326648894,,experiment,cRDM,0.0,,,,635.0558039000025,98,26,female,True
200,0.1109390039111105,25,up,up,0.6553758999798447,0.5885001228489184,,experiment,cRDM,0.0,,,,636.7225734998938,98,26,female,True
201,0.1109390039111105,25,down,up,1.2161158999660984,0.357674601722151,,experiment,cRDM,0.0,,,,638.0058376999805,98,26,female,True
202,0.1109390039111105,25,down,down,0.6592992999358103,0.3357499013781638,,experiment,cRDM,0.0,,,,639.8057762999088,98,26,female,True
203,0.1109390039111105,25,up,up,0.7869588000467047,0.4378332416554146,,experiment,cRDM,0.0,,,,641.1559816999361,98,26,female,True
204,0.1109390039111105,25,down,up,0.9629936999408528,1.685237581072618,,experiment,cRDM,0.0,,,,643.88896199991,98,26,female,True
205,0.1109390039111105,25,up,up,0.5737950000911951,1.05909062121731,,experiment,cRDM,0.0,,,,646.1722332999343,98,26,female,True
206,0.1109390039111105,25,down,down,0.6814380999421701,1.6943662944863296,,experiment,cRDM,0.0,,,,648.7054809998954,98,26,female,True
207,0.1109390039111105,25,down,up,0.7412739000283182,1.3051494103015426,,experiment,cRDM,0.0,,,,650.9386837999336,98,26,female,True
208,0.1109390039111105,25,up,up,1.010719700017944,1.493764036018042,,experiment,cRDM,0.0,,,,653.4551935999189,98,26,female,True
209,0.1109390039111105,25,up,up,0.9621249999618158,1.0799378516998823,,experiment,cRDM,0.0,,,,655.8218291999074,98,26,female,True
210,0.1109390039111105,25,down,down,0.8627912000520155,0.7028262871098474,,experiment,cRDM,0.0,,,,657.7551425999263,98,26,female,True
211,0.1109390039111105,25,up,up,0.5985658999998122,0.972499004231958,,experiment,cRDM,0.0,,,,659.8384095999645,98,26,female,True
212,0.1109390039111105,25,down,down,0.904933899990283,0.370146750492921,,experiment,cRDM,0.0,,,,661.0550299999304,98,26,female,True
213,0.1109390039111105,25,up,down,0.8590250000124797,0.6793778299055286,,experiment,cRDM,0.0,,,,662.9049221999012,98,26,female,True
214,0.1109390039111105,25,down,down,0.8440765000414103,1.077434703768395,,experiment,cRDM,0.0,,,,665.1048387999181,98,26,female,True
215,0.1109390039111105,25,up,up,0.6735043999506161,0.4148719793926283,,experiment,cRDM,0.0,,,,666.6214551999001,98,26,female,True
216,0.1109390039111105,25,down,down,0.696562199969776,0.663402352629991,,experiment,cRDM,0.0,,,,668.221393099986,98,26,female,True
217,0.1109390039111105,25,up,up,0.907603400060907,1.8878610416611183,,experiment,cRDM,0.0,,,,671.0713124999311,98,26,female,True
218,0.1109390039111105,25,down,down,0.6776768999407068,1.088243253597853,,experiment,cRDM,0.0,,,,673.3212197999237,98,26,female,True
219,0.1109390039111105,25,up,up,0.5401616999879479,1.0249876771470965,,experiment,cRDM,0.0,,,,675.2878152999328,98,26,female,True
220,0.1109390039111105,25,down,up,0.8723501999629661,1.740844339915924,,experiment,cRDM,0.0,,,,677.8375730999978,98,26,female,True
221,0.1109390039111105,25,up,up,0.8129443000070751,1.4509808127058308,,experiment,cRDM,0.0,,,,680.4209490999347,98,26,female,True
222,0.1109390039111105,25,down,up,0.5517417999217287,0.8230214986641722,,experiment,cRDM,0.0,,,,682.3041995998938,98,26,female,True
223,0.1109390039111105,25,down,down,0.6647793999873102,0.9768783505808396,,experiment,cRDM,0.0,,,,684.1041731999721,98,26,female,True
224,0.1109390039111105,25,up,up,0.6828676000004634,0.8810115257242297,,experiment,cRDM,0.0,,,,685.90408509993,98,26,female,True
225,0.1109390039111105,25,down,down,0.6322888000868261,0.3714259813856199,,experiment,cRDM,0.0,,,,687.2206511999248,98,26,female,True
226,0.1109390039111105,25,up,down,0.566727599943988,0.913898600619147,,experiment,cRDM,0.0,,,,689.0372576999944,98,26,female,True
227,0.1109390039111105,25,up,up,0.73339000006672,1.6673839814157976,,experiment,cRDM,0.0,,,,691.520541899954,98,26,female,True
228,0.1109390039111105,25,down,down,0.7014243000885472,0.3534304042483907,,experiment,cRDM,0.0,,,,692.8704953999259,98,26,female,True
229,0.1109390039111105,25,down,up,0.8138138999929652,0.35399681605718,,experiment,cRDM,0.0,,,,694.1871295999736,98,26,female,True
230,0.1109390039111105,25,up,up,0.5456276999320835,1.9727321337197048,,experiment,cRDM,0.0,,,,697.2373251999961,98,26,female,True
231,0.1109390039111105,25,down,down,0.7380536999553442,0.9952069857195136,,experiment,cRDM,0.0,,,,699.0368921000045,98,26,female,True
232,0.1109390039111105,25,up,up,0.6917478999821469,0.4396491907351645,,experiment,cRDM,0.0,,,,700.4701965999557,98,26,female,True
233,0.1109390039111105,25,up,up,0.6024306999752298,1.7311849059984097,,experiment,cRDM,0.0,,,,703.1534800999798,98,26,female,True
234,0.1109390039111105,25,up,up,0.5659466999350116,1.88731079355282,,experiment,cRDM,0.0,,,,705.9199962998973,98,26,female,True
235,0.1109390039111105,25,up,up,0.3504547999473288,1.9083982596084696,,experiment,cRDM,0.0,,,,708.6699313999852,98,26,female,True
236,0.1109390039111105,25,up,up,0.3338038000511005,1.831060088368225,,experiment,cRDM,0.0,,,,711.1864954999182,98,26,female,True
237,0.1109390039111105,25,down,down,0.6885196999646723,0.8718982329766554,,experiment,cRDM,0.0,,,,712.7364064999856,98,26,female,True
238,0.1109390039111105,25,down,up,0.5084820999763906,0.3044239893458699,,experiment,cRDM,0.0,,,,713.986405899981,98,26,female,True
239,0.1109390039111105,25,down,down,0.6432305999333039,0.3054158545152798,,experiment,cRDM,0.0,,,,715.0696713998914,98,26,female,True
240,0.1109390039111105,25,up,down,0.9426673999987544,1.200434543342989,,experiment,cRDM,0.0,,,,717.1862626998918,98,26,female,True
241,0.1109390039111105,25,down,down,0.9560249999631196,1.499419067070815,,experiment,cRDM,0.0,,,,719.8861648999155,98,26,female,True
242,0.1109390039111105,25,down,down,0.8224617000669241,0.3644915038025182,,experiment,cRDM,0.0,,,,721.4694634999614,98,26,female,True
243,0.1109390039111105,25,down,down,0.6782187999924645,0.553162432636733,,experiment,cRDM,0.0,,,,723.1027088999981,98,26,female,True
244,0.1109390039111105,25,up,down,0.910943099996075,0.3255918379444612,,experiment,cRDM,0.0,,,,724.385984399938,98,26,female,True
245,0.1109390039111105,25,down,down,0.6620256999740377,0.5836356262256504,,experiment,cRDM,0.0,,,,726.1359104999574,98,26,female,True
246,0.1109390039111105,25,up,up,0.6497610000660643,1.9222191688431995,,experiment,cRDM,0.0,,,,728.9691727999598,98,26,female,True
247,0.1109390039111105,25,up,up,1.0544168000342324,0.415053536214238,,experiment,cRDM,0.0,,,,730.3024466999341,98,26,female,True
248,0.1109390039111105,25,down,up,0.7422602999722585,1.3672731421522613,,experiment,cRDM,0.0,,,,732.9856831999496,98,26,female,True
249,0.1109390039111105,25,up,down,0.9410291000967844,1.8309631613022843,,experiment,cRDM,0.0,,,,735.8189119999297,98,26,female,True
250,0.1109390039111105,25,down,up,0.7330889999866486,1.3533617045173152,,experiment,cRDM,0.0,,,,738.3688355999766,98,26,female,True
251,0.1109390039111105,25,up,up,0.6745785999810323,0.7710680530427008,,experiment,cRDM,0.0,,,,740.135324099916,98,26,female,True
252,0.1109390039111105,25,down,up,0.6402502000564709,1.5484106770777133,,experiment,cRDM,0.0,,,,742.618651399971,98,26,female,True
253,0.1109390039111105,25,up,up,1.3413456999696791,0.8905587689151095,,experiment,cRDM,0.0,,,,744.4185560999904,98,26,female,True
254,0.1109390039111105,25,down,up,1.1054140999913216,0.604810219867344,,experiment,cRDM,0.0,,,,746.6184949999442,98,26,female,True
255,0.1109390039111105,25,down,up,1.0702130999416113,1.6642224294325327,,experiment,cRDM,0.0,,,,749.6517424999038,98,26,female,True
256,0.1109390039111105,25,down,down,0.5536659000208601,0.98154431402913,,experiment,cRDM,0.0,,,,751.9683080998948,98,26,female,True
257,0.1109390039111105,25,down,down,0.8629925999557599,1.2063409953096789,,experiment,cRDM,0.0,,,,753.9849589999067,98,26,female,True
258,0.1109390039111105,25,down,up,1.3510534000815824,0.5820240069371179,,experiment,cRDM,0.0,,,,755.6848481999477,98,26,female,True
259,0.1109390039111105,25,up,down,0.7761742000002414,0.8916106054591897,,experiment,cRDM,0.0,,,,758.1847487998893,98,26,female,True
260,0.1109390039111105,25,up,up,0.9625374999595806,0.3755236745587089,,experiment,cRDM,0.0,,,,759.6013908999739,98,26,female,True
261,0.1109390039111105,25,up,up,0.7326105999527499,0.3396926105109215,,experiment,cRDM,0.0,,,,761.1513257999904,98,26,female,True
262,0.1109390039111105,25,up,up,0.9036757999565452,1.0550246818540223,,experiment,cRDM,0.0,,,,763.2012252999702,98,26,female,True
263,109.0,25,M,down,1.3268697999883443,1.3083456281999049,,experiment,emotion,0.0,,,,769.1510317999637,98,26,female,True
264,100.0,25,M,up,0.6312743999296799,0.9278921275175324,,experiment,emotion,0.0,,,,771.6676266998984,98,26,female,True
265,106.0,25,F,up,0.6460644999751821,1.7151637816560992,,experiment,emotion,0.0,,,,774.3008342999965,98,26,female,True
266,109.0,25,F,up,0.9254375000018626,0.4467317202451503,,experiment,emotion,0.0,,,,775.66746529995,98,26,female,True
267,106.0,25,M,up,0.6625121999531984,1.0084512532849508,,experiment,emotion,0.0,,,,777.8673675999744,98,26,female,True
268,103.0,25,F,up,0.455045000067912,1.73557686059762,,experiment,emotion,0.0,,,,780.5508753999602,98,26,female,True
269,100.0,25,M,down,0.765057299984619,0.3692429843070065,,experiment,emotion,0.0,,,,781.6338707999093,98,26,female,True
270,103.0,25,M,down,0.6511257999809459,1.056464039202327,,experiment,emotion,0.0,,,,783.7338073999854,98,26,female,True
271,109.0,25,F,down,0.6238584000384435,0.7682511104638271,,experiment,emotion,0.0,,,,785.4170692999614,98,26,female,True
272,103.0,25,F,down,0.8172615000512451,0.9721743697589738,,experiment,emotion,0.0,,,,787.283686199924,98,26,female,True
273,106.0,25,F,up,1.037978200009093,0.6959345192635662,,experiment,emotion,0.0,,,,789.0669518999057,98,26,female,True
274,109.0,25,F,down,1.0478497999720275,0.6727068552209156,,experiment,emotion,0.0,,,,791.0499992999248,98,26,female,True
275,106.0,25,F,down,0.6897994000464678,1.527216695480179,,experiment,emotion,0.0,,,,793.9001023999881,98,26,female,True
276,100.0,25,F,down,0.8798844999400899,1.980023791057088,,experiment,emotion,0.0,,,,796.8500041998923,98,26,female,True
277,103.0,25,M,up,0.778349700034596,1.1219338383963011,,experiment,emotion,0.0,,,,799.1165662999265,98,26,female,True
278,100.0,25,M,up,1.122335199965164,0.5437809312852622,,experiment,emotion,0.0,,,,800.7165174999973,98,26,female,True
279,109.0,25,M,up,1.5038552000187335,0.9054473846417588,,experiment,emotion,0.0,,,,803.0329976999201,98,26,female,True
280,100.0,25,M,down,0.6715444000437856,0.3583510342014174,,experiment,emotion,0.0,,,,805.1663539999863,98,26,female,True
281,106.0,25,F,up,0.8532954999245703,0.4973477037071529,,experiment,emotion,0.0,,,,806.5996362000005,98,26,female,True
282,106.0,25,M,up,0.6541438999120146,0.9054874875256292,,experiment,emotion,0.0,,,,808.6327689999016,98,26,female,True
283,103.0,25,M,up,0.6550165999215096,1.1317913718247583,,experiment,emotion,0.0,,,,810.682825399912,98,26,female,True
284,103.0,25,F,up,0.8084666000213474,0.3471801770001816,,experiment,emotion,0.0,,,,811.949448499945,98,26,female,True
285,100.0,25,M,up,0.4003074000356719,1.0734216905755762,,experiment,emotion,0.0,,,,814.0993679999374,98,26,female,True
286,109.0,25,F,up,0.6496277999831364,0.7480102760264618,,experiment,emotion,0.0,,,,815.5493245999096,98,26,female,True
287,106.0,25,F,down,0.8130139999557287,1.1937463230071703,,experiment,emotion,0.0,,,,817.6658951999852,98,26,female,True
288,100.0,25,M,up,0.8124231999972835,1.4243150949023262,,experiment,emotion,0.0,,,,820.1824952999596,98,26,female,True
289,109.0,25,M,up,0.5694821999641135,0.9302735840798836,,experiment,emotion,0.0,,,,822.1823936000001,98,26,female,True
290,109.0,25,F,up,0.6125394999980927,0.4493375640210174,,experiment,emotion,0.0,,,,823.4823527999688,98,26,female,True
291,103.0,25,M,up,0.795968999969773,1.5724565897306433,,experiment,emotion,0.0,,,,825.9489210000029,98,26,female,True
292,100.0,25,F,down,0.7818439000984654,1.0269884612410376,,experiment,emotion,0.0,,,,828.0320194999222,98,26,female,True
293,103.0,25,F,down,0.6669138999423012,1.3677239308478013,,experiment,emotion,0.0,,,,830.4319789999863,98,26,female,True
294,106.0,25,F,down,0.5329097000649199,1.366552099355559,,experiment,emotion,0.0,,,,832.7319695999613,98,26,female,True
295,100.0,25,M,down,0.3001579999690875,1.70800831644287,,experiment,emotion,0.0,,,,835.2485943998909,98,26,female,True
296,109.0,25,M,up,0.8567297999979928,1.6665321899863612,,experiment,emotion,0.0,,,,837.6151691999985,98,26,female,True
297,106.0,25,M,down,0.7981087000807747,0.6391373411405884,,experiment,emotion,0.0,,,,839.3817788999295,98,26,female,True
298,109.0,25,F,up,0.991849199985154,1.0161365722872304,,experiment,emotion,0.0,,,,841.4650529999053,98,26,female,True
299,100.0,25,F,down,0.7362996999872848,1.4573192149391838,,experiment,emotion,0.0,,,,844.1815921999514,98,26,female,True
300,106.0,25,M,up,0.5976864999393001,1.2030175789010873,,experiment,emotion,0.0,,,,846.3981922999956,98,26,female,True
301,103.0,25,F,up,0.8621672999579459,1.9771440102223408,,experiment,emotion,0.0,,,,849.2647420999128,98,26,female,True
302,103.0,25,M,up,1.089593300013803,0.9877734895266316,,experiment,emotion,0.0,,,,851.3813286999939,98,26,female,True
303,106.0,25,M,down,0.6550041999435052,1.4565285503232492,,experiment,emotion,0.0,,,,854.1978827998973,98,26,female,True
304,109.0,25,M,down,0.6091528000542894,1.7171029524993326,,experiment,emotion,0.0,,,,856.8477339999517,98,26,female,True
305,103.0,25,F,down,1.6438357000006365,0.5072338578779204,,experiment,emotion,0.0,,,,858.2310514999554,98,26,female,True
306,100.0,25,F,up,1.2209248000290245,1.1631219074096448,,experiment,emotion,0.0,,,,861.330949199968,98,26,female,True
307,100.0,25,M,up,1.1159924999810755,0.3598166687809845,,experiment,emotion,0.0,,,,863.1808925999794,98,26,female,True
308,103.0,25,F,down,1.0183991000521928,1.1859279512625798,,experiment,emotion,0.0,,,,865.7474900999805,98,26,female,True
309,109.0,25,F,down,0.5618632000405341,1.2691465827541335,,experiment,emotion,0.0,,,,868.3140230999561,98,26,female,True
310,106.0,25,M,down,0.5606330999871716,1.6857917891041585,,experiment,emotion,0.0,,,,870.8472844999051,98,26,female,True
311,100.0,25,M,down,0.5164510000031441,1.6650195012337698,,experiment,emotion,0.0,,,,873.3304610999767,98,26,female,True
312,109.0,25,F,down,1.1187453999882564,0.7328099274840746,,experiment,emotion,0.0,,,,874.847142899991,98,26,female,True
313,106.0,25,M,down,0.7706180000677705,1.8789314593689015,,experiment,emotion,0.0,,,,878.1302991999546,98,26,female,True
314,106.0,25,F,down,0.8073150999844074,1.8899969468125892,,experiment,emotion,0.0,,,,881.0635717998957,98,26,female,True
315,100.0,25,F,down,0.7160187000408769,0.3612665862595492,,experiment,emotion,0.0,,,,882.496863599983,98,26,female,True
316,103.0,25,F,down,1.1864580999827012,1.967585933541676,,experiment,emotion,0.0,,,,885.4634095999645,98,26,female,True
317,109.0,25,M,up,0.8960845998954028,0.5867991189876172,,experiment,emotion,0.0,,,,887.5298008999089,98,26,female,True
318,103.0,25,M,up,0.9770066000055522,0.5379229681276166,,experiment,emotion,0.0,,,,889.2298790999921,98,26,female,True
319,103.0,25,F,up,0.8356925999978557,0.697281402027418,,experiment,emotion,0.0,,,,891.1632077998947,98,26,female,True
320,103.0,25,F,down,1.2871381000149995,1.910198870314568,,experiment,emotion,0.0,,,,894.1797581999563,98,26,female,True
321,109.0,25,M,down,1.438930399948731,1.4833566466810673,,experiment,emotion,0.0,,,,897.2129519999726,98,26,female,True
322,106.0,25,M,down,0.6876836000010371,1.5143817761026666,,experiment,emotion,0.0,,,,900.4461957999738,98,26,female,True
323,100.0,25,M,down,0.3668489999836311,0.6002611783159069,,experiment,emotion,0.0,,,,901.996134899906,98,26,female,True
324,100.0,25,M,down,0.2334741000086069,0.9145596387027368,,experiment,emotion,0.0,,,,903.5960948999272,98,26,female,True
325,106.0,25,M,up,0.8269327000016347,1.7142313012142878,,experiment,emotion,0.0,,,,905.9959512999048,98,26,female,True
326,109.0,25,F,up,0.4737577000632882,1.048184056156734,,experiment,emotion,0.0,,,,908.1291534999618,98,26,female,True
327,109.0,25,F,down,1.4810376999666914,1.27179500490447,,experiment,emotion,0.0,,,,910.1458429999184,98,26,female,True
328,100.0,25,M,down,0.6075409000040963,1.825974886261924,,experiment,emotion,0.0,,,,913.7123655999312,98,26,female,True
329,109.0,25,F,down,0.6895561999408528,1.3867562456030669,,experiment,emotion,0.0,,,,915.9622848998988,98,26,female,True
330,103.0,25,F,down,0.6113123999675736,0.6692492400304659,,experiment,emotion,0.0,,,,917.5955677999882,98,26,female,True
331,106.0,25,F,down,0.7844269999768585,0.9536380808022552,,experiment,emotion,0.0,,,,919.4454378999072,98,26,female,True
332,103.0,25,M,down,0.778181100031361,1.631083278686399,,experiment,emotion,0.0,,,,922.1287228999428,98,26,female,True
333,100.0,25,F,down,0.7191857000580058,0.4538629862589667,,experiment,emotion,0.0,,,,923.6286488999611,98,26,female,True
334,106.0,25,F,down,0.5309218999464065,0.3550320734622448,,experiment,emotion,0.0,,,,924.961966099916,98,26,female,True
335,103.0,25,F,down,0.3001742999767884,0.7392980259415414,,experiment,emotion,0.0,,,,926.4952346999198,98,26,female,True
336,106.0,25,M,down,0.3167960999999195,1.2603828965979975,,experiment,emotion,0.0,,,,928.4284963998944,98,26,female,True
337,100.0,25,M,down,0.7251371000893414,1.9055653682263285,,experiment,emotion,0.0,,,,931.0117180999368,98,26,female,True
338,109.0,25,F,down,0.501870600041002,1.0812896193774055,,experiment,emotion,0.0,,,,933.0949994999684,98,26,female,True
339,106.0,25,M,up,1.004604100016877,0.5685008485151414,,experiment,emotion,0.0,,,,934.4282564999304,98,26,female,True
340,109.0,25,F,down,0.7847597000654787,1.9259699870928768,,experiment,emotion,0.0,,,,937.62814419996,98,26,female,True
341,100.0,25,M,down,0.7338462999323383,0.5352435176617051,,experiment,emotion,0.0,,,,939.2280764000024,98,26,female,True
342,103.0,25,M,down,0.5321566000347957,0.4523661319830703,,experiment,emotion,0.0,,,,940.6947237999412,98,26,female,True
343,0.1109390039111105,25,up,up,0.6396399999503046,1.791774075600602,,experiment,cRDM,1.0,,,,956.1272915999872,98,26,female,True
344,0.1109390039111105,25,up,up,0.6096535000251606,1.5927233432322023,,experiment,cRDM,1.0,,,,958.627222299925,98,26,female,True
345,0.1109390039111105,25,down,up,0.4002410999964922,1.0628310807415906,,experiment,cRDM,1.0,,,,960.5606581999456,98,26,female,True
346,0.1109390039111105,25,down,up,0.7026318999705836,0.840765049792789,,experiment,cRDM,1.0,,,,962.0772622999502,98,26,female,True
347,0.1109390039111105,25,up,down,0.6651063000317663,1.9435139413564368,,experiment,cRDM,1.0,,,,964.9938143999316,98,26,female,True
348,0.1109390039111105,25,down,up,0.821486399974674,1.542455710393113,,experiment,cRDM,1.0,,,,967.4603872000008,98,26,female,True
349,0.1109390039111105,25,up,up,0.5922756999498233,1.801290287665567,,experiment,cRDM,1.0,,,,970.3436259999872,98,26,female,True
350,0.1109390039111105,25,up,up,0.536644299980253,0.8690436260018568,,experiment,cRDM,1.0,,,,972.0602299999446,98,26,female,True
351,0.1109390039111105,25,down,down,0.5821294999914244,0.573689792618044,,experiment,cRDM,1.0,,,,973.426759099937,98,26,female,True
352,0.1109390039111105,25,down,up,0.6207388000329956,0.550620187907171,,experiment,cRDM,1.0,,,,974.8101626998978,98,26,female,True
353,0.1109390039111105,25,down,down,0.7541532999603078,1.0352922724066087,,experiment,cRDM,1.0,,,,976.7267279999796,98,26,female,True
354,0.1109390039111105,25,down,up,0.5659188000718132,1.4676463416745775,,experiment,cRDM,1.0,,,,979.2099681999534,98,26,female,True
355,0.1109390039111105,25,down,up,0.5596956999506801,0.3998477095779825,,experiment,cRDM,1.0,,,,980.443232999998,98,26,female,True
356,0.1109390039111105,25,down,up,0.4167851000092923,0.4928429700508907,,experiment,cRDM,1.0,,,,981.7598667999264,98,26,female,True
357,0.1109390039111105,25,up,up,0.5308694000123069,1.392583437591685,,experiment,cRDM,1.0,,,,983.8430529999314,98,26,female,True
358,0.1109390039111105,25,up,up,0.576178100076504,1.5295167458263963,,experiment,cRDM,1.0,,,,986.1597259999252,98,26,female,True
359,0.1109390039111105,25,up,up,0.7922410999890417,1.7446204227182502,,experiment,cRDM,1.0,,,,988.7596272999654,98,26,female,True
360,0.1109390039111105,25,up,up,0.8839965000515804,1.1752096739203606,,experiment,cRDM,1.0,,,,990.9928558999673,98,26,female,True
361,0.1109390039111105,25,down,down,0.5707583000184968,1.9536949726493649,,experiment,cRDM,1.0,,,,994.0761015999597,98,26,female,True
362,0.1109390039111105,25,up,up,0.7455023999791592,0.450310387687843,,experiment,cRDM,1.0,,,,995.3593667999376,98,26,female,True
363,0.1109390039111105,25,up,up,0.6813244000077248,1.0739165964583974,,experiment,cRDM,1.0,,,,997.4426521999994,98,26,female,True
364,0.1109390039111105,25,down,down,0.5474868000019342,1.14786373006757,,experiment,cRDM,1.0,,,,999.5423939999891,98,26,female,True
365,0.1109390039111105,25,up,up,0.5220625000074506,1.5085544792430612,,experiment,cRDM,1.0,,,,1001.8758055999642,98,26,female,True
366,0.1109390039111105,25,down,up,0.6075177999446169,0.8254706615986791,,experiment,cRDM,1.0,,,,1003.4924051999114,98,26,female,True
367,0.1109390039111105,25,down,up,0.6872512999689206,1.9164245210876067,,experiment,cRDM,1.0,,,,1006.2756222999888,98,26,female,True
368,0.1109390039111105,25,up,up,0.7569674999685958,1.0818082333022114,,experiment,cRDM,1.0,,,,1008.3089036999736,98,26,female,True
369,0.1109390039111105,25,up,up,0.3836334999650717,1.3205462833454409,,experiment,cRDM,1.0,,,,1010.6421795999632,98,26,female,True
370,0.1109390039111105,25,down,up,0.487188300001435,1.5996024403073634,,experiment,cRDM,1.0,,,,1012.9087012999224,98,26,female,True
371,0.1109390039111105,25,up,up,0.7755773999961093,0.7228084897243985,,experiment,cRDM,1.0,,,,1014.3753248999128,98,26,female,True
372,0.1109390039111105,25,down,down,0.5329840000486001,0.632267552596574,,experiment,cRDM,1.0,,,,1016.0419636999724,98,26,female,True
373,0.1109390039111105,25,down,up,0.7719905000412837,1.822819435958024,,experiment,cRDM,1.0,,,,1018.6418765999842,98,26,female,True
374,0.1109390039111105,25,down,up,0.3671024000504985,1.0715981240485162,,experiment,cRDM,1.0,,,,1020.7418009999674,98,26,female,True
375,0.1109390039111105,25,up,up,0.6881783000426367,1.260861628631426,,experiment,cRDM,1.0,,,,1022.6916860999772,98,26,female,True
376,0.1109390039111105,25,up,down,0.5899874999886379,0.4931711137516703,,experiment,cRDM,1.0,,,,1024.1249124999158,98,26,female,True
377,0.1109390039111105,25,up,up,0.8186949999071658,1.589331760536142,,experiment,cRDM,1.0,,,,1026.558207899914,98,26,female,True
378,0.1109390039111105,25,down,down,0.6343771000392735,0.4087874796631504,,experiment,cRDM,1.0,,,,1028.0415226999903,98,26,female,True
379,0.1109390039111105,25,down,down,0.8940980000188574,0.474700335764152,,experiment,cRDM,1.0,,,,1029.4247810998932,98,26,female,True
380,0.1109390039111105,25,up,up,0.5928622999927029,1.823374009602774,,experiment,cRDM,1.0,,,,1032.4079860999482,98,26,female,True
381,0.1109390039111105,25,down,down,0.6296545000514016,1.9350158767623669,,experiment,cRDM,1.0,,,,1035.1912238999505,98,26,female,True
382,0.1109390039111105,25,up,up,0.5814116999972612,0.4818563243878867,,experiment,cRDM,1.0,,,,1036.574511499959,98,26,female,True
383,0.1109390039111105,25,up,down,0.4397107000695541,0.4326296790022628,,experiment,cRDM,1.0,,,,1037.8411728999345,98,26,female,True
384,0.1109390039111105,25,up,up,0.7581635999958962,1.665128913334744,,experiment,cRDM,1.0,,,,1040.2076960999984,98,26,female,True
385,0.1109390039111105,25,down,up,0.963817600044422,0.3100792356440027,,experiment,cRDM,1.0,,,,1041.5410425999437,98,26,female,True
386,0.1109390039111105,25,down,up,1.1622559999814257,0.4874377737998628,,experiment,cRDM,1.0,,,,1043.2576083999593,98,26,female,True
387,0.1109390039111105,25,up,up,0.6553564999485388,0.5776315774516887,,experiment,cRDM,1.0,,,,1045.257525099907,98,26,female,True
388,0.1109390039111105,25,down,up,0.9283754000207408,0.7793773431975626,,experiment,cRDM,1.0,,,,1046.957464599982,98,26,female,True
389,0.1109390039111105,25,down,up,0.8054969999939203,1.9622649672670776,,experiment,cRDM,1.0,,,,1050.107350999955,98,26,female,True
390,0.1109390039111105,25,up,up,0.701236900058575,1.0691392719165538,,experiment,cRDM,1.0,,,,1052.240620299941,98,26,female,True
391,0.1109390039111105,25,up,up,1.0283349000383168,1.985656340981202,,experiment,cRDM,1.0,,,,1055.190508799977,98,26,female,True
392,0.1109390039111105,25,down,up,0.732505000079982,1.7230058998744222,,experiment,cRDM,1.0,,,,1058.1903824999465,98,26,female,True
393,0.1109390039111105,25,up,up,0.5093388999812305,0.6423563517888793,,experiment,cRDM,1.0,,,,1059.8235775999492,98,26,female,True
394,0.1109390039111105,25,down,down,0.583612099988386,1.3791522524182305,,experiment,cRDM,1.0,,,,1061.9902464000045,98,26,female,True
395,0.1109390039111105,25,down,down,0.63770459999796,1.967393459976309,,experiment,cRDM,1.0,,,,1064.790157899959,98,26,female,True
396,0.1109390039111105,25,down,down,1.1421355999773368,0.4661184319908671,,experiment,cRDM,1.0,,,,1066.1567529999884,98,26,female,True
397,0.1109390039111105,25,up,up,0.5465482999570668,1.9036432590247847,,experiment,cRDM,1.0,,,,1069.4733066998888,98,26,female,True
398,0.1109390039111105,25,up,up,0.580943200038746,1.9385341293708112,,experiment,cRDM,1.0,,,,1072.2398992999224,98,26,female,True
399,0.1109390039111105,25,down,up,0.633411500020884,1.731234418267032,,experiment,cRDM,1.0,,,,1074.806435099919,98,26,female,True
400,0.1109390039111105,25,down,down,0.8837830000557005,0.728819760945759,,experiment,cRDM,1.0,,,,1076.4230567999184,98,26,female,True
401,0.1109390039111105,25,up,up,0.8119410999352112,1.8120144197307384,,experiment,cRDM,1.0,,,,1079.3729368998902,98,26,female,True
402,0.1109390039111105,25,up,up,0.6100499000167474,0.3801251088264598,,experiment,cRDM,1.0,,,,1080.8228033999912,98,26,female,True
403,0.1109390039111105,25,up,up,0.4167920000618323,0.4632877656282797,,experiment,cRDM,1.0,,,,1082.1561804999365,98,26,female,True
404,0.1109390039111105,25,up,up,0.4551260999869555,1.7383940122287764,,experiment,cRDM,1.0,,,,1084.57275079994,98,26,female,True
405,0.1109390039111105,25,up,up,0.4631983999861404,1.285675924696276,,experiment,cRDM,1.0,,,,1086.572679999983,98,26,female,True
406,0.1109390039111105,25,down,down,0.7561697999481112,0.8097341568031631,,experiment,cRDM,1.0,,,,1088.1226623998955,98,26,female,True
407,0.1109390039111105,25,down,down,0.8565955000231043,0.4014113312114447,,experiment,cRDM,1.0,,,,1089.539255299955,98,26,female,True
408,0.1109390039111105,25,up,up,0.5727061000652611,1.7376168878582363,,experiment,cRDM,1.0,,,,1092.3891482999315,98,26,female,True
409,0.1109390039111105,25,down,down,0.6364953999873251,1.853206596082027,,experiment,cRDM,1.0,,,,1095.0723602999933,98,26,female,True
410,0.1109390039111105,25,down,up,0.6146946999942884,1.760618313605621,,experiment,cRDM,1.0,,,,1097.7221572999842,98,26,female,True
411,0.1109390039111105,25,down,up,0.6537022999254987,1.0780491541365191,,experiment,cRDM,1.0,,,,1099.6721503000008,98,26,female,True
412,0.1109390039111105,25,up,up,0.5774252000264823,0.5094889792299253,,experiment,cRDM,1.0,,,,1101.105472199968,98,26,female,True
413,0.1109390039111105,25,down,up,0.6604546000016853,1.3641569374901248,,experiment,cRDM,1.0,,,,1103.3053802999202,98,26,female,True
414,0.1109390039111105,25,down,up,0.6679139999905601,1.440412548312566,,experiment,cRDM,1.0,,,,1105.6719809999922,98,26,female,True
415,0.1109390039111105,25,down,up,0.8236386000644416,1.344381166644753,,experiment,cRDM,1.0,,,,1107.955208899919,98,26,female,True
416,0.1109390039111105,25,up,up,0.6381167999934405,0.4834742098938445,,experiment,cRDM,1.0,,,,1109.5217392999912,98,26,female,True
417,0.1109390039111105,25,up,down,0.7933809000533074,0.4250195719671368,,experiment,cRDM,1.0,,,,1110.8384688999504,98,26,female,True
418,0.1109390039111105,25,down,up,0.7954612999456003,0.6064724823754859,,experiment,cRDM,1.0,,,,1112.488410399994,98,26,female,True
419,0.1109390039111105,25,up,up,0.7781766001135111,0.8192144652206139,,experiment,cRDM,1.0,,,,1114.3716709999137,98,26,female,True
420,0.1109390039111105,25,down,up,1.2125976000679657,1.0340654333524617,,experiment,cRDM,1.0,,,,1116.438268599915,98,26,female,True
421,0.1109390039111105,25,up,up,0.6756913000717759,1.520866495666753,,experiment,cRDM,1.0,,,,1119.4381664999528,98,26,female,True
422,0.1109390039111105,25,up,down,1.3131633999291807,1.8308677854801536,,experiment,cRDM,1.0,,,,1122.2046874999069,98,26,female,True
423,109.0,25,M,up,1.1860046000219882,1.01760181373189,,experiment,emotion,1.0,,,,1127.9378170999698,98,26,female,True
424,100.0,25,M,down,0.579971699975431,1.61732495543621,,experiment,emotion,1.0,,,,1131.0208791999612,98,26,female,True
425,106.0,25,F,down,0.6072429999476299,1.7431167873685032,,experiment,emotion,1.0,,,,1133.6376429999946,98,26,female,True
426,109.0,25,F,down,0.5683433000231162,1.886850018839334,,experiment,emotion,1.0,,,,1136.387512999936,98,26,female,True
427,106.0,25,M,up,0.8840495999902487,0.732756836373617,,experiment,emotion,1.0,,,,1137.9707934999606,98,26,female,True
428,103.0,25,F,up,0.6667629000730813,0.4222981541141462,,experiment,emotion,1.0,,,,1139.5540831999388,98,26,female,True
429,100.0,25,M,up,0.5126000000163913,0.652119114684624,,experiment,emotion,1.0,,,,1141.1372531999368,98,26,female,True
430,103.0,25,M,up,0.8869326999410987,1.678768210880933,,experiment,emotion,1.0,,,,1143.6039160999935,98,26,female,True
431,109.0,25,F,up,0.6257543999236077,1.785294537144401,,experiment,emotion,1.0,,,,1146.537124699913,98,26,female,True
432,103.0,25,F,down,0.6068258000304922,1.2139814236874402,,experiment,emotion,1.0,,,,1148.6370582999662,98,26,female,True
433,106.0,25,F,down,0.8201861999696121,0.3826641311915861,,experiment,emotion,1.0,,,,1149.9036538999062,98,26,female,True
434,109.0,25,F,up,0.5602551000192761,1.658610637158943,,experiment,emotion,1.0,,,,1152.653588999994,98,26,female,True
435,106.0,25,F,up,0.4503760000225156,0.9695453085609044,,experiment,emotion,1.0,,,,1154.4535086998949,98,26,female,True
436,100.0,25,F,down,0.7574147999985144,1.862903448371644,,experiment,emotion,1.0,,,,1157.0534314999825,98,26,female,True
437,103.0,25,M,up,0.7175692999735475,0.6173601250218375,,experiment,emotion,1.0,,,,1158.703280699905,98,26,female,True
438,100.0,25,M,down,0.7912154999794438,0.3328038703960982,,experiment,emotion,1.0,,,,1160.0366409999551,98,26,female,True
439,109.0,25,M,up,0.7952995999949053,1.5278344288237018,,experiment,emotion,1.0,,,,1162.6365451999009,98,26,female,True
440,100.0,25,M,down,1.074745699996129,1.0533682682777956,,experiment,emotion,1.0,,,,1164.753120499896,98,26,female,True
441,106.0,25,F,down,0.8378219999140128,1.7566195997411216,,experiment,emotion,1.0,,,,1167.8530157998905,98,26,female,True
442,106.0,25,M,down,0.7236143000191078,0.7155691295633773,,experiment,emotion,1.0,,,,1169.6862848999444,98,26,female,True
443,103.0,25,M,down,1.2109707000199703,0.5028231093562395,,experiment,emotion,1.0,,,,1171.2028718999354,98,26,female,True
444,103.0,25,F,up,1.0050572999753058,1.792022432900272,,experiment,emotion,1.0,,,,1174.4527810999425,98,26,female,True
445,100.0,25,M,up,0.4951817999826744,1.805887544562704,,experiment,emotion,1.0,,,,1177.552658499917,98,26,female,True
446,109.0,25,F,up,0.5842943000607193,0.9681157841590848,,experiment,emotion,1.0,,,,1179.3025861999486,98,26,female,True
447,106.0,25,F,up,0.4593360000289976,1.59121166092762,,experiment,emotion,1.0,,,,1181.752529599937,98,26,female,True
448,100.0,25,M,up,1.1923904999857768,1.1715826318512683,,experiment,emotion,1.0,,,,1183.6524380999615,98,26,female,True
449,109.0,25,M,up,0.8688182999612764,0.7623491681837293,,experiment,emotion,1.0,,,,1185.8690225000028,98,26,female,True
450,109.0,25,F,down,0.8372168999630958,1.3194927004671348,,experiment,emotion,1.0,,,,1188.3356032999,98,26,female,True
451,103.0,25,M,down,0.8697013000492007,0.3254818093253914,,experiment,emotion,1.0,,,,1189.8022019999337,98,26,female,True
452,100.0,25,F,down,0.527745500090532,0.9129286650823843,,experiment,emotion,1.0,,,,1191.8521196999354,98,26,female,True
453,103.0,25,F,down,0.4967986000701785,0.6372795039555383,,experiment,emotion,1.0,,,,1193.3020648999372,98,26,female,True
454,106.0,25,F,down,0.7635180000215769,1.7525635621995352,,experiment,emotion,1.0,,,,1195.8353254999963,98,26,female,True
455,100.0,25,M,down,0.9483946999534963,1.843453173357818,,experiment,emotion,1.0,,,,1198.71842979989,98,26,female,True
456,109.0,25,M,down,0.8100340999662876,1.502676263721636,,experiment,emotion,1.0,,,,1201.4517825999064,98,26,female,True
457,106.0,25,M,up,0.5824985000072047,1.7426621053104483,,experiment,emotion,1.0,,,,1204.2683598999863,98,26,female,True
458,109.0,25,F,up,0.7301709000021219,0.6772498570605445,,experiment,emotion,1.0,,,,1205.8016304000048,98,26,female,True
459,100.0,25,F,down,1.221663900068961,1.9101004197122455,,experiment,emotion,1.0,,,,1208.718175299931,98,26,female,True
460,106.0,25,M,up,0.6327220000093803,0.4570144329477293,,experiment,emotion,1.0,,,,1210.6681121999864,98,26,female,True
461,103.0,25,F,down,0.6514843999175355,1.6636671820899582,,experiment,emotion,1.0,,,,1213.2513490999115,98,26,female,True
462,103.0,25,M,up,0.7062042000470683,1.061516004566505,,experiment,emotion,1.0,,,,1215.234629899962,98,26,female,True
463,106.0,25,M,up,0.8496483000926673,1.125915509692133,,experiment,emotion,1.0,,,,1217.3512028999394,98,26,female,True
464,109.0,25,M,down,1.1163678000448272,0.9589555293751306,,experiment,emotion,1.0,,,,1219.4344635999296,98,26,female,True
465,103.0,25,F,down,1.0314757000887766,0.8668183205795224,,experiment,emotion,1.0,,,,1221.6843729999382,98,26,female,True
466,100.0,25,F,up,0.8082894999533892,1.1294169748929292,,experiment,emotion,1.0,,,,1224.1175418999046,98,26,female,True
467,100.0,25,M,up,0.9079647000180556,1.168319750863413,,experiment,emotion,1.0,,,,1226.3508666999403,98,26,female,True
468,103.0,25,F,down,0.6507125999778509,0.792917309430275,,experiment,emotion,1.0,,,,1228.334121999913,98,26,female,True
469,109.0,25,F,up,0.7352665000362322,1.338866457508271,,experiment,emotion,1.0,,,,1230.600564399967,98,26,female,True
470,106.0,25,M,up,0.9424999000038952,0.4437247502048619,,experiment,emotion,1.0,,,,1232.0673411999596,98,26,female,True
471,100.0,25,M,down,0.80465019994881,1.6911821149479642,,experiment,emotion,1.0,,,,1234.9672074998962,98,26,female,True
472,109.0,25,F,down,0.8657084000296891,0.8200601666380416,,experiment,emotion,1.0,,,,1236.86715559999,98,26,female,True
473,106.0,25,M,up,0.7637370000593364,0.3566594354993708,,experiment,emotion,1.0,,,,1238.3670903999591,98,26,female,True
474,106.0,25,F,up,0.8241710000438616,1.7398840460041136,,experiment,emotion,1.0,,,,1241.1336653999751,98,26,female,True
475,100.0,25,F,up,1.1403301999671385,1.804902789022886,,experiment,emotion,1.0,,,,1244.0335427999962,98,26,female,True
476,103.0,25,F,up,0.6657914000097662,1.940578961268553,,experiment,emotion,1.0,,,,1247.4000714999856,98,26,female,True
477,109.0,25,M,up,0.795458700042218,0.749960930170956,,experiment,emotion,1.0,,,,1249.083376799943,98,26,female,True
478,103.0,25,M,up,0.8682153000263497,1.221873139031009,,experiment,emotion,1.0,,,,1251.366615499952,98,26,female,True
479,103.0,25,F,up,0.9402714000316336,0.3439468391659168,,experiment,emotion,1.0,,,,1252.8665509999264,98,26,female,True
480,103.0,25,F,up,0.9196561999851838,1.4136679555960543,,experiment,emotion,1.0,,,,1255.4831346999854,98,26,female,True
481,109.0,25,M,up,0.7651869000401348,0.7302677939898556,,experiment,emotion,1.0,,,,1257.3997037999798,98,26,female,True
482,106.0,25,M,down,0.7307764000725001,0.9745604894834246,,experiment,emotion,1.0,,,,1259.43298459996,98,26,female,True
483,100.0,25,M,down,0.6122817000141367,1.2563793493943285,,experiment,emotion,1.0,,,,1261.6995448999803,98,26,female,True
484,100.0,25,M,up,0.80064770008903,0.4947383834271394,,experiment,emotion,1.0,,,,1263.0662070999388,98,26,female,True
485,106.0,25,M,up,0.8014282999793068,1.918096676671036,,experiment,emotion,1.0,,,,1266.049400299904,98,26,female,True
486,109.0,25,F,down,0.8529448000481352,0.4918493680519712,,experiment,emotion,1.0,,,,1267.61591589998,98,26,female,True
487,109.0,25,F,up,0.895874899928458,0.4295030088193723,,experiment,emotion,1.0,,,,1269.1659464999102,98,26,female,True
488,100.0,25,M,up,0.4690115000121295,0.6906965237894532,,experiment,emotion,1.0,,,,1271.0158194999676,98,26,female,True
489,109.0,25,F,up,0.5546999999787658,0.794058118624636,,experiment,emotion,1.0,,,,1272.549163299962,98,26,female,True
490,103.0,25,F,up,0.74471680005081,0.60992928849669,,experiment,emotion,1.0,,,,1273.9991043999323,98,26,female,True
491,106.0,25,F,up,0.6782387000275776,0.3991979457715955,,experiment,emotion,1.0,,,,1275.415622200002,98,26,female,True
492,103.0,25,M,up,0.5481352000497282,0.6848481314461247,,experiment,emotion,1.0,,,,1277.0656721999403,98,26,female,True
493,100.0,25,F,up,0.8335679000010714,0.6840278059143702,,experiment,emotion,1.0,,,,1278.5822688998887,98,26,female,True
494,106.0,25,F,up,0.6279747999506071,1.6123267381424988,,experiment,emotion,1.0,,,,1281.298845799989,98,26,female,True
495,103.0,25,F,up,0.5891123999608681,0.4818398430545952,,experiment,emotion,1.0,,,,1282.6987779999615,98,26,female,True
496,106.0,25,M,up,0.5327135999687016,0.5289994767845296,,experiment,emotion,1.0,,,,1284.0820803999668,98,26,female,True
497,100.0,25,M,down,0.7391910000005737,1.512940935070506,,experiment,emotion,1.0,,,,1286.3986422999296,98,26,female,True
498,109.0,25,F,down,0.5578670999966562,0.6188602810840009,,experiment,emotion,1.0,,,,1288.031940399902,98,26,female,True
499,106.0,25,M,up,0.6773523000301793,1.894219532218049,,experiment,emotion,1.0,,,,1290.7484914999222,98,26,female,True
500,109.0,25,F,up,0.8853975998936221,1.3561599513477247,,experiment,emotion,1.0,,,,1293.0484076999128,98,26,female,True
501,100.0,25,M,up,0.6379314999794587,0.9221848913446916,,experiment,emotion,1.0,,,,1295.1148872999474,98,26,female,True
502,103.0,25,M,up,0.8318980999756604,0.9324376185679744,,experiment,emotion,1.0,,,,1296.964941199985,98,26,female,True
503,0.1109390039111105,25,up,down,0.637298500048928,1.6534613570121888,,experiment,cRDM,2.0,,,,1315.7975548999384,98,26,female,True
504,0.1109390039111105,25,up,up,0.5480145000619814,1.0828783929406904,,experiment,cRDM,2.0,,,,1317.780827099923,98,26,female,True
505,0.1109390039111105,25,down,down,0.8000708000035957,0.6474073710864854,,experiment,cRDM,2.0,,,,1319.230814199895,98,26,female,True
506,0.1109390039111105,25,down,up,0.702466499991715,1.1492136983435737,,experiment,cRDM,2.0,,,,1321.4473396999529,98,26,female,True
507,0.1109390039111105,25,up,up,0.6658689000178128,1.3558206700745694,,experiment,cRDM,2.0,,,,1323.7639505999396,98,26,female,True
508,0.1109390039111105,25,down,up,0.6269366999622434,1.628742025546895,,experiment,cRDM,2.0,,,,1326.3139034999767,98,26,female,True
509,0.1109390039111105,25,up,up,0.6740456999978051,0.8156013507418483,,experiment,cRDM,2.0,,,,1328.0138139999472,98,26,female,True
510,0.1109390039111105,25,up,up,0.4378468999639153,1.4421337369564422,,experiment,cRDM,2.0,,,,1330.3969251998933,98,26,female,True
511,0.1109390039111105,25,down,up,0.4335822999710217,1.4753078769912358,,experiment,cRDM,2.0,,,,1332.580267699901,98,26,female,True
512,0.1109390039111105,25,down,down,0.5505530999507755,1.30069400781524,,experiment,cRDM,2.0,,,,1334.5802396999206,98,26,female,True
513,0.1109390039111105,25,down,up,0.5023372999858111,1.1817818339247197,,experiment,cRDM,2.0,,,,1336.5634816999082,98,26,female,True
514,0.1109390039111105,25,down,up,0.6927689000731334,1.4580011161813478,,experiment,cRDM,2.0,,,,1338.7800476999255,98,26,female,True
515,0.1109390039111105,25,down,up,0.5467834000010043,0.6913773307683533,,experiment,cRDM,2.0,,,,1340.4300323999487,98,26,female,True
516,0.1109390039111105,25,down,down,0.7035241000121459,0.5154311553886061,,experiment,cRDM,2.0,,,,1341.7632769999327,98,26,female,True
517,0.1109390039111105,25,up,up,0.8312927999068052,0.5138857805193177,,experiment,cRDM,2.0,,,,1343.2465638999129,98,26,female,True
518,0.1109390039111105,25,up,up,0.6990130000049248,1.9388422185967928,,experiment,cRDM,2.0,,,,1346.279803499929,98,26,female,True
519,0.1109390039111105,25,up,up,0.8690717000281438,1.7973989280067957,,experiment,cRDM,2.0,,,,1349.0297174999723,98,26,female,True
520,0.1109390039111105,25,up,up,1.0258766000624746,1.5025353209426484,,experiment,cRDM,2.0,,,,1351.6629219999304,98,26,female,True
521,0.1109390039111105,25,down,up,0.8463030999992043,0.6843712302375549,,experiment,cRDM,2.0,,,,1353.6295371999731,98,26,female,True
522,0.1109390039111105,25,up,down,0.6130779999075457,1.927948790295292,,experiment,cRDM,2.0,,,,1356.662735599908,98,26,female,True
523,0.1109390039111105,25,up,up,0.5798573000356555,0.9533381081835202,,experiment,cRDM,2.0,,,,1358.495986099937,98,26,female,True
524,0.1109390039111105,25,down,up,0.7453589000506327,1.1732953579887255,,experiment,cRDM,2.0,,,,1360.5124560999684,98,26,female,True
525,0.1109390039111105,25,up,up,0.7990000999998301,0.5397001036166393,,experiment,cRDM,2.0,,,,1362.045871499926,98,26,female,True
526,0.1109390039111105,25,down,up,0.421014399966225,1.5912110163640982,,experiment,cRDM,2.0,,,,1364.6957831999753,98,26,female,True
527,0.1109390039111105,25,down,down,0.4487395000178367,1.1508552289403335,,experiment,cRDM,2.0,,,,1366.5290693999268,98,26,female,True
528,0.1109390039111105,25,up,up,0.5214957999996841,0.3091541751208359,,experiment,cRDM,2.0,,,,1367.562339899945,98,26,female,True
529,0.1109390039111105,25,up,up,0.724612099933438,1.5668623415406338,,experiment,cRDM,2.0,,,,1369.9121999999045,98,26,female,True
530,0.1109390039111105,25,down,up,0.7699515999993309,1.8201073945248736,,experiment,cRDM,2.0,,,,1372.728838799987,98,26,female,True
531,0.1109390039111105,25,up,up,0.7240779000567272,1.0077234498616607,,experiment,cRDM,2.0,,,,1374.7787337999323,98,26,female,True
532,0.1109390039111105,25,down,down,0.9001489999936894,0.3167634036282589,,experiment,cRDM,2.0,,,,1376.0786889999872,98,26,female,True
533,0.1109390039111105,25,down,down,0.7842431999742985,0.8415871168510953,,experiment,cRDM,2.0,,,,1378.078606999945,98,26,female,True
534,0.1109390039111105,25,down,up,0.858888499904424,0.6468435982111264,,experiment,cRDM,2.0,,,,1379.761897599907,98,26,female,True
535,0.1109390039111105,25,up,up,0.7317047999240458,0.9032022896513576,,experiment,cRDM,2.0,,,,1381.795119999908,98,26,female,True
536,0.1109390039111105,25,up,down,0.6757709999801591,1.411814738196272,,experiment,cRDM,2.0,,,,1384.195039999904,98,26,female,True
537,0.1109390039111105,25,up,up,0.7998379999771714,1.2638102728892433,,experiment,cRDM,2.0,,,,1386.3949708999137,98,26,female,True
538,0.1109390039111105,25,down,up,0.9402105999179184,0.4935168390552454,,experiment,cRDM,2.0,,,,1387.9615810998948,98,26,female,True
539,0.1109390039111105,25,down,down,0.7796180000295863,0.4142644817571558,,experiment,cRDM,2.0,,,,1389.578191999928,98,26,female,True
540,0.1109390039111105,25,up,up,0.9427271999884396,1.9518790452020391,,experiment,cRDM,2.0,,,,1392.5780803998932,98,26,female,True
541,0.1109390039111105,25,down,up,0.7432666999520734,0.869246797242766,,experiment,cRDM,2.0,,,,1394.6446581999771,98,26,female,True
542,0.1109390039111105,25,up,up,1.2188618999207392,0.6795435473793059,,experiment,cRDM,2.0,,,,1396.3279407999944,98,26,female,True
543,0.1109390039111105,25,up,up,0.7336459000362083,1.4026342662533842,,experiment,cRDM,2.0,,,,1399.211194399977,98,26,female,True
544,0.1109390039111105,25,up,up,0.5976693000411615,0.7968254948910631,,experiment,cRDM,2.0,,,,1401.0111371999374,98,26,female,True
545,0.1109390039111105,25,down,down,0.5445549000287428,1.2260091078041346,,experiment,cRDM,2.0,,,,1403.0942519999808,98,26,female,True
546,0.1109390039111105,25,down,up,0.8062111000763252,1.4670833045506346,,experiment,cRDM,2.0,,,,1405.377622699947,98,26,female,True
547,0.1109390039111105,25,up,up,0.8706394000910223,1.1995613754988397,,experiment,cRDM,2.0,,,,1407.6441936999329,98,26,female,True
548,0.1109390039111105,25,down,down,0.9530314999865368,0.9381502423787916,,experiment,cRDM,2.0,,,,1409.7107684999935,98,26,female,True
549,0.1109390039111105,25,down,down,0.6207576999440789,0.4978594988820092,,experiment,cRDM,2.0,,,,1411.4440468999092,98,26,female,True
550,0.1109390039111105,25,up,up,0.7434341999469325,0.3899129141662288,,experiment,cRDM,2.0,,,,1412.7273712999886,98,26,female,True
551,0.1109390039111105,25,up,down,0.7032305999891832,1.5238594969476174,,experiment,cRDM,2.0,,,,1415.2605818999,98,26,female,True
552,0.1109390039111105,25,down,up,0.8313187999883667,1.885659884538652,,experiment,cRDM,2.0,,,,1418.1105003999546,98,26,female,True
553,0.1109390039111105,25,up,up,0.679433099925518,1.5659825066478408,,experiment,cRDM,2.0,,,,1420.7603826998966,98,26,female,True
554,0.1109390039111105,25,down,up,1.344324600067921,1.7831611166315746,,experiment,cRDM,2.0,,,,1423.493479799945,98,26,female,True
555,0.1109390039111105,25,down,down,0.7563122999854386,1.2401304815918353,,experiment,cRDM,2.0,,,,1426.3435088999104,98,26,female,True
556,0.1109390039111105,25,down,up,0.6457844000542536,0.9413923960121529,,experiment,cRDM,2.0,,,,1428.3100157999434,98,26,female,True
557,0.1109390039111105,25,up,up,0.5354260000167415,0.467086872796836,,experiment,cRDM,2.0,,,,1429.693355299998,98,26,female,True
558,0.1109390039111105,25,up,up,0.4177460001083091,0.5600393142929094,,experiment,cRDM,2.0,,,,1431.0599970999174,98,26,female,True
559,0.1109390039111105,25,down,up,0.6751836999319494,0.4367415966007249,,experiment,cRDM,2.0,,,,1432.176616199897,98,26,female,True
560,0.1109390039111105,25,down,down,1.5142388000385836,0.7547628127923605,,experiment,cRDM,2.0,,,,1433.8765717999777,98,26,female,True
561,0.1109390039111105,25,up,up,0.575728900032118,0.7464721610381719,,experiment,cRDM,2.0,,,,1436.393116799998,98,26,female,True
562,0.1109390039111105,25,up,up,0.6700440000277013,0.7156239648009267,,experiment,cRDM,2.0,,,,1437.9597448999994,98,26,female,True
563,0.1109390039111105,25,up,up,0.7027625000337139,0.3519974760635032,,experiment,cRDM,2.0,,,,1439.2430386999622,98,26,female,True
564,0.1109390039111105,25,up,down,0.7727751999627799,0.6481763203596902,,experiment,cRDM,2.0,,,,1440.8429957999615,98,26,female,True
565,0.1109390039111105,25,up,up,0.9038928999798372,0.3087182111007117,,experiment,cRDM,2.0,,,,1442.1929060999537,98,26,female,True
566,0.1109390039111105,25,down,up,0.8603739999234676,0.5390021881783538,,experiment,cRDM,2.0,,,,1443.9094331999077,98,26,female,True
567,0.1109390039111105,25,down,down,0.9647020000265912,1.9947451009653887,,experiment,cRDM,2.0,,,,1447.0260974999983,98,26,female,True
568,0.1109390039111105,25,up,down,0.8381371999857947,1.069290433284509,,experiment,cRDM,2.0,,,,1449.3426638999954,98,26,female,True
569,0.1109390039111105,25,down,down,0.6912232999457046,1.2462148110676554,,experiment,cRDM,2.0,,,,1451.692577199894,98,26,female,True
570,0.1109390039111105,25,down,up,0.905316699994728,1.902074725519232,,experiment,cRDM,2.0,,,,1454.5424859999912,98,26,female,True
571,0.1109390039111105,25,down,up,1.144110900000669,1.7814781725493736,,experiment,cRDM,2.0,,,,1457.4756869999692,98,26,female,True
572,0.1109390039111105,25,up,up,0.8408099999651313,0.972562635673923,,experiment,cRDM,2.0,,,,1459.858945999993,98,26,female,True
573,0.1109390039111105,25,down,down,0.8336622000206262,1.335932597527859,,experiment,cRDM,2.0,,,,1462.2921630999772,98,26,female,True
574,0.1109390039111105,25,down,up,0.5772117000306025,1.4153501394216303,,experiment,cRDM,2.0,,,,1464.8086081999354,98,26,female,True
575,0.1109390039111105,25,down,down,0.6574128000065684,0.3772405173786193,,experiment,cRDM,2.0,,,,1466.0253996999236,98,26,female,True
576,0.1109390039111105,25,up,up,0.4681324000703171,0.9040084619161632,,experiment,cRDM,2.0,,,,1467.8586479999358,98,26,female,True
577,0.1109390039111105,25,up,up,0.7911909999093041,1.227653969167468,,experiment,cRDM,2.0,,,,1469.808602099889,98,26,female,True
578,0.1109390039111105,25,down,down,1.1496611000038683,1.9515891981245024,,experiment,cRDM,2.0,,,,1472.8251386999618,98,26,female,True
579,0.1109390039111105,25,up,up,0.7078025999944657,1.6459174570173871,,experiment,cRDM,2.0,,,,1475.8750087999506,98,26,female,True
580,0.1109390039111105,25,down,up,0.6785821999656036,1.7062388241226496,,experiment,cRDM,2.0,,,,1478.5582454999676,98,26,female,True
581,0.1109390039111105,25,up,down,0.518625000026077,1.553163345779452,,experiment,cRDM,2.0,,,,1481.0581548999762,98,26,female,True
582,0.1109390039111105,25,up,up,0.5173835000023246,1.795587329575838,,experiment,cRDM,2.0,,,,1483.6414109999314,98,26,female,True
583,109.0,25,M,down,0.7389148999936879,1.4470943495888249,,experiment,emotion,2.0,,,,1497.5408857999137,98,26,female,True
584,100.0,25,M,down,0.4942409000359475,1.92824988960824,,experiment,emotion,2.0,,,,1500.4906196999364,98,26,female,True
585,106.0,25,F,down,0.7195259999716654,1.7402216820640848,,experiment,emotion,2.0,,,,1503.0072642999005,98,26,female,True
586,109.0,25,F,down,0.901501400046982,0.999796927904125,,experiment,emotion,2.0,,,,1505.007289399975,98,26,female,True
587,106.0,25,M,down,0.751638500019908,1.3808375913707347,,experiment,emotion,2.0,,,,1507.5571928999852,98,26,female,True
588,103.0,25,F,down,0.626007099985145,0.9383524329396886,,experiment,emotion,2.0,,,,1509.5237923999084,98,26,female,True
589,100.0,25,M,down,0.5584160999860615,0.8300319113486085,,experiment,emotion,2.0,,,,1511.2403772999533,98,26,female,True
590,103.0,25,M,down,0.8089513999875635,1.4424042111586115,,experiment,emotion,2.0,,,,1513.506847199984,98,26,female,True
591,109.0,25,F,up,0.6972562000155449,0.9917293762147624,,experiment,emotion,2.0,,,,1515.5735514999833,98,26,female,True
592,103.0,25,F,down,0.864691499969922,1.7881718387562022,,experiment,emotion,2.0,,,,1518.3401212999595,98,26,female,True
593,106.0,25,F,down,0.8421295000007376,1.964722054182367,,experiment,emotion,2.0,,,,1521.4566650999477,98,26,female,True
594,109.0,25,F,up,1.1098981000250203,1.8911500117182,,experiment,emotion,2.0,,,,1524.4398962999694,98,26,female,True
595,106.0,25,F,up,1.1446792999049649,1.4978901387825474,,experiment,emotion,2.0,,,,1527.3231143999146,98,26,female,True
596,100.0,25,F,down,0.6771143999649212,1.6482357996622083,,experiment,emotion,2.0,,,,1530.3896726999665,98,26,female,True
597,103.0,25,M,down,0.8008785999845713,1.216470065885526,,experiment,emotion,2.0,,,,1532.5729340999387,98,26,female,True
598,100.0,25,M,down,0.7389311000006273,1.430052929316548,,experiment,emotion,2.0,,,,1535.0728445999555,98,26,female,True
599,109.0,25,M,up,0.7107888999162242,0.928124858969584,,experiment,emotion,2.0,,,,1537.0059950998984,98,26,female,True
600,100.0,25,M,up,0.9064359000185503,1.3496880730105825,,experiment,emotion,2.0,,,,1539.3393594999798,98,26,female,True
601,106.0,25,F,up,0.5775222999509424,0.9177239865848228,,experiment,emotion,2.0,,,,1541.4392589998895,98,26,female,True
602,106.0,25,M,down,0.7415263999719173,0.3705188760711935,,experiment,emotion,2.0,,,,1542.6392632999923,98,26,female,True
603,103.0,25,M,down,0.4952891001012176,0.5605855300497508,,experiment,emotion,2.0,,,,1544.2225020999322,98,26,female,True
604,103.0,25,F,up,0.5850064000114799,0.3166821466345949,,experiment,emotion,2.0,,,,1545.3057532999665,98,26,female,True
605,100.0,25,M,up,0.7320701000280678,1.6070341178930678,,experiment,emotion,2.0,,,,1547.7557136999676,98,26,female,True
606,109.0,25,F,up,0.7874649000586942,0.706538501317286,,experiment,emotion,2.0,,,,1549.4723181999288,98,26,female,True
607,106.0,25,F,up,0.7882627000799403,0.7786355322942009,,experiment,emotion,2.0,,,,1551.3055373999523,98,26,female,True
608,100.0,25,M,down,0.529963800101541,1.4816187928066518,,experiment,emotion,2.0,,,,1553.838816899923,98,26,female,True
609,109.0,25,M,up,1.088713299948722,1.040232660519786,,experiment,emotion,2.0,,,,1555.672077999916,98,26,female,True
610,109.0,25,F,up,0.6954441000707448,0.4793100184591149,,experiment,emotion,2.0,,,,1557.5053430999396,98,26,female,True
611,103.0,25,M,up,0.7775582000613213,1.965556758428074,,experiment,emotion,2.0,,,,1560.4552293999586,98,26,female,True
612,100.0,25,F,up,1.090383899980225,1.7852375278961814,,experiment,emotion,2.0,,,,1563.2884064998943,98,26,female,True
613,103.0,25,F,down,0.6328571999911219,1.9566861453310416,,experiment,emotion,2.0,,,,1566.6049279998988,98,26,female,True
614,106.0,25,F,down,0.8769894000142813,1.4867888669694376,,experiment,emotion,2.0,,,,1569.0047978999792,98,26,female,True
615,100.0,25,M,up,0.5919102999614552,0.5003214920670891,,experiment,emotion,2.0,,,,1570.6548739999998,98,26,female,True
616,109.0,25,M,up,1.2523386999964714,1.7411485567172371,,experiment,emotion,2.0,,,,1573.271418599994,98,26,female,True
617,106.0,25,M,up,0.5751714999787509,1.665863969036449,,experiment,emotion,2.0,,,,1576.4546270999126,98,26,female,True
618,109.0,25,F,up,1.0195510999765247,1.0593499412048168,,experiment,emotion,2.0,,,,1578.3712321999485,98,26,female,True
619,100.0,25,F,down,0.8513059999095276,1.689776087120157,,experiment,emotion,2.0,,,,1581.3544697999023,98,26,female,True
620,106.0,25,M,up,0.713727799942717,0.8074161268721065,,experiment,emotion,2.0,,,,1583.2710518999957,98,26,female,True
621,103.0,25,F,down,0.6107959999935701,1.7299187340467317,,experiment,emotion,2.0,,,,1586.0209867999656,98,26,female,True
622,103.0,25,M,up,1.2096098000183702,0.7600101183500683,,experiment,emotion,2.0,,,,1587.6542441999773,98,26,female,True
623,106.0,25,M,up,0.4776229999260977,0.9153327143775885,,experiment,emotion,2.0,,,,1590.054155599908,98,26,female,True
624,109.0,25,M,up,0.947374900104478,1.320236104360124,,experiment,emotion,2.0,,,,1592.1374042999232,98,26,female,True
625,103.0,25,F,up,0.6581112999701872,0.5598195597145185,,experiment,emotion,2.0,,,,1593.9206645999802,98,26,female,True
626,100.0,25,F,up,0.8778311999049038,0.4028950369007789,,experiment,emotion,2.0,,,,1595.2539635999128,98,26,female,True
627,100.0,25,M,down,0.7378762000007555,1.3551757051686883,,experiment,emotion,2.0,,,,1597.753864999977,98,26,female,True
628,103.0,25,F,up,0.8880101999966428,1.6954894156600329,,experiment,emotion,2.0,,,,1600.453767400002,98,26,female,True
629,109.0,25,F,up,0.6571151000680402,1.632242727581306,,experiment,emotion,2.0,,,,1603.2536595999263,98,26,female,True
630,106.0,25,M,up,1.1695409000385553,1.833147867437697,,experiment,emotion,2.0,,,,1606.020235099946,98,26,female,True
631,100.0,25,M,down,0.5881051999749616,0.6368678155606098,,experiment,emotion,2.0,,,,1608.086656600004,98,26,female,True
632,109.0,25,F,up,0.8986888999352232,1.2368028755353853,,experiment,emotion,2.0,,,,1610.17008969991,98,26,female,True
633,106.0,25,M,up,0.5931817000964656,0.9000704051543931,,experiment,emotion,2.0,,,,1612.2366589999292,98,26,female,True
634,106.0,25,F,up,0.7191502000205219,1.1773560514811363,,experiment,emotion,2.0,,,,1614.2865943999495,98,26,female,True
635,100.0,25,F,up,0.8173088000621647,1.8663615837604344,,experiment,emotion,2.0,,,,1617.136490099947,98,26,female,True
636,103.0,25,F,up,0.7438245000084862,1.9491622015585963,,experiment,emotion,2.0,,,,1620.2029511999572,98,26,female,True
637,109.0,25,M,up,0.7779276000801474,1.0811142495341008,,experiment,emotion,2.0,,,,1622.3028898999328,98,26,female,True
638,103.0,25,M,up,0.551268299925141,0.4318130361885096,,experiment,emotion,2.0,,,,1623.7695690999972,98,26,female,True
639,103.0,25,F,up,0.6076413999544457,0.9838616153307508,,experiment,emotion,2.0,,,,1625.5861657999922,98,26,female,True
640,103.0,25,F,up,0.5500610000453889,1.9800540968169624,,experiment,emotion,2.0,,,,1628.4527337999316,98,26,female,True
641,109.0,25,M,up,0.526743899914436,0.7126852064059267,,experiment,emotion,2.0,,,,1629.9860110000009,98,26,female,True
642,106.0,25,M,up,0.4999132000375539,0.4584289757915739,,experiment,emotion,2.0,,,,1631.2359421999429,98,26,female,True
643,100.0,25,M,up,0.5309001000132412,1.5685659674892545,,experiment,emotion,2.0,,,,1633.585892599891,98,26,female,True
644,100.0,25,M,up,1.1032954000402242,0.9731413496340128,,experiment,emotion,2.0,,,,1635.3524782999884,98,26,female,True
645,106.0,25,M,up,0.8197122999699786,0.987823732295584,,experiment,emotion,2.0,,,,1637.7190596999135,98,26,female,True
646,109.0,25,F,up,0.8810753000434488,0.5095669961794438,,experiment,emotion,2.0,,,,1639.335658099968,98,26,female,True
647,109.0,25,F,up,0.6068285999353975,0.9197009904293488,,experiment,emotion,2.0,,,,1641.4189390999964,98,26,female,True
648,100.0,25,M,up,0.4386692000553012,1.2502232234455617,,experiment,emotion,2.0,,,,1643.552200899925,98,26,female,True
649,109.0,25,F,up,0.7173720999853685,1.7277984209469943,,experiment,emotion,2.0,,,,1645.985403999919,98,26,female,True
650,103.0,25,F,up,0.6324151000007987,1.052798037504259,,experiment,emotion,2.0,,,,1648.035352399922,98,26,female,True
651,106.0,25,F,up,0.8791536000790074,1.1812860933149818,,experiment,emotion,2.0,,,,1650.1186159999345,98,26,female,True
652,103.0,25,M,up,1.0636361999204382,1.9644449445186225,,experiment,emotion,2.0,,,,1653.235159899923,98,26,female,True
653,100.0,25,F,up,0.5727747000055388,1.766133498778081,,experiment,emotion,2.0,,,,1656.3350142999552,98,26,female,True
654,106.0,25,F,up,1.0648521999828515,1.7729361605119394,,experiment,emotion,2.0,,,,1658.934962799889,98,26,female,True
655,103.0,25,F,up,0.5235458000097424,0.6645948201085365,,experiment,emotion,2.0,,,,1660.9182263999246,98,26,female,True
656,106.0,25,M,up,0.5572870000032708,0.3421689524594357,,experiment,emotion,2.0,,,,1662.0515051999828,98,26,female,True
657,100.0,25,M,up,0.3334779000142589,1.1244693981930762,,experiment,emotion,2.0,,,,1664.001445599948,98,26,female,True
658,109.0,25,F,up,0.5543872000416741,1.0413452653689617,,experiment,emotion,2.0,,,,1665.7513820999302,98,26,female,True
659,106.0,25,M,up,0.5205019999993965,1.8241549880633687,,experiment,emotion,2.0,,,,1668.4012674998958,98,26,female,True
660,109.0,25,F,up,0.5605921000242233,1.4191576914014397,,experiment,emotion,2.0,,,,1670.6012001999188,98,26,female,True
661,100.0,25,M,up,0.4179623000090942,0.4817944062382035,,experiment,emotion,2.0,,,,1671.9177918999922,98,26,female,True
662,103.0,25,M,up,0.5346762000117451,0.5465892124458593,,experiment,emotion,2.0,,,,1673.1510932999663,98,26,female,True
663,0.1109390039111105,25,up,up,0.6756132999435067,1.4381049577902842,,experiment,cRDM,3.0,,,,1679.5841523999115,98,26,female,True
664,0.1109390039111105,25,up,up,0.7233337999787182,1.2520251987019704,,experiment,cRDM,3.0,,,,1681.7674293000018,98,26,female,True
665,0.1109390039111105,25,down,up,0.6757906000129879,0.9277656104350178,,experiment,cRDM,3.0,,,,1683.6839698998956,98,26,female,True
666,0.1109390039111105,25,down,down,0.6481172000057995,0.6199146685243456,,experiment,cRDM,3.0,,,,1685.2506445999024,98,26,female,True
667,0.1109390039111105,25,up,up,0.6595542000140995,1.3104251847577455,,experiment,cRDM,3.0,,,,1687.4672106999203,98,26,female,True
668,0.1109390039111105,25,down,down,0.7865846999920905,0.7283948389444361,,experiment,cRDM,3.0,,,,1689.1171826999637,98,26,female,True
669,0.1109390039111105,25,up,up,0.6143111999845132,0.6322648280552492,,experiment,cRDM,3.0,,,,1690.8004488999725,98,26,female,True
670,0.1109390039111105,25,up,up,0.6514005999779329,0.3745215563982607,,experiment,cRDM,3.0,,,,1692.050405899994,98,26,female,True
671,0.1109390039111105,25,down,down,0.6944141000276431,0.8529970355374503,,experiment,cRDM,3.0,,,,1693.800354899955,98,26,female,True
672,0.1109390039111105,25,down,down,0.6548280999995768,1.5597888774792386,,experiment,cRDM,3.0,,,,1696.3169168999884,98,26,female,True
673,0.1109390039111105,25,down,down,0.9899495999561624,0.4310203862917123,,experiment,cRDM,3.0,,,,1697.6668093999615,98,26,female,True
674,0.1109390039111105,25,down,down,0.7844211000483483,1.9551128156709603,,experiment,cRDM,3.0,,,,1700.8833270999603,98,26,female,True
675,0.1109390039111105,25,down,down,1.3654243999626487,1.400096948865567,,experiment,cRDM,3.0,,,,1703.33333709999,98,26,female,True
676,0.1109390039111105,25,down,down,0.6992163000395522,1.2154162063589478,,experiment,cRDM,3.0,,,,1706.166548499954,98,26,female,True
677,0.1109390039111105,25,up,up,0.5416097999550402,1.604841581723941,,experiment,cRDM,3.0,,,,1708.733133599977,98,26,female,True
678,0.1109390039111105,25,up,up,0.4428338999859988,1.5450373401404147,,experiment,cRDM,3.0,,,,1711.0829559999984,98,26,female,True
679,0.1109390039111105,25,up,up,0.4002315000398084,0.5452937862748204,,experiment,cRDM,3.0,,,,1712.3496629999718,98,26,female,True
680,0.1109390039111105,25,up,up,0.3504639000166207,0.7760608499966231,,experiment,cRDM,3.0,,,,1713.7996322999245,98,26,female,True
681,0.1109390039111105,25,down,up,0.5491745000472292,0.5154769480723641,,experiment,cRDM,3.0,,,,1714.9995767999208,98,26,female,True
682,0.1109390039111105,25,up,up,0.5646216000895947,1.514774726114686,,experiment,cRDM,3.0,,,,1717.3161440999247,98,26,female,True
683,0.1109390039111105,25,up,down,0.6926989000057802,1.2719072052995335,,experiment,cRDM,3.0,,,,1719.416061099968,98,26,female,True
684,0.1109390039111105,25,down,down,0.8442766999360174,1.8060350549345503,,experiment,cRDM,3.0,,,,1722.1824833999854,98,26,female,True
685,0.1109390039111105,25,up,up,0.6225653999717906,1.4696638225027054,,experiment,cRDM,3.0,,,,1724.749190100003,98,26,female,True
686,0.1109390039111105,25,down,down,0.4809674000134691,0.7415067572608048,,experiment,cRDM,3.0,,,,1726.3657915999647,98,26,female,True
687,0.1109390039111105,25,down,down,0.6293520999606699,0.419974269999456,,experiment,cRDM,3.0,,,,1727.5324059999548,98,26,female,True
688,0.1109390039111105,25,up,down,0.5469824000028893,0.5402064889243156,,experiment,cRDM,3.0,,,,1728.9657374999952,98,26,female,True
689,0.1109390039111105,25,up,down,0.6217991999583319,0.7758855359782012,,experiment,cRDM,3.0,,,,1730.5489807999693,98,26,female,True
690,0.1109390039111105,25,down,down,0.972856300068088,1.2100182265162651,,experiment,cRDM,3.0,,,,1732.6489047999494,98,26,female,True
691,0.1109390039111105,25,up,up,0.6190213999943808,1.5196208077407685,,experiment,cRDM,3.0,,,,1735.3987619999098,98,26,female,True
692,0.1109390039111105,25,down,down,0.6366992999101058,1.054067945695184,,experiment,cRDM,3.0,,,,1737.3320570999058,98,26,female,True
693,0.1109390039111105,25,down,down,0.6294180999975652,0.692448100467284,,experiment,cRDM,3.0,,,,1738.9153373999288,98,26,female,True
694,0.1109390039111105,25,down,down,0.7761632000328973,1.1849218391907457,,experiment,cRDM,3.0,,,,1740.9986186999597,98,26,female,True
695,0.1109390039111105,25,up,up,0.7413558999542147,1.0502957531685793,,experiment,cRDM,3.0,,,,1743.098397499998,98,26,female,True
696,0.1109390039111105,25,up,up,1.0673016000073403,0.8413544013633611,,experiment,cRDM,3.0,,,,1744.948453799938,98,26,female,True
697,0.1109390039111105,25,up,up,0.5814519999548793,1.228938532284774,,experiment,cRDM,3.0,,,,1747.4983053999022,98,26,female,True
698,0.1109390039111105,25,down,up,0.7211136999540031,1.2508634549048785,,experiment,cRDM,3.0,,,,1749.581597799901,98,26,female,True
699,0.1109390039111105,25,down,up,0.6102173000108451,0.3597630724697889,,experiment,cRDM,3.0,,,,1750.9315589999314,98,26,female,True
700,0.1109390039111105,25,up,up,0.591611500014551,0.7965819694124292,,experiment,cRDM,3.0,,,,1752.5981584999245,98,26,female,True
701,0.1109390039111105,25,down,down,0.6757171000353992,0.4488680087368348,,experiment,cRDM,3.0,,,,1753.8980375999818,98,26,female,True
702,0.1109390039111105,25,up,up,0.5820466999430209,1.9231506006903127,,experiment,cRDM,3.0,,,,1756.7647054999834,98,26,female,True
703,0.1109390039111105,25,up,up,0.6958644000114873,1.9252081012659583,,experiment,cRDM,3.0,,,,1759.5479046999244,98,26,female,True
704,0.1109390039111105,25,up,up,0.4168090999592095,1.1760712504369015,,experiment,cRDM,3.0,,,,1761.6811733999057,98,26,female,True
705,0.1109390039111105,25,down,down,0.6987396000185981,0.3093918559760847,,experiment,cRDM,3.0,,,,1762.6810060999123,98,26,female,True
706,0.1109390039111105,25,down,down,0.663392600021325,1.7792969225844968,,experiment,cRDM,3.0,,,,1765.4143734999234,98,26,female,True
707,0.1109390039111105,25,up,up,0.6491053000790998,1.456518799263271,,experiment,cRDM,3.0,,,,1767.797630099929,98,26,female,True
708,0.1109390039111105,25,down,down,1.2575255000265315,1.004591320221029,,experiment,cRDM,3.0,,,,1769.714218799956,98,26,female,True
709,0.1109390039111105,25,down,up,0.7856755999382585,1.6488372205536177,,experiment,cRDM,3.0,,,,1772.8640706998997,98,26,female,True
710,0.1109390039111105,25,up,up,0.8514162000501528,1.481104887315007,,experiment,cRDM,3.0,,,,1775.397362699965,98,26,female,True
711,0.1109390039111105,25,up,up,0.7421624000417069,0.314027720198521,,experiment,cRDM,3.0,,,,1776.8305950999493,98,26,female,True
712,0.1109390039111105,25,down,down,0.6855380000779405,1.1068419376262058,,experiment,cRDM,3.0,,,,1778.9472146999324,98,26,female,True
713,0.1109390039111105,25,up,up,0.6983708000043407,0.990161571086291,,experiment,cRDM,3.0,,,,1780.8804036999354,98,26,female,True
714,0.1109390039111105,25,down,down,0.7103843999793753,1.9732778750652409,,experiment,cRDM,3.0,,,,1783.8303673999617,98,26,female,True
715,0.1109390039111105,25,down,up,0.8201410999754444,1.4054028525655498,,experiment,cRDM,3.0,,,,1786.2135917999549,98,26,female,True
716,0.1109390039111105,25,down,down,0.6698963000671938,0.8066886662150001,,experiment,cRDM,3.0,,,,1788.0968909999356,98,26,female,True
717,0.1109390039111105,25,up,down,1.3529795999638736,1.6677660788581592,,experiment,cRDM,3.0,,,,1790.6967906999637,98,26,female,True
718,0.1109390039111105,25,up,up,0.7778953000670299,1.4568245811223914,,experiment,cRDM,3.0,,,,1793.7798631999176,98,26,female,True
719,0.1109390039111105,25,down,up,0.8661819000262767,1.9786829245190625,,experiment,cRDM,3.0,,,,1796.7965804999694,98,26,female,True
720,0.1109390039111105,25,down,down,0.753965700045228,1.30725707307148,,experiment,cRDM,3.0,,,,1799.229785899981,98,26,female,True
721,0.1109390039111105,25,up,up,0.6613680999726057,0.9479102696965912,,experiment,cRDM,3.0,,,,1801.1963999998989,98,26,female,True
722,0.1109390039111105,25,up,up,0.6147309999214485,0.6940777879186552,,experiment,cRDM,3.0,,,,1802.813034199993,98,26,female,True
723,0.1109390039111105,25,up,up,0.6684662000043318,1.1062720979402052,,experiment,cRDM,3.0,,,,1804.7962885999584,98,26,female,True
724,0.1109390039111105,25,up,up,0.4168574999785051,1.14170048320775,,experiment,cRDM,3.0,,,,1806.8628242999548,98,26,female,True
725,0.1109390039111105,25,up,down,0.5249913999577984,1.7224112950448212,,experiment,cRDM,3.0,,,,1809.2627491999883,98,26,female,True
726,0.1109390039111105,25,down,down,0.4848099999362603,1.9398781661484856,,experiment,cRDM,3.0,,,,1811.9960077999856,98,26,female,True
727,0.1109390039111105,25,down,down,0.6401891000568867,1.365365214607218,,experiment,cRDM,3.0,,,,1814.1125943999505,98,26,female,True
728,0.1109390039111105,25,up,up,0.7026886999374256,1.813853702164691,,experiment,cRDM,3.0,,,,1816.8291372999083,98,26,female,True
729,0.1109390039111105,25,down,down,0.6193518999498338,0.7471919069645556,,experiment,cRDM,3.0,,,,1818.5623959999064,98,26,female,True
730,0.1109390039111105,25,down,up,1.166213000076823,1.5614395223199753,,experiment,cRDM,3.0,,,,1820.995524799917,98,26,female,True
731,0.1109390039111105,25,down,down,1.0098864000756294,1.072460755770901,,experiment,cRDM,3.0,,,,1823.478876399924,98,26,female,True
