,stimLvl,stimTime,rand,response,rt,precedingITI,trialNumber,trialType,stimuli,block,estIntens,estThres,estSlope,trialStart,subject,age,gender,headRest
0,0.9,100,down,down,1.7134814000000915,0.9571399066466412,,introTrial,cRDM,,,,,439.35486240000046,1012,23,male,True
1,150.0,100,F,up,2.118269799999325,1.034003435067347,,introTrial,emotion,,,,,442.38805779999984,1012,23,male,True
2,200.0,25,M,up,0.8621517999999924,1.9621575731858572,,tutorial,emotion,,,,,492.63620189999983,1012,23,male,True
3,200.0,25,F,up,0.682244499999797,1.723597186963661,,tutorial,emotion,,,,,495.48611790000086,1012,23,male,True
4,200.0,25,F,up,0.4277617999996437,0.8777033802125911,,tutorial,emotion,,,,,497.35259339999993,1012,23,male,True
5,0.0,25,M,down,0.568075699999099,1.545480775131331,,tutorial,emotion,,,,,499.619282300001,1012,23,male,True
6,0.0,25,F,down,0.501516400001492,1.667617897308085,,tutorial,emotion,,,,,502.1358408999995,1012,23,male,True
7,200.0,25,M,up,0.4535482000010233,0.5710663898618653,,tutorial,emotion,,,,,503.485840100001,1012,23,male,True
8,0.0,25,M,down,0.5122247999988758,1.3978357804149109,,tutorial,emotion,,,,,505.61908330000097,1012,23,male,True
9,200.0,25,M,up,0.4167785999998159,0.9583698587459366,,tutorial,emotion,,,,,507.3690051000003,1012,23,male,True
10,0.0,25,F,down,0.5050394999998389,0.8235762860416922,,tutorial,emotion,,,,,508.9022974999998,1012,23,male,True
11,0.0,25,F,down,0.6788188000009541,0.6405781222943292,,tutorial,emotion,,,,,510.3355352999997,1012,23,male,True
12,0.9,25,up,up,0.6614332999997714,0.4321092290147924,,tutorial,cRDM,,,,,518.1019454000007,1012,23,male,True
13,0.9,25,up,up,0.4168090000002848,1.2274592687239372,,tutorial,cRDM,,,,,520.2685515000003,1012,23,male,True
14,0.9,25,down,down,0.4352082999994309,1.7295757123240236,,tutorial,cRDM,,,,,522.6851479999996,1012,23,male,True
15,0.9,25,down,down,0.3004800999988219,1.519312544583582,,tutorial,cRDM,,,,,524.9183564999994,1012,23,male,True
16,0.9,25,up,up,0.4633338999992702,0.9164818249244662,,tutorial,cRDM,,,,,526.5349687999997,1012,23,male,True
17,0.9,25,down,down,0.4911326000001281,1.463981229405861,,tutorial,cRDM,,,,,528.7182278999999,1012,23,male,True
18,0.9,25,up,up,0.3504825999989407,1.4306607354396563,,tutorial,cRDM,,,,,530.9181601999999,1012,23,male,True
19,0.9,25,up,up,0.4660316999998031,0.5368982056847205,,tutorial,cRDM,,,,,532.1513096999997,1012,23,male,True
20,0.9,25,down,down,0.5240220000014233,1.0447718350789674,,tutorial,cRDM,,,,,533.9513828000008,1012,23,male,True
21,0.9,25,down,down,0.3671274000007543,1.0866158183758243,,tutorial,cRDM,,,,,535.8346529,1012,23,male,True
22,100.0,25,M,up,0.6218742999990354,1.14124726519646,,psi_staircase_training,emotion,,100.0,100.0,25.00050000000001,549.1174815999993,1012,23,male,True
23,55.0,25,M,up,0.4472881999990932,1.339145041833312,,psi_staircase_training,emotion,,54.7428094675419,54.7428094675419,25.00050000000011,551.4340485000002,1012,23,male,True
24,32.0,25,F,down,0.4490987000008317,1.7188433462991,,psi_staircase_training,emotion,,31.96124636773396,31.96124636773396,24.34819504815393,553.9673100999998,1012,23,male,True
25,45.0,25,F,down,0.4371269000002939,1.1910624113903336,,psi_staircase_training,emotion,,44.995563347624845,44.995563347624845,25.558429500417464,555.9672345999998,1012,23,male,True
26,61.0,25,M,down,0.4001525000003312,0.3630152673264151,,psi_staircase_training,emotion,,56.13206424444672,56.13206424444672,26.188292731612368,557.1338511999993,1012,23,male,True
27,78.0,25,F,down,0.316559299999426,0.7513897754285015,,psi_staircase_training,emotion,,69.11769977000444,69.11769977000444,30.625430602924865,558.6507255999995,1012,23,male,True
28,91.0,25,M,down,0.3335773999988305,1.090297485601984,,psi_staircase_training,emotion,,82.53808296879409,82.53808296879409,33.58127212713992,560.5337035000002,1012,23,male,True
29,109.0,25,F,down,0.3668428000000858,0.4620461491193461,,psi_staircase_training,emotion,,95.08638182775267,95.08638182775267,35.49151417204479,561.7670000000007,1012,23,male,True
30,125.0,25,F,up,0.8037287000006472,0.7996269665148683,,psi_staircase_training,emotion,,109.01459055284391,109.01459055284391,38.00305646399838,563.3335926999998,1012,23,male,True
31,113.0,25,M,up,0.949917899999491,1.5591363295023046,,psi_staircase_training,emotion,,100.92995199391086,100.92995199391086,37.38948589772304,566.0504456999997,1012,23,male,True
32,90.0,25,F,up,0.6119154000007256,0.8261600202069397,,psi_staircase_training,emotion,,95.08229182496656,95.08229182496656,36.68443429652132,568.1834561000005,1012,23,male,True
33,82.0,25,F,up,0.3168213999997533,1.3160230161283222,,psi_staircase_training,emotion,,88.29487237556808,88.29487237556808,37.20598652391846,570.4666877999998,1012,23,male,True
34,69.0,25,F,down,0.6607424999983778,0.7912680393843553,,psi_staircase_training,emotion,,82.39231143804122,82.39231143804122,37.61417434042656,572.0166276000009,1012,23,male,True
35,105.0,25,M,up,1.7154726999997365,0.5127526886764039,,psi_staircase_training,emotion,,85.87000240777162,85.87000240777162,37.09330934249753,573.5498632999997,1012,23,male,True
36,63.0,25,M,down,0.6625825999999506,1.966109107971416,,psi_staircase_training,emotion,,83.11286825405001,83.11286825405001,36.42544853392023,577.5997510999996,1012,23,male,True
37,109.0,25,F,down,1.0103158000001713,1.4540111356128842,,psi_staircase_training,emotion,,85.54524149657432,85.54524149657432,35.7219850067567,580.0830040999999,1012,23,male,True
38,115.0,25,F,up,0.6734376999993401,0.3334962679732556,,psi_staircase_training,emotion,,91.27395522239902,91.27395522239902,37.91111069747235,581.7829331000003,1012,23,male,True
39,114.0,25,M,up,0.7728779999997641,1.807728114408479,,psi_staircase_training,emotion,,89.20216822951957,89.20216822951957,37.26621350612498,584.5994996,1012,23,male,True
40,64.0,25,M,down,0.5806482000007236,1.820836263310088,,psi_staircase_training,emotion,,87.39655338863155,87.39655338863155,36.64692010830566,587.5827292999993,1012,23,male,True
41,65.0,25,M,,,1.3757190019632413,,psi_staircase_training,emotion,,89.16924276115391,89.16924276115391,35.96400829485588,589.9159829999999,1012,23,male,True
42,65.0,25,F,down,1.1395159999992757,1.3757190019632413,,psi_staircase_training,emotion,,89.16924276115391,89.16924276115391,35.96400829485588,593.9658614999998,1012,23,male,True
43,119.0,25,M,up,0.7386538999999175,1.6850897184938711,,psi_staircase_training,emotion,,90.74200319250284,90.74200319250284,35.295379352070434,597.1657062000004,1012,23,male,True
44,64.0,25,F,down,0.8210927000000083,0.8719096103605124,,psi_staircase_training,emotion,,89.40573308883988,89.40573308883988,34.5392782595119,599.1322788000007,1012,23,male,True
45,119.0,25,F,up,0.5415008999989368,1.2275242602525338,,psi_staircase_training,emotion,,90.71933083737308,90.71933083737308,33.806118779827585,601.4988755999993,1012,23,male,True
46,64.0,25,F,down,0.5582873000003019,1.8747445111654528,,psi_staircase_training,emotion,,89.57604475521532,89.57604475521532,33.01036526830577,604.2320886000007,1012,23,male,True
47,119.0,25,M,up,0.467750600000727,1.1169071830195083,,psi_staircase_training,emotion,,90.71136600530345,90.71136600530345,32.22851455793476,606.2486257999999,1012,23,male,True
48,64.0,25,M,down,0.6284087000003638,1.5288740853472222,,psi_staircase_training,emotion,,89.73555873611309,89.73555873611309,31.41005390593365,608.5819471999994,1012,23,male,True
49,119.0,25,F,up,0.823474000000715,1.1869384562862628,,psi_staircase_training,emotion,,90.71922636782368,90.71922636782368,30.59805840740902,610.7318569000008,1012,23,male,True
50,65.0,25,F,down,0.6292643999986467,1.3163714030632268,,psi_staircase_training,emotion,,89.88914752789243,89.88914752789243,29.77763193693909,613.2151199000009,1012,23,male,True
51,119.0,25,M,up,1.4126463000011429,0.6852218837708212,,psi_staircase_training,emotion,,90.7765438148364,90.7765438148364,28.950755205572005,614.8817239000009,1012,23,male,True
52,66.0,25,M,up,0.9200419999997392,0.7965941192949096,,psi_staircase_training,emotion,,90.0726009424352,90.0726009424352,28.148792886430183,617.4483150999995,1012,23,male,True
53,0.29,25,up,up,0.7093578999993042,1.012196252534669,,psi_staircase_training,cRDM,,0.25,0.2569312402994632,0.105,624.8980161999998,1012,23,male,True
54,0.25,25,up,up,1.3196962999991229,1.5389704159640978,,psi_staircase_training,cRDM,,0.2191026665318312,0.2260132002683492,0.1046863203387393,627.4146021999995,1012,23,male,True
55,0.21,25,down,down,0.5751592999986315,0.4317172227330926,,psi_staircase_training,cRDM,,0.1900540959403307,0.1968497961554001,0.1029467298424999,629.4311776000004,1012,23,male,True
56,0.18,25,down,up,0.6592971000009129,1.7523237493991926,,psi_staircase_training,cRDM,,0.1635257589279754,0.1701521334256793,0.1003816477568649,632.0310765999993,1012,23,male,True
57,0.28,25,up,up,0.4002725999998802,1.5249864861124982,,psi_staircase_training,cRDM,,0.2462894156509761,0.253676874431043,0.111911164292932,634.4810289999996,1012,23,male,True
58,0.26,25,down,down,0.940452599999844,1.0436570924605924,,psi_staircase_training,cRDM,,0.224020924517144,0.2312720210897802,0.1098454399547734,636.2309226999996,1012,23,male,True
59,0.23,25,up,down,0.8909311999996135,0.302952906261442,,psi_staircase_training,cRDM,,0.2047781477371871,0.211824604656558,0.106745393979666,637.7474334999997,1012,23,male,True
60,0.3,25,up,up,0.745960099999138,1.1442462982606103,,psi_staircase_training,cRDM,,0.2697103339394855,0.2773111054220624,0.1151425965901608,640.047396500001,1012,23,male,True
61,0.29,25,down,down,0.666979600000559,1.6921612968215332,,psi_staircase_training,cRDM,,0.2518160190604297,0.259235199658211,0.1123917118884712,642.7473940000009,1012,23,male,True
62,0.28,25,down,up,0.6580798999984836,0.8006030553422514,,psi_staircase_training,cRDM,,0.2368500550086563,0.2440023994648623,0.108349463509407,644.4973020000007,1012,23,male,True
63,0.34,25,down,down,0.7205737999993289,0.9353442999210306,,psi_staircase_training,cRDM,,0.2957213019363723,0.3043358762787756,0.1305004972951791,646.3637862000005,1012,23,male,True
64,0.32,25,down,up,0.6672429999998712,1.479832286689961,,psi_staircase_training,cRDM,,0.2798594774909572,0.2884399279100678,0.1299835606733151,648.8471354000003,1012,23,male,True
65,0.39,25,down,down,0.7569793000002392,0.3524613524163269,,psi_staircase_training,cRDM,,0.3355526745990405,0.3445572156705563,0.1364080267975103,650.1303644999998,1012,23,male,True
66,0.37,25,down,down,0.5290019999993092,0.7240540740389638,,psi_staircase_training,cRDM,,0.3222011888138502,0.3312714276588904,0.1374032694845357,651.8803572999996,1012,23,male,True
67,0.37,25,up,up,0.5291276999996626,0.9394973965141268,,psi_staircase_training,cRDM,,0.3093128496703456,0.3184041284343878,0.1377219990913243,653.6302112000003,1012,23,male,True
68,0.36,25,up,up,0.5048439999991388,1.9463860012377432,,psi_staircase_training,cRDM,,0.2979681785061862,0.3069956818221973,0.1367558773362048,656.3635156999999,1012,23,male,True
69,0.31,25,up,up,0.5242071000011492,1.5443756192244953,,psi_staircase_training,cRDM,,0.2875348034675375,0.2964720986106196,0.1353893314153731,658.6801280000009,1012,23,male,True
70,0.31,25,up,up,0.3671857999997883,1.132367856022672,,psi_staircase_training,cRDM,,0.2747996903653172,0.2839451257710337,0.1385424074353028,660.5967019000009,1012,23,male,True
71,0.31,25,down,up,0.2839543999998568,0.8645971132242614,,psi_staircase_training,cRDM,,0.2630804497166492,0.2723317545720339,0.140146202966102,662.1632163999993,1012,23,male,True
72,0.37,25,up,up,1.0503984000006312,0.9209138719732604,,psi_staircase_training,cRDM,,0.3026776826191861,0.3118406933958932,0.138808653283707,663.7799674000007,1012,23,male,True
73,0.31,25,up,up,0.5533012999985658,1.631442291179274,,psi_staircase_training,cRDM,,0.2947211691648995,0.303724986320777,0.1363970603414721,666.7300798999995,1012,23,male,True
74,0.31,25,down,down,0.4656102999997529,0.7673993986607102,,psi_staircase_training,cRDM,,0.283761006881721,0.293059181995236,0.1408562313147163,668.3297193999997,1012,23,male,True
75,0.31,25,up,up,0.3338151999996626,1.5109485772829203,,psi_staircase_training,cRDM,,0.2734011878451722,0.2829003980786552,0.1439016729217932,670.579679200001,1012,23,male,True
76,0.3,25,down,down,0.541418300001169,0.883547471411869,,psi_staircase_training,cRDM,,0.2637937174019618,0.273417531832727,0.1457892774700939,672.162969,1012,23,male,True
77,0.3,25,down,up,0.350539299999582,0.6737051883669445,,psi_staircase_training,cRDM,,0.2545530530284454,0.264284185917938,0.1474150237549612,673.6461767999999,1012,23,male,True
78,0.34,25,up,up,0.4278572000002896,1.9399592261272736,,psi_staircase_training,cRDM,,0.2856055299906391,0.2951348673264635,0.1443580624868899,676.2794848999993,1012,23,male,True
79,0.3,25,up,up,0.5312895000006392,1.6151250156520254,,psi_staircase_training,cRDM,,0.2784261105148561,0.2878946899888833,0.1434376535538451,678.5960526999997,1012,23,male,True
80,0.29,25,down,down,0.4536798000008275,1.567872234237142,,psi_staircase_training,cRDM,,0.2697966050575657,0.2794565811676375,0.1463370836581857,680.9626625999999,1012,23,male,True
81,0.29,25,up,up,0.3838470999999117,1.1319374315297277,,psi_staircase_training,cRDM,,0.2613833452951549,0.2712142668983619,0.1489267034092971,682.8292358999997,1012,23,male,True
82,0.29,25,down,down,0.3005273999988276,1.3273423428396902,,psi_staircase_training,cRDM,,0.2534660326296999,0.2634159598161907,0.1507294956520887,684.8624800999996,1012,23,male,True
83,100.0,25,M,down,1.0967123999998876,0.7173152693295222,,psi_staircase,emotion,,100.0,100.0,25.00050000000001,698.5286327999993,1012,23,male,True
84,145.0,25,M,up,0.5604583000003913,1.7376570940911824,,psi_staircase,emotion,,145.25719053245996,145.25719053245996,25.00050000000028,701.7118842999998,1012,23,male,True
85,121.0,25,F,up,0.5980036000000837,0.7211735106987784,,psi_staircase,emotion,,120.36392901436103,120.36392901436103,25.71326925488699,703.3453844000005,1012,23,male,True
86,97.0,25,F,up,0.9132547000008344,0.4009544248525771,,psi_staircase,emotion,,102.3887610608496,102.3887610608496,26.14633372628729,704.6951056000007,1012,23,male,True
87,73.0,25,M,down,0.5401134999992792,1.5682750987648446,,psi_staircase,emotion,,82.84358992132628,82.84358992132628,31.43229144782805,707.5283126999993,1012,23,male,True
88,84.0,25,F,down,0.6332327000000078,1.799447262212165,,psi_staircase,emotion,,94.9613577591715,94.9613577591715,29.694064005486624,710.2451369,1012,23,male,True
89,112.0,25,M,up,0.6385635000006005,0.9563737798987106,,psi_staircase,emotion,,101.8384874441451,101.8384874441451,27.87588470540148,712.1948170000005,1012,23,male,True
90,84.0,25,F,down,0.7157033000003139,1.1715465519150343,,psi_staircase,emotion,,96.52149301196152,96.52149301196152,26.167505567849595,714.344657300001,1012,23,male,True
91,112.0,25,F,up,0.8693944999995438,1.3009874750519397,,psi_staircase,emotion,,100.4399405768832,100.4399405768832,24.06105184598652,716.6779854999995,1012,23,male,True
92,86.0,25,M,down,0.6197778999994625,0.6489420828721063,,psi_staircase,emotion,,97.27117883264344,97.27117883264344,21.995508974138588,718.5445881999995,1012,23,male,True
93,109.0,25,F,up,0.6171914999995352,0.4926158470933222,,psi_staircase,emotion,,99.8380683730314,99.8380683730314,19.86449481087272,720.0111800000004,1012,23,male,True
94,89.0,25,F,up,0.4168131000005814,0.9058664470543084,,psi_staircase,emotion,,97.57882283297954,97.57882283297954,17.856501798714334,721.8944569000005,1012,23,male,True
95,76.0,25,F,up,0.3334632000005513,1.1277954532994732,,psi_staircase,emotion,,92.69357162067158,92.69357162067158,22.871454661283487,723.8110561000003,1012,23,male,True
96,65.0,25,M,down,0.7397435999992013,1.5929760197647915,,psi_staircase,emotion,,86.49013911002517,86.49013911002517,30.19744103330921,726.1776067000001,1012,23,male,True
97,67.0,25,M,down,0.6297928999993019,1.6071549338612705,,psi_staircase,emotion,,88.61836653694317,88.61836653694317,28.603037454710616,728.8775398999996,1012,23,male,True
98,68.0,25,F,down,0.4002063999996608,0.8207789141994779,,psi_staircase,emotion,,90.29552898081708,90.29552898081708,27.126245450422992,730.6774656999996,1012,23,male,True
99,112.0,25,F,down,0.2668469000000186,1.682954806596736,,psi_staircase,emotion,,91.59773030365864,91.59773030365864,25.777412111871296,733.1273625999993,1012,23,male,True
100,122.0,25,M,down,0.4167907000010018,0.7925891644764407,,psi_staircase,emotion,,96.41281968103677,96.41281968103677,31.0162788769576,734.677314900001,1012,23,male,True
101,128.0,25,M,up,0.5093631999989157,0.7863559791541408,,psi_staircase,emotion,,101.59537178528726,101.59537178528726,35.292176195766984,736.2439750000003,1012,23,male,True
102,128.0,25,M,up,0.3835056000007171,0.940487082937434,,psi_staircase,emotion,,100.05021353857762,100.05021353857762,34.42277016361103,738.0271863000007,1012,23,male,True
103,127.0,25,M,up,0.3836248999996314,0.6401311655390074,,psi_staircase,emotion,,98.74839121487602,98.74839121487602,33.58701254339579,739.4271280000003,1012,23,male,True
104,69.0,25,F,down,0.5879315000001952,1.117995480713292,,psi_staircase,emotion,,97.60970314999568,97.60970314999568,32.77968957542029,741.3103954000007,1012,23,male,True
105,127.0,25,F,up,0.634077000000616,1.645994995909449,,psi_staircase,emotion,,98.6844159922484,98.6844159922484,31.924411697564544,743.8603114000007,1012,23,male,True
106,70.0,25,F,down,0.6605342000002565,0.6728203405972866,,psi_staircase,emotion,,97.72029677253144,97.72029677253144,31.092530379050874,745.5438459999996,1012,23,male,True
107,127.0,25,M,up,0.333500599999752,1.6382945345061397,,psi_staircase,emotion,,98.66203223866974,98.66203223866974,30.22035012563528,748.1768297000008,1012,23,male,True
108,70.0,25,M,up,0.7499491999988095,0.8573152623642428,,psi_staircase,emotion,,97.8455746716668,97.8455746716668,29.388188154429493,749.7934307999994,1012,23,male,True
109,64.0,25,F,up,0.5703389000009338,1.8568357475550767,,psi_staircase,emotion,,94.12645751481176,94.12645751481176,33.37855482461802,752.7600049000002,1012,23,male,True
110,59.0,25,F,up,0.3167293999995308,0.428929475309577,,psi_staircase,emotion,,90.33599614584064,90.33599614584064,36.586260327665975,754.1266108000009,1012,23,male,True
111,57.0,25,M,down,0.4898059000006469,0.96341824736281,,psi_staircase,emotion,,86.54102720457985,86.54102720457985,39.03339027487237,755.8765391999996,1012,23,male,True
112,57.0,25,M,down,0.2668555999989621,1.315045634844831,,psi_staircase,emotion,,87.63048041982141,87.63048041982141,38.52281510962661,758.0264448999997,1012,23,male,True
113,57.0,25,F,down,0.3669006000000081,1.6525133639564271,,psi_staircase,emotion,,88.61321454147753,88.61321454147753,38.018514806813634,760.4429554999997,1012,23,male,True
114,121.0,25,M,up,0.7400684999993246,1.6485696532031109,,psi_staircase,emotion,,89.50164305405579,89.50164305405579,37.52137980307474,762.8763174999995,1012,23,male,True
115,56.0,25,F,down,1.0024941000010583,1.5267254570832465,,psi_staircase,emotion,,88.66924492648938,88.66924492648938,37.0294657480118,765.4928886999996,1012,23,male,True
116,122.0,25,M,up,0.668689699999959,1.192418129287556,,psi_staircase,emotion,,89.44986449939853,89.44986449939853,36.50932589760724,768.0426484999998,1012,23,male,True
117,56.0,25,F,down,0.4001805000007152,1.7229565229090145,,psi_staircase,emotion,,88.71805544405939,88.71805544405939,35.99482450673182,770.7593301000006,1012,23,male,True
118,122.0,25,M,up,0.5095254999996541,0.4372291880302029,,psi_staircase,emotion,,89.42410712405137,89.42410712405137,35.45562635376577,771.9428072000001,1012,23,male,True
119,55.0,25,F,down,0.7428619999991497,1.933601314113332,,psi_staircase,emotion,,88.76029644627475,88.76029644627475,34.922856561876905,774.7425267999997,1012,23,male,True
120,122.0,25,M,up,0.8769103999984509,1.1609044327295135,,psi_staircase,emotion,,89.377464760641,89.377464760641,34.377645278598656,776.9924335999995,1012,23,male,True
121,56.0,25,M,down,0.6613240999995469,0.3504279328330013,,psi_staircase,emotion,,88.775600329286,88.775600329286,33.83516560311772,778.5590590000002,1012,23,male,True
122,122.0,25,F,up,0.5490878000000521,1.4432713385387514,,psi_staircase,emotion,,89.35219501685822,89.35219501685822,33.28164639034084,780.992287600001,1012,23,male,True
123,56.0,25,F,down,0.6754830000008951,1.280314372424039,,psi_staircase,emotion,,88.80631978414878,88.80631978414878,32.737595193078846,783.1588949000006,1012,23,male,True
124,121.0,25,F,up,0.7532326000000467,1.1538364824704004,,psi_staircase,emotion,,89.32629425407295,89.32629425407295,32.18992137246562,785.3421437000006,1012,23,male,True
125,56.0,25,M,up,0.8459944000005635,1.4944972352269112,,psi_staircase,emotion,,88.81212916974916,88.81212916974916,31.646777508092,787.9253455999997,1012,23,male,True
126,52.0,25,M,down,0.4607469999991735,1.4383872415684351,,psi_staircase,emotion,,86.29430403549705,86.29430403549705,34.51426524260995,790.5586240000002,1012,23,male,True
127,120.0,25,F,up,1.026939900000798,1.5297873790660677,,psi_staircase,emotion,,86.80518688666076,86.80518688666076,34.01275033901233,792.9254484000003,1012,23,male,True
128,52.0,25,F,down,1.1199460999996518,0.7628316754938154,,psi_staircase,emotion,,86.31177419196644,86.31177419196644,33.52378070326317,795.0584506000005,1012,23,male,True
129,120.0,25,F,up,0.773973900000783,0.4443502168396467,,psi_staircase,emotion,,86.77759892044472,86.77759892044472,33.0268061830461,796.958368300001,1012,23,male,True
130,53.0,25,M,down,0.8361229999991338,1.5599925868170474,,psi_staircase,emotion,,86.32456823901231,86.32456823901231,32.54185870209306,799.6582671999995,1012,23,male,True
131,119.0,25,M,up,0.63684049999938,1.2923104176766549,,psi_staircase,emotion,,86.76508326590681,86.76508326590681,32.049771389438554,802.1415153999997,1012,23,male,True
132,53.0,25,M,down,1.2573107999996864,1.5544679103323775,,psi_staircase,emotion,,86.33235152834027,86.33235152834027,31.56915266719657,804.6580798000005,1012,23,male,True
133,0.29,25,up,up,0.5195407999999588,0.8158054005008701,,psi_staircase,cRDM,,0.25,0.2569312402994632,0.105,812.507802000001,1012,23,male,True
134,0.25,25,up,up,0.700003399999332,1.6887737266470066,,psi_staircase,cRDM,,0.2191026665318312,0.2260132002683492,0.1046863203387393,814.9743726000006,1012,23,male,True
135,0.21,25,down,down,0.4732433999997738,1.9823590193088505,,psi_staircase,cRDM,,0.1900540959403307,0.1968497961554001,0.1029467298424999,817.924107400001,1012,23,male,True
136,0.18,25,down,down,1.1221841999995377,1.1683828835244854,,psi_staircase,cRDM,,0.1635257589279754,0.1701521334256793,0.1003816477568649,819.8241506999993,1012,23,male,True
137,0.15,25,up,up,1.1535400000011578,0.6690780633207606,,psi_staircase,cRDM,,0.1401895574244936,0.1466013351187503,0.0971307628663642,821.8908077000006,1012,23,male,True
138,0.13,25,down,up,0.9612895000009304,0.322452384217508,,psi_staircase,cRDM,,0.1198760602145479,0.1260554767618333,0.0936107694196103,823.6240611999992,1012,23,male,True
139,0.21,25,up,up,0.6016854000008607,1.2804550699689337,,psi_staircase,cRDM,,0.1822197442013377,0.1893568545454257,0.1081186849325176,826.1406701999995,1012,23,male,True
140,0.19,25,down,down,0.4931593999990582,1.2587186146234672,,psi_staircase,cRDM,,0.1634673296955829,0.1703561363143587,0.104357180493002,828.2572482999994,1012,23,male,True
141,0.17,25,down,down,1.0398571000005177,1.6762987229905313,,psi_staircase,cRDM,,0.1479762083426976,0.1545956479102528,0.1002765918600629,830.6904781000003,1012,23,male,True
142,0.17,25,up,up,0.6356381000005058,0.9783373233582142,,psi_staircase,cRDM,,0.1348349262576729,0.1412448926894564,0.0971033244063676,832.9737133999997,1012,23,male,True
143,0.16,25,down,down,0.3337714000008418,1.3833234908753138,,psi_staircase,cRDM,,0.1246121593026518,0.1307466236824964,0.0929297978506899,835.2570136999993,1012,23,male,True
144,0.12,25,down,down,0.8117540000002919,0.5283256878847092,,psi_staircase,cRDM,,0.1159697170049275,0.1218844275389857,0.089600789937149,836.4735852999993,1012,23,male,True
145,0.12,25,down,up,0.8378837999989628,1.7680420379021975,,psi_staircase,cRDM,,0.1042360684936727,0.110591377415237,0.0962753285030272,839.3234700000003,1012,23,male,True
146,0.17,25,up,up,0.589984899999763,1.3034084349077213,,psi_staircase,cRDM,,0.1348399227632759,0.140428539999793,0.0846608665233739,841.7233709000002,1012,23,male,True
147,0.16,25,up,down,1.4384470000004512,1.165637179792344,,psi_staircase,cRDM,,0.12896155801292,0.1341772054740657,0.0790108205399696,843.7399188999998,1012,23,male,True
148,0.19,25,down,down,0.801144099999874,1.1416649741536005,,psi_staircase,cRDM,,0.1554397907295362,0.1621773862988174,0.1020665139584473,846.5732132000003,1012,23,male,True
149,0.19,25,down,down,0.5182111999984045,1.282635956174057,,psi_staircase,cRDM,,0.1474315881672405,0.1537673152660424,0.095978687310222,848.9231088999995,1012,23,male,True
150,0.19,25,up,up,0.4722574999996141,0.768475848408879,,psi_staircase,cRDM,,0.1416715246893081,0.1475925287687554,0.0896961296220107,850.4730637000002,1012,23,male,True
151,0.15,25,up,up,0.5809922000007646,1.5978321481533797,,psi_staircase,cRDM,,0.1376972130967367,0.1432080864885564,0.0834831402665225,852.806344900001,1012,23,male,True
152,0.14,25,up,down,0.6417816000011953,1.436871380183041,,psi_staircase,cRDM,,0.1300327077708294,0.1359019616104535,0.0889121753877512,855.0895702999997,1012,23,male,True
153,0.19,25,up,up,0.5538587999999436,1.085765496273548,,psi_staircase,cRDM,,0.1497960217081651,0.1544142537417416,0.069960691387814,857.0894913000002,1012,23,male,True
154,0.18,25,down,up,0.8376645999996981,0.6384018389052877,,psi_staircase,cRDM,,0.1471319501978717,0.1513236859878451,0.0634997834343285,858.5396919999994,1012,23,male,True
155,0.2,25,down,up,0.5397310999996989,1.2884058465709949,,psi_staircase,cRDM,,0.1631153710942557,0.1701153160625164,0.1060407935538291,860.9226707000007,1012,23,male,True
156,0.25,25,down,down,0.8747103999994579,0.4846257013445735,,psi_staircase,cRDM,,0.1943576614644749,0.203631152149063,0.1404822917418048,862.2226426000007,1012,23,male,True
157,0.23,25,up,up,0.7654581000006146,1.3506663546510274,,psi_staircase,cRDM,,0.1840205801980379,0.1931231165241016,0.1378925376906498,864.7058893999993,1012,23,male,True
158,0.22,25,up,up,0.8198939000012615,0.6956682482970489,,psi_staircase,cRDM,,0.1750642072982317,0.1839724313841052,0.1349489396708923,866.4224561000001,1012,23,male,True
159,0.22,25,down,up,0.4002882999993744,1.3587867227998256,,psi_staircase,cRDM,,0.1674251219888093,0.1761172751641867,0.1316757238217963,868.8557855999998,1012,23,male,True
160,0.29,25,down,down,0.7532547999999224,0.5061201384261346,,psi_staircase,cRDM,,0.1970354599474122,0.2068849852799449,0.149208527656445,870.0390782999993,1012,23,male,True
161,0.27,25,up,up,0.3671739999990677,0.864201269799622,,psi_staircase,cRDM,,0.1890371636551581,0.1987552490685972,0.1472173700989873,871.9056152000003,1012,23,male,True
162,0.26,25,up,up,0.8997773000010056,0.6285666953140046,,psi_staircase,cRDM,,0.181898689701395,0.1914765103749648,0.1450925270622495,873.2055730000002,1012,23,male,True
163,0.21,25,down,down,0.4181914000000688,0.8849482702996729,,psi_staircase,cRDM,,0.1756405770545049,0.1850718622574416,0.1428726899549338,875.2721695000009,1012,23,male,True
164,0.21,25,up,up,0.2505139999993844,0.8179583225258191,,psi_staircase,cRDM,,0.1685855878089684,0.1780080157552707,0.1427385131111903,876.7721174999997,1012,23,male,True
165,0.21,25,down,down,0.2504965999996784,1.7185507330060454,,psi_staircase,cRDM,,0.1623122059172677,0.1716887438602504,0.1420433344504624,879.1720142000004,1012,23,male,True
166,0.21,25,up,up,0.2505096999993839,1.624469902566101,,psi_staircase,cRDM,,0.1567495892546508,0.1660509480746496,0.1409044606598778,881.4719312999996,1012,23,male,True
167,0.21,25,down,down,0.3004301000000851,1.8778734015175045,,psi_staircase,cRDM,,0.1518279076299499,0.161030424171007,0.1394071183603065,884.0385395999992,1012,23,male,True
168,0.21,25,up,up,0.5821395999992092,0.4456702900434538,,psi_staircase,cRDM,,0.14748438199384,0.1565683398901439,0.1376110967016641,885.1552197999999,1012,23,male,True
169,0.21,25,down,down,0.5770157000006293,0.4455002491104788,,psi_staircase,cRDM,,0.1436653308491432,0.1526137298736132,0.1355575419369177,886.4383382999995,1012,23,male,True
170,0.15,25,up,up,0.2837958999989496,1.7613834558698678,,psi_staircase,cRDM,,0.1403259927904126,0.1491237065612809,0.1332748405812303,889.0550479000003,1012,23,male,True
171,0.16,25,up,down,0.2338888999984192,1.429714131655363,,psi_staircase,cRDM,,0.1344833900972787,0.1435632390856034,0.1375488516604918,891.1715675999994,1012,23,male,True
172,0.22,25,down,up,0.2671699000002263,1.1366440759784882,,psi_staircase,cRDM,,0.1507843864955931,0.1593882685047261,0.1303385212353584,892.9715148999994,1012,23,male,True
173,0.24,25,down,down,0.2838045999997121,0.8076508557560016,,psi_staircase,cRDM,,0.1654123756010278,0.1751235998032971,0.1471134309565396,894.4548210000003,1012,23,male,True
174,0.24,25,down,up,0.3671819000010146,1.660160592517397,,psi_staircase,cRDM,,0.1614695114048492,0.1710763657302795,0.1455323521604493,896.7880292,1012,23,male,True
175,0.31,25,up,up,0.6077617000009923,1.9449943559004423,,psi_staircase,cRDM,,0.1797918019056055,0.1899567920711738,0.1539874425457916,899.4046007000006,1012,23,male,True
176,0.3,25,up,up,0.3671903000013117,0.6554977825613397,,psi_staircase,cRDM,,0.1764336187124649,0.1864825145509676,0.1522287523525178,900.9378533000008,1012,23,male,True
177,0.29,25,down,down,0.5275105000000622,0.4627174352001871,,psi_staircase,cRDM,,0.1732734597188668,0.1832102077639183,0.1505298474230088,902.0878497999992,1012,23,male,True
178,0.29,25,down,up,0.9406497999989368,0.6582636043474035,,psi_staircase,cRDM,,0.1702641751771285,0.1800939515948978,0.1489093552196869,903.5377086,1012,23,male,True
179,0.32,25,down,up,0.5633957999998529,1.588928297357422,,psi_staircase,cRDM,,0.1893460519148287,0.1999108311025551,0.1600437680392022,906.3209966999992,1012,23,male,True
180,0.34,25,up,down,0.2672029999994265,1.9338773032066152,,psi_staircase,cRDM,,0.2129693431646659,0.2242957343190088,0.1715812783605408,909.0875781000004,1012,23,male,True
181,0.36,25,up,up,0.3338710000007268,1.2588656961118527,,psi_staircase,cRDM,,0.2414200453224631,0.2533397651605234,0.1805694982315435,911.0208401000008,1012,23,male,True
182,0.35,25,up,up,0.3671618000007584,1.58528409954666,,psi_staircase,cRDM,,0.2355321244117753,0.2473982842589328,0.1797581284330915,913.2707445000004,1012,23,male,True
183,98.0,25,F,down,0.9083276000001206,1.071039520239231,,experiment,emotion,0.0,,,,924.4870332,1012,23,male,True
184,74.0,25,M,down,0.5274886000006518,0.4930434724292256,,experiment,emotion,0.0,,,,926.1869453000008,1012,23,male,True
185,90.0,25,F,down,0.6191488999993453,1.1718295495975275,,experiment,emotion,0.0,,,,928.1702235000002,1012,23,male,True
186,98.0,25,M,up,0.5568843000000925,1.60666028443714,,experiment,emotion,0.0,,,,930.6534502999992,1012,23,male,True
187,90.0,25,F,down,0.8179646999997203,1.1260304980453142,,experiment,emotion,0.0,,,,932.6033865,1012,23,male,True
188,82.0,25,F,down,0.4167582000009133,0.483677128150059,,experiment,emotion,0.0,,,,934.1866794999996,1012,23,male,True
189,74.0,25,M,down,0.5234373999992386,1.8973528138492133,,experiment,emotion,0.0,,,,936.7699046999996,1012,23,male,True
190,82.0,25,F,down,0.5045974999993632,1.3551744752983592,,experiment,emotion,0.0,,,,938.9197882,1012,23,male,True
191,98.0,25,M,down,0.6652657000013278,1.0122063187707224,,experiment,emotion,0.0,,,,940.7030870000008,1012,23,male,True
192,82.0,25,M,up,0.76339039999948,1.9023103506478105,,experiment,emotion,0.0,,,,943.5529842999996,1012,23,male,True
193,90.0,25,F,down,1.4248281000000134,0.8753728068841942,,experiment,emotion,0.0,,,,945.469564,1012,23,male,True
194,98.0,25,M,down,0.693529000000126,0.6906023302078133,,experiment,emotion,0.0,,,,947.852828600001,1012,23,male,True
195,90.0,25,M,down,0.4602575000008073,1.0240621356242496,,experiment,emotion,0.0,,,,949.8360810000004,1012,23,male,True
196,74.0,25,M,down,0.5473643000004813,0.9151761340568512,,experiment,emotion,0.0,,,,951.4860345000006,1012,23,male,True
197,82.0,25,F,down,0.3668440000001283,0.9107492578197548,,experiment,emotion,0.0,,,,953.2026152000008,1012,23,male,True
198,74.0,25,F,down,0.5181628000009368,0.4252173662751665,,experiment,emotion,0.0,,,,954.3191959000004,1012,23,male,True
199,98.0,25,M,down,0.3168327000003046,1.0600547532499214,,experiment,emotion,0.0,,,,956.1691886,1012,23,male,True
200,74.0,25,M,down,0.416792500000156,1.4171411488905514,,experiment,emotion,0.0,,,,958.2857687000004,1012,23,male,True
201,90.0,25,F,down,0.5102938999989419,0.9063644213604154,,experiment,emotion,0.0,,,,959.8690620999996,1012,23,male,True
202,90.0,25,F,up,0.781491100000494,1.6594737265242148,,experiment,emotion,0.0,,,,962.3188832000004,1012,23,male,True
203,82.0,25,M,up,0.45712900000035,0.5848261273200602,,experiment,emotion,0.0,,,,963.9522363999996,1012,23,male,True
204,82.0,25,F,down,0.2501957999993465,1.3286777610877043,,experiment,emotion,0.0,,,,966.0021478999996,1012,23,male,True
205,74.0,25,M,down,0.3668605000002571,1.6081427910896011,,experiment,emotion,0.0,,,,968.2854166999996,1012,23,male,True
206,98.0,25,F,down,0.3835428000002139,1.71174872297533,,experiment,emotion,0.0,,,,970.6853201000004,1012,23,male,True
207,90.0,25,F,down,0.3668632999997498,0.7688781822418697,,experiment,emotion,0.0,,,,972.1352737999996,1012,23,male,True
208,74.0,25,M,down,0.300251799999387,0.6353263506596017,,experiment,emotion,0.0,,,,973.4518914000008,1012,23,male,True
209,98.0,25,M,down,0.3334371999990253,1.8653644175078168,,experiment,emotion,0.0,,,,975.9851365000004,1012,23,male,True
210,98.0,25,F,down,0.531262999998944,0.6562224743851541,,experiment,emotion,0.0,,,,977.3350779000002,1012,23,male,True
211,82.0,25,M,down,0.6564119000013307,1.924802323041064,,experiment,emotion,0.0,,,,980.0849831000004,1012,23,male,True
212,74.0,25,F,down,0.366790599999149,1.845321937021753,,experiment,emotion,0.0,,,,982.8682744000008,1012,23,male,True
213,82.0,25,M,down,0.3168325999995431,1.5741949758943536,,experiment,emotion,0.0,,,,985.1348007999997,1012,23,male,True
214,90.0,25,F,down,0.3169061999997211,1.2710706155838256,,experiment,emotion,0.0,,,,987.1179856999996,1012,23,male,True
215,74.0,25,M,down,0.4960127999984252,0.3503889495268586,,experiment,emotion,0.0,,,,988.1513538999998,1012,23,male,True
216,98.0,25,F,down,0.2334589999991294,1.7164226257513815,,experiment,emotion,0.0,,,,990.6512723999996,1012,23,male,True
217,90.0,25,M,down,0.2835628000011638,0.892791292887922,,experiment,emotion,0.0,,,,992.2178200000008,1012,23,male,True
218,98.0,25,F,down,0.3334764999999606,1.2323104126754325,,experiment,emotion,0.0,,,,994.1511581000004,1012,23,male,True
219,74.0,25,M,down,0.8843530000012834,0.8511146142614896,,experiment,emotion,0.0,,,,995.7010543000006,1012,23,male,True
220,90.0,25,F,up,0.6653948999992281,1.6459858431221983,,experiment,emotion,0.0,,,,998.5009748000002,1012,23,male,True
221,82.0,25,M,up,1.2091360000013085,0.3867810793966829,,experiment,emotion,0.0,,,,999.8342598999998,1012,23,male,True
222,82.0,25,F,up,0.8095589000004111,1.581142568581439,,experiment,emotion,0.0,,,,1002.9007974000006,1012,23,male,True
223,90.0,25,F,up,1.2076231999999436,0.6589853923938663,,experiment,emotion,0.0,,,,1004.650737500001,1012,23,male,True
224,98.0,25,M,up,0.9563267000012274,0.5916776411667721,,experiment,emotion,0.0,,,,1006.7340178000004,1012,23,male,True
225,82.0,25,F,up,0.745803400001023,0.6529451829821249,,experiment,emotion,0.0,,,,1008.6005974000008,1012,23,male,True
226,74.0,25,M,down,0.8871321000005992,0.4448347562246638,,experiment,emotion,0.0,,,,1010.0672244999996,1012,23,male,True
227,74.0,25,M,down,0.3168635999991238,1.3839653350427874,,experiment,emotion,0.0,,,,1012.6171026000002,1012,23,male,True
228,82.0,25,F,down,0.3001936999989993,1.5864517790238395,,experiment,emotion,0.0,,,,1014.8836994000004,1012,23,male,True
229,98.0,25,F,down,0.6127221000006102,1.2118646263440922,,experiment,emotion,0.0,,,,1016.7836337,1012,23,male,True
230,90.0,25,M,down,0.3501176999998279,1.482421398704996,,experiment,emotion,0.0,,,,1019.1668884,1012,23,male,True
231,74.0,25,F,down,0.4648568000011437,0.5788494527933843,,experiment,emotion,0.0,,,,1020.4335029000003,1012,23,male,True
232,98.0,25,M,down,0.2835120999989158,1.72486643033388,,experiment,emotion,0.0,,,,1022.8834116000008,1012,23,male,True
233,90.0,25,M,down,0.2501861000000644,1.3693119610321731,,experiment,emotion,0.0,,,,1024.9333397,1012,23,male,True
234,90.0,25,M,down,0.1835148999998637,1.6075167193430908,,experiment,emotion,0.0,,,,1027.2165682999994,1012,23,male,True
235,74.0,25,M,down,0.5485283999987587,0.693723810979461,,experiment,emotion,0.0,,,,1028.5998664000008,1012,23,male,True
236,82.0,25,M,down,0.3502119000004313,0.7782225430780803,,experiment,emotion,0.0,,,,1030.1997882000005,1012,23,male,True
237,98.0,25,F,up,0.8645792999996047,0.3079163666942246,,experiment,emotion,0.0,,,,1031.1997820000006,1012,23,male,True
238,82.0,25,F,down,0.8999781999991683,1.0400450514233623,,experiment,emotion,0.0,,,,1033.3663888,1012,23,male,True
239,82.0,25,F,up,0.8027850999988004,0.7703215856638319,,experiment,emotion,0.0,,,,1035.2996133999995,1012,23,male,True
240,82.0,25,M,up,0.8194956999996066,1.1991344692731896,,experiment,emotion,0.0,,,,1037.5828666999996,1012,23,male,True
241,98.0,25,F,up,0.790316199998415,1.7309522064294645,,experiment,emotion,0.0,,,,1040.4161369000003,1012,23,male,True
242,90.0,25,F,down,1.0560306000006676,1.0020922209486136,,experiment,emotion,0.0,,,,1042.499369600001,1012,23,male,True
243,74.0,25,F,down,0.4177240999997593,1.5814685492548513,,experiment,emotion,0.0,,,,1045.4326434000004,1012,23,male,True
244,74.0,25,M,up,0.4168611999994027,0.6140842185540549,,experiment,emotion,0.0,,,,1046.7325381,1012,23,male,True
245,90.0,25,F,up,1.0936237000005349,1.888888108432793,,experiment,emotion,0.0,,,,1049.3157218999995,1012,23,male,True
246,98.0,25,M,up,0.7088113999998313,1.147152550546341,,experiment,emotion,0.0,,,,1051.8156023,1012,23,male,True
247,98.0,25,M,down,0.7364073999997345,0.6111353944851001,,experiment,emotion,0.0,,,,1053.3989498,1012,23,male,True
248,74.0,25,F,down,0.94455089999974,1.6044538559199246,,experiment,emotion,0.0,,,,1055.998850500001,1012,23,male,True
249,98.0,25,M,up,0.7336169999998674,1.8835845947689915,,experiment,emotion,0.0,,,,1059.0987455000004,1012,23,male,True
250,82.0,25,F,down,0.3334340000001248,1.9859381497495832,,experiment,emotion,0.0,,,,1062.0986629000008,1012,23,male,True
251,90.0,25,M,down,0.9860932999999932,0.4336882548826281,,experiment,emotion,0.0,,,,1063.2152560999994,1012,23,male,True
252,82.0,25,F,up,0.8549024000003556,1.5800030889164651,,experiment,emotion,0.0,,,,1066.0485029,1012,23,male,True
253,74.0,25,M,down,0.5999341000006098,0.5716050172432537,,experiment,emotion,0.0,,,,1067.748433600001,1012,23,male,True
254,90.0,25,F,down,0.6433904000004986,0.305222955149654,,experiment,emotion,0.0,,,,1068.9150314000008,1012,23,male,True
255,82.0,25,F,down,0.4850504999994882,1.6073509860879247,,experiment,emotion,0.0,,,,1071.4483157000004,1012,23,male,True
256,90.0,25,F,down,0.4764895000007527,1.3673519163702197,,experiment,emotion,0.0,,,,1073.5648752999996,1012,23,male,True
257,74.0,25,F,down,0.2501315000008617,1.4635913146652082,,experiment,emotion,0.0,,,,1075.7814585000006,1012,23,male,True
258,98.0,25,F,down,0.2168447999993077,1.2335863688879485,,experiment,emotion,0.0,,,,1077.6980663000004,1012,23,male,True
259,90.0,25,M,down,0.7613992000005965,1.3044784658968418,,experiment,emotion,0.0,,,,1079.697968900001,1012,23,male,True
260,98.0,25,M,down,0.3168415000000095,1.798774185484474,,experiment,emotion,0.0,,,,1082.5145339,1012,23,male,True
261,74.0,25,M,down,0.2836016000001109,1.062166651016626,,experiment,emotion,0.0,,,,1084.247827100001,1012,23,male,True
262,82.0,25,M,down,0.2835231999997631,1.5231683901008874,,experiment,emotion,0.0,,,,1086.4644072,1012,23,male,True
263,0.2300644228992643,25,up,up,0.656059599999935,1.2293356813356648,,experiment,cRDM,0.0,,,,1162.778271,1012,23,male,True
264,0.2300644228992643,25,up,down,0.5951740999989852,1.5856399080363537,,experiment,cRDM,0.0,,,,1165.2781974,1012,23,male,True
265,0.2300644228992643,25,down,down,0.5239533000003576,1.6777811843812205,,experiment,cRDM,0.0,,,,1167.8114237,1012,23,male,True
266,0.2300644228992643,25,down,down,0.6297076000009838,1.8424189327890104,,experiment,cRDM,0.0,,,,1170.4446841,1012,23,male,True
267,0.2300644228992643,25,up,up,0.4167775999994774,0.6092777799610589,,experiment,cRDM,0.0,,,,1171.9446356,1012,23,male,True
268,0.2300644228992643,25,down,down,0.4836036000015156,1.2002977181628345,,experiment,cRDM,0.0,,,,1173.8277640999995,1012,23,male,True
269,0.2300644228992643,25,up,up,0.4669336999995721,1.6303126058110289,,experiment,cRDM,0.0,,,,1176.194440100001,1012,23,male,True
270,0.2300644228992643,25,up,down,0.6192055999999866,0.6717269532811598,,experiment,cRDM,0.0,,,,1177.5943720000005,1012,23,male,True
271,0.2300644228992643,25,down,down,0.4331792000011774,1.7148647936082766,,experiment,cRDM,0.0,,,,1180.1942781000007,1012,23,male,True
272,0.2300644228992643,25,down,down,0.6131727000010869,1.1447756242885865,,experiment,cRDM,0.0,,,,1182.0442599000007,1012,23,male,True
273,0.2300644228992643,25,down,up,0.6094943999996758,0.5361272661062016,,experiment,cRDM,0.0,,,,1183.4608548000006,1012,23,male,True
274,0.2300644228992643,25,down,up,0.6949455000012676,0.3988508877885098,,experiment,cRDM,0.0,,,,1184.7274275999998,1012,23,male,True
275,0.2300644228992643,25,down,down,0.2671211999986553,1.9357160343659503,,experiment,cRDM,0.0,,,,1187.6273902000005,1012,23,male,True
276,0.2300644228992643,25,down,down,0.267198700001245,1.8055213080804495,,experiment,cRDM,0.0,,,,1190.1272271000007,1012,23,male,True
277,0.2300644228992643,25,up,up,0.2672044999999343,1.313257182337335,,experiment,cRDM,0.0,,,,1192.1271253000004,1012,23,male,True
278,0.2300644228992643,25,up,up,0.3838300999996136,1.0449265021227094,,experiment,cRDM,0.0,,,,1193.8438221999995,1012,23,male,True
279,0.2300644228992643,25,up,up,0.4604110000000219,1.5065038327321123,,experiment,cRDM,0.0,,,,1196.0269579999997,1012,23,male,True
280,0.2300644228992643,25,up,up,0.3505078999987745,1.7203597501267969,,experiment,cRDM,0.0,,,,1198.4769762000003,1012,23,male,True
281,0.2300644228992643,25,down,down,0.5301503999999113,1.810605706842642,,experiment,cRDM,0.0,,,,1200.9602170999997,1012,23,male,True
282,0.2300644228992643,25,up,up,0.283844699999463,0.5450536616323192,,experiment,cRDM,0.0,,,,1202.293491200001,1012,23,male,True
283,0.2300644228992643,25,up,up,0.5406798999993043,1.901745687133168,,experiment,cRDM,0.0,,,,1204.8767158,1012,23,male,True
284,0.2300644228992643,25,down,down,0.4597515000004932,0.9339263183921483,,experiment,cRDM,0.0,,,,1206.6266956999998,1012,23,male,True
285,0.2300644228992643,25,up,up,0.2670840000009775,1.6137798620508568,,experiment,cRDM,0.0,,,,1208.959914,1012,23,male,True
286,0.2300644228992643,25,down,down,0.2672256999994715,0.8382404616059222,,experiment,cRDM,0.0,,,,1210.476517600001,1012,23,male,True
287,0.2300644228992643,25,down,down,0.4642345000011119,0.5292521270104856,,experiment,cRDM,0.0,,,,1211.6931620000005,1012,23,male,True
288,0.2300644228992643,25,up,down,0.3171517000009771,0.761482632624348,,experiment,cRDM,0.0,,,,1213.1764216,1012,23,male,True
289,0.2300644228992643,25,up,up,0.2505000000001018,0.7795776811578076,,experiment,cRDM,0.0,,,,1214.626369300001,1012,23,male,True
290,0.2300644228992643,25,down,up,0.2835922000012942,1.652105503744348,,experiment,cRDM,0.0,,,,1216.9429761,1012,23,male,True
291,0.2300644228992643,25,up,down,0.3171662000004289,1.110977245668689,,experiment,cRDM,0.0,,,,1218.7595339999998,1012,23,male,True
292,0.2300644228992643,25,down,up,0.4003300999993371,0.974405470227642,,experiment,cRDM,0.0,,,,1220.4261918000002,1012,23,male,True
293,0.2300644228992643,25,down,up,0.576224700000239,0.3191344502600647,,experiment,cRDM,0.0,,,,1221.4261464,1012,23,male,True
294,0.2300644228992643,25,down,up,0.3337831000008009,1.560435298107998,,experiment,cRDM,0.0,,,,1223.826053400001,1012,23,male,True
295,0.2300644228992643,25,up,up,0.4614206999995076,1.071681335997502,,experiment,cRDM,0.0,,,,1225.5759718,1012,23,male,True
296,0.2300644228992643,25,up,down,0.4504460999996809,0.7245932159743853,,experiment,cRDM,0.0,,,,1227.0259527999997,1012,23,male,True
297,0.2300644228992643,25,up,up,0.5692656999999599,0.683509015703086,,experiment,cRDM,0.0,,,,1228.4091749000008,1012,23,male,True
298,0.2300644228992643,25,down,down,0.4696186000001034,1.7826352964338084,,experiment,cRDM,0.0,,,,1231.0257585999998,1012,23,male,True
299,0.2300644228992643,25,down,down,0.5193103999990853,0.8870575999393022,,experiment,cRDM,0.0,,,,1232.6590282000006,1012,23,male,True
300,0.2300644228992643,25,up,up,0.4390446999987034,1.112151689573187,,experiment,cRDM,0.0,,,,1234.5423375,1012,23,male,True
301,0.2300644228992643,25,down,down,0.4265164000007644,1.7254972515449127,,experiment,cRDM,0.0,,,,1236.9588911,1012,23,male,True
302,0.2300644228992643,25,up,up,0.3837605999997322,1.9655028381790447,,experiment,cRDM,0.0,,,,1239.6255100999997,1012,23,male,True
303,0.2300644228992643,25,up,up,0.400298999998995,0.5972040519145551,,experiment,cRDM,0.0,,,,1240.9086237,1012,23,male,True
304,0.2300644228992643,25,up,up,0.2671184999999241,0.7434379665358046,,experiment,cRDM,0.0,,,,1242.3253861000003,1012,23,male,True
305,0.2300644228992643,25,down,up,0.2504309999985707,0.630929764003873,,experiment,cRDM,0.0,,,,1243.6253499999991,1012,23,male,True
306,0.2300644228992643,25,down,down,0.4420943999994051,0.6128424122480907,,experiment,cRDM,0.0,,,,1244.9252836000005,1012,23,male,True
307,0.2300644228992643,25,up,up,0.3171442999991996,1.2175437929645936,,experiment,cRDM,0.0,,,,1246.8418522000002,1012,23,male,True
308,0.2300644228992643,25,down,down,0.350563099998908,1.784317435459382,,experiment,cRDM,0.0,,,,1249.3083698,1012,23,male,True
309,0.2300644228992643,25,down,down,0.4168267000004562,1.7002592212441945,,experiment,cRDM,0.0,,,,1251.6750077999995,1012,23,male,True
310,0.2300644228992643,25,up,up,0.4448057000008703,1.6387490584237925,,experiment,cRDM,0.0,,,,1253.9915694,1012,23,male,True
311,0.2300644228992643,25,up,up,0.4315301999995427,1.3623933055019335,,experiment,cRDM,0.0,,,,1256.0748482999998,1012,23,male,True
312,0.2300644228992643,25,down,up,0.3171578999990743,0.7043208342050242,,experiment,cRDM,0.0,,,,1257.4748000000009,1012,23,male,True
313,0.2300644228992643,25,up,up,0.4903048999985913,1.30911019800281,,experiment,cRDM,0.0,,,,1259.458060399999,1012,23,male,True
314,0.2300644228992643,25,down,down,0.4569940999990649,0.9356392604276824,,experiment,cRDM,0.0,,,,1261.1413655000006,1012,23,male,True
315,0.2300644228992643,25,down,down,0.4373059999998077,1.2069057724816927,,experiment,cRDM,0.0,,,,1263.0580037999998,1012,23,male,True
316,0.2300644228992643,25,down,down,0.3838674000016908,1.171032947387176,,experiment,cRDM,0.0,,,,1264.9411824000008,1012,23,male,True
317,0.2300644228992643,25,up,up,0.4168328999985533,0.7329578549171302,,experiment,cRDM,0.0,,,,1266.3578024000008,1012,23,male,True
318,0.2300644228992643,25,up,up,0.3505053000008047,0.4600747138459096,,experiment,cRDM,0.0,,,,1267.4910876999993,1012,23,male,True
319,0.2300644228992643,25,down,down,0.5253484000004391,1.6244735558509116,,experiment,cRDM,0.0,,,,1269.7910024000005,1012,23,male,True
320,0.2300644228992643,25,down,up,0.3671297999990202,1.7070987494840892,,experiment,cRDM,0.0,,,,1272.2909252,1012,23,male,True
321,0.2300644228992643,25,up,up,0.3671589000005042,1.1218229208018238,,experiment,cRDM,0.0,,,,1274.0908272000006,1012,23,male,True
322,0.2300644228992643,25,up,up,0.2505402999995567,0.7095891312542966,,experiment,cRDM,0.0,,,,1275.474129900001,1012,23,male,True
323,0.2300644228992643,25,up,up,0.3838230999990628,1.5236424884530824,,experiment,cRDM,0.0,,,,1277.6740523,1012,23,male,True
324,0.2300644228992643,25,up,up,0.2671410999992076,1.4828675662608275,,experiment,cRDM,0.0,,,,1279.840640200001,1012,23,male,True
325,0.2300644228992643,25,up,up,0.3171633999991172,0.4356927753911921,,experiment,cRDM,0.0,,,,1280.9572562000003,1012,23,male,True
326,0.2300644228992643,25,down,up,0.2838135000001784,1.8342337622390728,,experiment,cRDM,0.0,,,,1283.4738461999996,1012,23,male,True
327,0.2300644228992643,25,down,down,0.3504631000014342,0.3082772070183411,,experiment,cRDM,0.0,,,,1284.4571600999998,1012,23,male,True
328,0.2300644228992643,25,up,up,0.3171485000002576,1.7671765964918786,,experiment,cRDM,0.0,,,,1286.8903911999996,1012,23,male,True
329,0.2300644228992643,25,down,up,0.3005967999997665,1.2293318337171366,,experiment,cRDM,0.0,,,,1288.7902994999995,1012,23,male,True
330,0.2300644228992643,25,down,down,0.3005062000011094,1.3520325288115975,,experiment,cRDM,0.0,,,,1290.8068219000006,1012,23,male,True
331,0.2300644228992643,25,down,down,0.3338189000005513,1.7635215393235524,,experiment,cRDM,0.0,,,,1293.2568101999996,1012,23,male,True
332,0.2300644228992643,25,up,down,0.2839217000000644,1.061938565864091,,experiment,cRDM,0.0,,,,1295.0066474999994,1012,23,male,True
333,0.2300644228992643,25,down,up,0.3171948999988672,0.3118860625216704,,experiment,cRDM,0.0,,,,1296.0066909999996,1012,23,male,True
334,0.2300644228992643,25,down,down,0.2838780000001861,0.4631039890532779,,experiment,cRDM,0.0,,,,1297.140006300001,1012,23,male,True
335,0.2300644228992643,25,down,down,0.3004729000003863,1.540976935978683,,experiment,cRDM,0.0,,,,1299.356605,1012,23,male,True
336,0.2300644228992643,25,up,down,0.283824200001618,1.3639797138013074,,experiment,cRDM,0.0,,,,1301.406516,1012,23,male,True
337,0.2300644228992643,25,up,up,0.3337996999998722,0.7699458370115964,,experiment,cRDM,0.0,,,,1302.8564806000004,1012,23,male,True
338,0.2300644228992643,25,down,down,0.5533273000000918,0.9756735442266198,,experiment,cRDM,0.0,,,,1304.5230913000005,1012,23,male,True
339,0.2300644228992643,25,up,up,0.4002529999997932,1.2930085855971227,,experiment,cRDM,0.0,,,,1306.6396730999995,1012,23,male,True
340,0.2300644228992643,25,down,down,0.3171096999994915,0.7086210497259952,,experiment,cRDM,0.0,,,,1308.0229659000006,1012,23,male,True
341,0.2300644228992643,25,up,up,0.1338236999999935,1.5609974228829178,,experiment,cRDM,0.0,,,,1310.2561837999992,1012,23,male,True
342,0.2300644228992643,25,up,up,0.7202136000014434,0.3619037091447425,,experiment,cRDM,0.0,,,,1311.306157600001,1012,23,male,True
343,98.0,25,M,down,0.9365835000007792,1.0407501788692504,,experiment,emotion,1.0,,,,1319.0558651,1012,23,male,True
344,74.0,25,M,down,0.6879085999989911,0.487242749697425,,experiment,emotion,1.0,,,,1320.772470500001,1012,23,male,True
345,90.0,25,F,down,1.2287022999989858,1.8153995075519764,,experiment,emotion,1.0,,,,1323.5556963000008,1012,23,male,True
346,98.0,25,F,down,0.8537202999996225,1.2097164688983426,,experiment,emotion,1.0,,,,1326.2556221999994,1012,23,male,True
347,90.0,25,M,up,0.7865098000002035,0.9074948409640268,,experiment,emotion,1.0,,,,1328.288849900001,1012,23,male,True
348,82.0,25,F,down,0.8812589999997726,0.741859379220643,,experiment,emotion,1.0,,,,1330.1221231999998,1012,23,male,True
349,74.0,25,M,up,0.9026466999985132,0.7067027381331861,,experiment,emotion,1.0,,,,1331.9887310999993,1012,23,male,True
350,82.0,25,M,down,0.6864105999993626,1.165856888315948,,experiment,emotion,1.0,,,,1334.3219758000005,1012,23,male,True
351,98.0,25,F,up,0.6004477000005863,0.4451890938759926,,experiment,emotion,1.0,,,,1335.7219295999994,1012,23,male,True
352,82.0,25,F,down,0.3834046000010858,1.842929754538723,,experiment,emotion,1.0,,,,1338.421854700001,1012,23,male,True
353,90.0,25,F,up,1.0899382999996303,0.5157265920228853,,experiment,emotion,1.0,,,,1339.6384399000008,1012,23,male,True
354,98.0,25,F,up,1.2273666000000958,0.7962597155245266,,experiment,emotion,1.0,,,,1341.8050207000006,1012,23,male,True
355,90.0,25,F,up,0.8548176000003878,1.9819187120488504,,experiment,emotion,1.0,,,,1345.2715667000002,1012,23,male,True
356,74.0,25,F,up,0.7022542000013345,0.9875566591327858,,experiment,emotion,1.0,,,,1347.3881455,1012,23,male,True
357,82.0,25,M,up,0.9180276000006417,1.9642344140784576,,experiment,emotion,1.0,,,,1350.3213798000006,1012,23,male,True
358,74.0,25,M,down,0.4850719999994908,1.0728320867655143,,experiment,emotion,1.0,,,,1352.5712945999994,1012,23,male,True
359,98.0,25,M,down,0.3168441999987408,1.206422562566295,,experiment,emotion,1.0,,,,1354.5379005999994,1012,23,male,True
360,74.0,25,M,down,0.2501990999990084,1.315670729148897,,experiment,emotion,1.0,,,,1356.5378195999992,1012,23,male,True
361,90.0,25,F,down,0.2501803000013751,1.9684601294108524,,experiment,emotion,1.0,,,,1359.2043722000008,1012,23,male,True
362,90.0,25,M,down,0.333582799999931,0.4460425104418371,,experiment,emotion,1.0,,,,1360.3209567000004,1012,23,male,True
363,82.0,25,M,up,0.4302059000001463,1.0699380983037856,,experiment,emotion,1.0,,,,1362.1042764999993,1012,23,male,True
364,82.0,25,F,down,0.5655392000007851,1.7158682573776398,,experiment,emotion,1.0,,,,1364.5208685000007,1012,23,male,True
365,74.0,25,M,up,0.2001780999999027,1.857679676030619,,experiment,emotion,1.0,,,,1367.2207709000004,1012,23,male,True
366,98.0,25,F,up,0.7167048000010254,0.6052894483327476,,experiment,emotion,1.0,,,,1368.520713700001,1012,23,male,True
367,90.0,25,F,down,0.830396400000609,1.8849012527110829,,experiment,emotion,1.0,,,,1371.4039853000004,1012,23,male,True
368,74.0,25,M,down,0.7106046999997488,1.2093880403148147,,experiment,emotion,1.0,,,,1373.7037867000008,1012,23,male,True
369,98.0,25,M,up,0.6379585999984556,0.9917163263454838,,experiment,emotion,1.0,,,,1375.6704617000005,1012,23,male,True
370,98.0,25,F,down,0.9304031000010582,1.4642488931399675,,experiment,emotion,1.0,,,,1378.0370295000002,1012,23,male,True
371,82.0,25,M,down,0.6931333000011364,1.7256541796630698,,experiment,emotion,1.0,,,,1380.9702478000008,1012,23,male,True
372,74.0,25,F,up,1.0194876999994449,0.4044391336111178,,experiment,emotion,1.0,,,,1382.336894000001,1012,23,male,True
373,82.0,25,F,down,0.671327599999131,1.89609872090434,,experiment,emotion,1.0,,,,1385.5200959000003,1012,23,male,True
374,90.0,25,F,up,0.7340117000003374,1.066662405719501,,experiment,emotion,1.0,,,,1387.5533697,1012,23,male,True
375,74.0,25,M,down,0.7167800999995961,0.974107789057094,,experiment,emotion,1.0,,,,1389.5366163999995,1012,23,male,True
376,98.0,25,M,up,0.9311880999994172,1.5277253422876886,,experiment,emotion,1.0,,,,1392.0531891,1012,23,male,True
377,90.0,25,M,up,0.8989541000009922,1.0787149575360906,,experiment,emotion,1.0,,,,1394.3364327000008,1012,23,male,True
378,98.0,25,F,up,0.654978000000483,0.5783477831466148,,experiment,emotion,1.0,,,,1396.0863966999996,1012,23,male,True
379,74.0,25,F,down,0.6820822000008775,1.1178112577976476,,experiment,emotion,1.0,,,,1398.1362916999997,1012,23,male,True
380,90.0,25,M,up,1.264225599999918,0.5151582314704672,,experiment,emotion,1.0,,,,1399.603196000001,1012,23,male,True
381,82.0,25,F,down,0.5938426000011532,1.3708811868809434,,experiment,emotion,1.0,,,,1402.5194944999994,1012,23,male,True
382,82.0,25,M,down,0.6333362999994279,0.8492780141285106,,experiment,emotion,1.0,,,,1404.2361032,1012,23,male,True
383,90.0,25,M,down,0.5327366999990772,0.5250574113197444,,experiment,emotion,1.0,,,,1405.6526681000005,1012,23,male,True
384,98.0,25,M,down,0.8194571999993059,1.0093513334578414,,experiment,emotion,1.0,,,,1407.4859301000006,1012,23,male,True
385,82.0,25,F,down,0.3003396999993128,1.92323363428682,,experiment,emotion,1.0,,,,1410.4858235000002,1012,23,male,True
386,74.0,25,F,down,0.3835084999991522,1.667621851343002,,experiment,emotion,1.0,,,,1412.8524286000002,1012,23,male,True
387,74.0,25,M,down,1.1187058000014076,1.3474842410582764,,experiment,emotion,1.0,,,,1414.8856764000002,1012,23,male,True
388,82.0,25,F,up,1.296350799999345,1.3322900248941318,,experiment,emotion,1.0,,,,1417.6020954000005,1012,23,male,True
389,98.0,25,F,up,1.282281599998896,1.6690480565100891,,experiment,emotion,1.0,,,,1420.8521229000007,1012,23,male,True
390,90.0,25,M,down,0.8273432999994839,0.8250265901751326,,experiment,emotion,1.0,,,,1423.2520412999993,1012,23,male,True
391,74.0,25,M,down,0.972436399999424,1.3072495240420556,,experiment,emotion,1.0,,,,1425.6519471,1012,23,male,True
392,98.0,25,F,up,0.8302044000010937,1.069419269318777,,experiment,emotion,1.0,,,,1427.9851776999994,1012,23,male,True
393,90.0,25,M,up,0.9222991000006004,1.197322619530577,,experiment,emotion,1.0,,,,1430.2850872999998,1012,23,male,True
394,90.0,25,F,up,0.9743510999996944,1.667618274677355,,experiment,emotion,1.0,,,,1433.1350066999994,1012,23,male,True
395,74.0,25,F,down,0.9225176999989344,1.6915024864246742,,experiment,emotion,1.0,,,,1436.0848717,1012,23,male,True
396,82.0,25,F,down,0.6863290999990568,1.5544128246193891,,experiment,emotion,1.0,,,,1438.8681291000005,1012,23,male,True
397,98.0,25,M,up,0.837704899999153,1.1552487812484478,,experiment,emotion,1.0,,,,1440.984710400001,1012,23,male,True
398,82.0,25,M,up,0.8380548000004637,0.6120790000395842,,experiment,emotion,1.0,,,,1442.701332900001,1012,23,male,True
399,82.0,25,F,down,0.3335076000003028,1.4169532536964966,,experiment,emotion,1.0,,,,1445.2345761000006,1012,23,male,True
400,82.0,25,F,down,0.4169356000002153,1.582633926157044,,experiment,emotion,1.0,,,,1447.5010327999998,1012,23,male,True
401,98.0,25,M,down,0.2502653999999893,1.625990432069636,,experiment,emotion,1.0,,,,1449.801026,1012,23,male,True
402,90.0,25,M,down,0.3835055999988981,0.9556032499517062,,experiment,emotion,1.0,,,,1451.4676859,1012,23,male,True
403,74.0,25,M,down,0.2668443000002298,1.355422015387303,,experiment,emotion,1.0,,,,1453.5176014,1012,23,male,True
404,74.0,25,M,down,0.8542090000009921,0.9771363435007064,,experiment,emotion,1.0,,,,1455.184204,1012,23,male,True
405,90.0,25,M,down,0.2669038999993063,1.798300363732913,,experiment,emotion,1.0,,,,1458.1007013999997,1012,23,male,True
406,98.0,25,F,up,1.0523972999999387,1.9503602463328824,,experiment,emotion,1.0,,,,1460.7339929,1012,23,male,True
407,98.0,25,F,up,0.628138799998851,1.15772326975576,,experiment,emotion,1.0,,,,1463.2172514000004,1012,23,male,True
408,74.0,25,M,up,0.4549711999989085,0.9754305944367312,,experiment,emotion,1.0,,,,1465.1004433000007,1012,23,male,True
409,98.0,25,F,up,0.2835314000003563,1.9154060722514843,,experiment,emotion,1.0,,,,1467.7504122,1012,23,male,True
410,82.0,25,F,up,0.383495000000039,1.5744859810439709,,experiment,emotion,1.0,,,,1470.0169811999997,1012,23,male,True
411,90.0,25,F,up,0.3502202999989094,1.0585406951732066,,experiment,emotion,1.0,,,,1471.7835752,1012,23,male,True
412,82.0,25,M,up,0.3501684999991994,1.2466142689008295,,experiment,emotion,1.0,,,,1473.7168592000007,1012,23,male,True
413,74.0,25,F,up,0.5069297999998525,0.7920103192040662,,experiment,emotion,1.0,,,,1475.183465000001,1012,23,male,True
414,90.0,25,F,down,0.4642808999997214,0.698101156908197,,experiment,emotion,1.0,,,,1476.650079,1012,23,male,True
415,82.0,25,F,down,0.5300920999998198,0.5090321292657224,,experiment,emotion,1.0,,,,1477.8833468000005,1012,23,male,True
416,90.0,25,M,down,0.2335170000005746,0.5664892929511656,,experiment,emotion,1.0,,,,1479.2499720999997,1012,23,male,True
417,74.0,25,M,,,1.1237274400712245,,experiment,emotion,1.0,,,,1481.0499119999995,1012,23,male,True
418,98.0,25,F,up,0.9349774999991496,1.7620337075712906,,experiment,emotion,1.0,,,,1485.5164188999995,1012,23,male,True
419,90.0,25,M,up,1.031456499998967,1.7123316619327544,,experiment,emotion,1.0,,,,1488.432984,1012,23,male,True
420,98.0,25,F,down,0.8208027000000584,0.6649578168693946,,experiment,emotion,1.0,,,,1490.3995984000003,1012,23,male,True
421,74.0,25,M,up,0.6852475999985472,1.9151362091457491,,experiment,emotion,1.0,,,,1493.4161410999995,1012,23,male,True
422,82.0,25,M,up,0.5599793000001227,0.5614516857290643,,experiment,emotion,1.0,,,,1494.9494081000005,1012,23,male,True
423,0.2300644228992643,25,up,up,0.6647186999998667,1.413811114258556,,experiment,cRDM,1.0,,,,1614.0617137,1012,23,male,True
424,0.2300644228992643,25,up,up,0.4167887000003247,0.6500254868707617,,experiment,cRDM,1.0,,,,1615.6283154000002,1012,23,male,True
425,0.2300644228992643,25,down,up,0.3505447000006825,0.329625944301863,,experiment,cRDM,1.0,,,,1616.6282677999998,1012,23,male,True
426,0.2300644228992643,25,down,down,0.4995061999998142,0.9011558361636602,,experiment,cRDM,1.0,,,,1618.1948982000004,1012,23,male,True
427,0.2300644228992643,25,up,down,0.3338616999990336,1.0258550348487472,,experiment,cRDM,1.0,,,,1619.978137000001,1012,23,male,True
428,0.2300644228992643,25,down,down,0.7792925000012474,0.3619672998900844,,experiment,cRDM,1.0,,,,1621.0281057000002,1012,23,male,True
429,0.2300644228992643,25,up,up,0.4536840000000666,1.0792642593957291,,experiment,cRDM,1.0,,,,1623.144714000001,1012,23,male,True
430,0.2300644228992643,25,up,up,0.4288484000007884,1.1250016527099982,,experiment,cRDM,1.0,,,,1624.9945486000006,1012,23,male,True
431,0.2300644228992643,25,down,down,0.3672477000000071,0.9078885327988606,,experiment,cRDM,1.0,,,,1626.5945211000007,1012,23,male,True
432,0.2300644228992643,25,down,down,2.159234000000652,1.9452643362125,,experiment,cRDM,1.0,,,,1629.2111667,1012,23,male,True
433,0.2300644228992643,25,down,down,0.7927754999982426,1.895113058435468,,experiment,cRDM,1.0,,,,1633.5276511000002,1012,23,male,True
434,0.2300644228992643,25,down,down,0.8632128000008379,0.5113011864409014,,experiment,cRDM,1.0,,,,1635.0941978,1012,23,male,True
435,0.2300644228992643,25,down,down,0.5785302999993291,0.6370653954587664,,experiment,cRDM,1.0,,,,1636.8608663000005,1012,23,male,True
436,0.2300644228992643,25,down,down,0.59865180000088,1.908940995618656,,experiment,cRDM,1.0,,,,1639.6107867,1012,23,male,True
437,0.2300644228992643,25,up,up,0.4477346000003308,0.8971176519650053,,experiment,cRDM,1.0,,,,1641.3607020000009,1012,23,male,True
438,0.2300644228992643,25,up,up,0.3671813999990263,0.5952935548452951,,experiment,cRDM,1.0,,,,1642.6773029000003,1012,23,male,True
439,0.2300644228992643,25,up,up,0.4981819000004179,1.4278060078371504,,experiment,cRDM,1.0,,,,1644.7772156,1012,23,male,True
440,0.2300644228992643,25,up,up,0.4167463000012503,0.7477391406092199,,experiment,cRDM,1.0,,,,1646.2771791999994,1012,23,male,True
441,0.2300644228992643,25,down,up,0.33387920000132,0.3183894153126148,,experiment,cRDM,1.0,,,,1647.2771287000005,1012,23,male,True
442,0.2300644228992643,25,up,down,0.3338485000003857,1.4330248572058255,,experiment,cRDM,1.0,,,,1649.3770563999997,1012,23,male,True
443,0.2300644228992643,25,up,up,0.317139099999622,0.3785452818240286,,experiment,cRDM,1.0,,,,1650.4270621999997,1012,23,male,True
444,0.2300644228992643,25,down,down,0.559084200000143,1.396018284051822,,experiment,cRDM,1.0,,,,1652.510314600001,1012,23,male,True
445,0.2300644228992643,25,up,up,0.468820299998697,0.6972767178483708,,experiment,cRDM,1.0,,,,1654.0435769000003,1012,23,male,True
446,0.2300644228992643,25,down,down,0.4168035999991843,0.9391957811553472,,experiment,cRDM,1.0,,,,1655.7101788999998,1012,23,male,True
447,0.2300644228992643,25,down,up,0.416828200000964,1.5245492863106656,,experiment,cRDM,1.0,,,,1657.9267296000007,1012,23,male,True
448,0.2300644228992643,25,up,down,0.317144399999961,0.3186985353739686,,experiment,cRDM,1.0,,,,1658.9267260999995,1012,23,male,True
449,0.2300644228992643,25,up,up,0.505059799999799,0.5261114545661583,,experiment,cRDM,1.0,,,,1660.1433432000003,1012,23,male,True
450,0.2300644228992643,25,down,down,0.5404257000009238,0.5043678943898766,,experiment,cRDM,1.0,,,,1661.4099758000002,1012,23,male,True
451,0.2300644228992643,25,up,up,0.5745451000002504,0.5289015894374463,,experiment,cRDM,1.0,,,,1662.759916600001,1012,23,male,True
452,0.2300644228992643,25,down,down,0.3004786000001331,0.4495964245258671,,experiment,cRDM,1.0,,,,1664.0432136999998,1012,23,male,True
453,0.2300644228992643,25,down,down,0.4672102000004088,0.873179274372462,,experiment,cRDM,1.0,,,,1665.5931811,1012,23,male,True
454,0.2300644228992643,25,down,down,0.3505098000005091,0.690946644375621,,experiment,cRDM,1.0,,,,1667.0097563000008,1012,23,male,True
455,0.2300644228992643,25,up,up,0.4994217000003118,1.6580937202471957,,experiment,cRDM,1.0,,,,1669.3430049000008,1012,23,male,True
456,0.2300644228992643,25,up,up,0.5625344000000041,1.7256876283947016,,experiment,cRDM,1.0,,,,1671.8429148999994,1012,23,male,True
457,0.2300644228992643,25,up,up,0.5002143000001524,0.9955123821795612,,experiment,cRDM,1.0,,,,1673.6761622999993,1012,23,male,True
458,0.2300644228992643,25,down,down,0.4168069999996078,0.8792084188197165,,experiment,cRDM,1.0,,,,1675.3261121000005,1012,23,male,True
459,0.2300644228992643,25,down,down,0.3837989999992715,0.5388713765230484,,experiment,cRDM,1.0,,,,1676.5427470000004,1012,23,male,True
460,0.2300644228992643,25,up,up,0.4184060000006866,1.8107344210001524,,experiment,cRDM,1.0,,,,1679.0259842999994,1012,23,male,True
461,0.2300644228992643,25,down,down,0.5424762000002374,0.3368895942875534,,experiment,cRDM,1.0,,,,1680.0259579999993,1012,23,male,True
462,0.2300644228992643,25,up,up,0.3338454999993701,1.3202856184476215,,experiment,cRDM,1.0,,,,1682.159186,1012,23,male,True
463,0.2300644228992643,25,up,down,0.267145799998616,0.5416232748643427,,experiment,cRDM,1.0,,,,1683.3758367,1012,23,male,True
464,0.2300644228992643,25,up,up,0.3671381000003748,1.5151850133346387,,experiment,cRDM,1.0,,,,1685.5590753000006,1012,23,male,True
465,0.2300644228992643,25,down,down,0.2671621000008599,1.5919007834877872,,experiment,cRDM,1.0,,,,1687.8256522,1012,23,male,True
466,0.2300644228992643,25,down,down,0.4835423000004084,1.957602010028734,,experiment,cRDM,1.0,,,,1690.458892900001,1012,23,male,True
467,0.2300644228992643,25,up,up,0.2670314999995753,1.5153815201277527,,experiment,cRDM,1.0,,,,1692.725475100001,1012,23,male,True
468,0.2300644228992643,25,down,down,0.333777400001054,0.54523759022168,,experiment,cRDM,1.0,,,,1693.942099500001,1012,23,male,True
469,0.2300644228992643,25,down,down,0.3338935000010679,1.743900796881823,,experiment,cRDM,1.0,,,,1696.3586891000004,1012,23,male,True
470,0.2300644228992643,25,up,up,0.3337663000002067,1.674560830826912,,experiment,cRDM,1.0,,,,1698.7086382999996,1012,23,male,True
471,0.2300644228992643,25,up,up,0.367274999998699,0.3721341187960614,,experiment,cRDM,1.0,,,,1699.7585424,1012,23,male,True
472,0.2300644228992643,25,down,up,0.3838754999997036,1.9511377348776944,,experiment,cRDM,1.0,,,,1702.3917754000004,1012,23,male,True
473,0.2300644228992643,25,up,down,0.3171882999995432,0.7114799016974852,,experiment,cRDM,1.0,,,,1703.7750492999994,1012,23,male,True
474,0.2300644228992643,25,down,down,0.6857103999991523,1.645326056208779,,experiment,cRDM,1.0,,,,1706.0916853999995,1012,23,male,True
475,0.2300644228992643,25,down,down,1.0369232000011834,0.9597574513464636,,experiment,cRDM,1.0,,,,1707.9914983999995,1012,23,male,True
476,0.2300644228992643,25,down,down,0.4168090000002848,0.750839552619996,,experiment,cRDM,1.0,,,,1710.0415167,1012,23,male,True
477,0.2300644228992643,25,up,up,0.6486550999998144,1.4090131568251958,,experiment,cRDM,1.0,,,,1712.1247649000006,1012,23,male,True
478,0.2300644228992643,25,up,up,0.3338389999989886,0.5896411561885102,,experiment,cRDM,1.0,,,,1713.6247113,1012,23,male,True
479,0.2300644228992643,25,down,up,0.4243568999991112,0.3088784192745155,,experiment,cRDM,1.0,,,,1714.6080472000003,1012,23,male,True
480,0.2300644228992643,25,down,down,0.4804117999992741,1.0157263705606718,,experiment,cRDM,1.0,,,,1716.3080055,1012,23,male,True
481,0.2300644228992643,25,up,up,0.4168258999998215,0.3827878653168141,,experiment,cRDM,1.0,,,,1717.4245832000006,1012,23,male,True
482,0.2300644228992643,25,up,up,0.5312566000011429,0.8443108840183609,,experiment,cRDM,1.0,,,,1718.9411816000002,1012,23,male,True
483,0.2300644228992643,25,up,up,0.5349607999996806,0.8780957468829313,,experiment,cRDM,1.0,,,,1720.624453200001,1012,23,male,True
484,0.2300644228992643,25,up,up,0.6333082000001014,0.7658613418182119,,experiment,cRDM,1.0,,,,1722.1910999000002,1012,23,male,True
485,0.2300644228992643,25,up,,,0.6172076358414815,,experiment,cRDM,1.0,,,,1723.7077232,1012,23,male,True
486,0.2300644228992643,25,down,down,0.4632120999995095,1.685465925553488,,experiment,cRDM,1.0,,,,1728.0741960000005,1012,23,male,True
487,0.2300644228992643,25,down,down,0.6705135000011069,1.879868361142332,,experiment,cRDM,1.0,,,,1730.6739093000006,1012,23,male,True
488,0.2300644228992643,25,up,up,0.4211410999996587,1.10292538087542,,experiment,cRDM,1.0,,,,1732.7073284000007,1012,23,male,True
489,0.2300644228992643,25,down,down,0.5834123999993608,0.4808833979314617,,experiment,cRDM,1.0,,,,1733.8739933999996,1012,23,male,True
490,0.2300644228992643,25,down,down,0.4214916000000812,0.6017400926273213,,experiment,cRDM,1.0,,,,1735.3239101000008,1012,23,male,True
491,0.2300644228992643,25,down,down,0.3672129000005952,1.5164802276681075,,experiment,cRDM,1.0,,,,1737.5071775000006,1012,23,male,True
492,0.2300644228992643,25,up,up,0.5189546000001428,0.3891738560931644,,experiment,cRDM,1.0,,,,1738.5904486000009,1012,23,male,True
493,0.2300644228992643,25,down,up,0.6587944999992033,0.3906921597969759,,experiment,cRDM,1.0,,,,1739.7736968,1012,23,male,True
494,0.2300644228992643,25,down,up,0.6304387000000133,1.4224881879313314,,experiment,cRDM,1.0,,,,1742.1070040000004,1012,23,male,True
495,0.2300644228992643,25,down,down,0.3837953999991441,0.3799982805021604,,experiment,cRDM,1.0,,,,1743.3903352999996,1012,23,male,True
496,0.2300644228992643,25,up,up,0.8731580000003305,0.3767572930092676,,experiment,cRDM,1.0,,,,1744.4402476999994,1012,23,male,True
497,0.2300644228992643,25,up,up,0.6250517999997101,1.8995962335094143,,experiment,cRDM,1.0,,,,1747.4733834999995,1012,23,male,True
498,0.2300644228992643,25,down,down,0.3004846999992878,1.3805774039048784,,experiment,cRDM,1.0,,,,1749.7400327000005,1012,23,male,True
499,0.2300644228992643,25,up,up,0.4874096999992616,1.6254811832996228,,experiment,cRDM,1.0,,,,1752.0399908000009,1012,23,male,True
500,0.2300644228992643,25,down,down,0.3504763000000821,0.8079148265090212,,experiment,cRDM,1.0,,,,1753.6065764999994,1012,23,male,True
501,0.2300644228992643,25,up,up,0.4555246999989322,1.166600041351605,,experiment,cRDM,1.0,,,,1755.4398413999998,1012,23,male,True
502,0.2300644228992643,25,up,down,0.3671195000006264,0.9504387080088116,,experiment,cRDM,1.0,,,,1757.1064890000007,1012,23,male,True
503,98.0,25,M,down,1.591093400000318,0.3131242501048693,,experiment,emotion,2.0,,,,1761.2062962999998,1012,23,male,True
504,74.0,25,M,down,0.8028828999995312,0.5586397901004685,,experiment,emotion,2.0,,,,1763.639527800001,1012,23,male,True
505,90.0,25,F,down,0.6354028000005201,1.6260617134914863,,experiment,emotion,2.0,,,,1766.3561024,1012,23,male,True
506,98.0,25,F,up,0.6673816000002262,1.449503260655455,,experiment,emotion,2.0,,,,1768.7060300000005,1012,23,male,True
507,90.0,25,M,up,0.6082032000012987,0.8365874143715408,,experiment,emotion,2.0,,,,1770.4892819000006,1012,23,male,True
508,82.0,25,F,up,0.5451695000010659,0.7517269586175013,,experiment,emotion,2.0,,,,1772.1392346000002,1012,23,male,True
509,74.0,25,M,down,0.5876365000003716,1.4972984068378985,,experiment,emotion,2.0,,,,1774.4558060000008,1012,23,male,True
510,82.0,25,M,down,0.6896228000005067,0.3908737480284593,,experiment,emotion,2.0,,,,1775.7057828999996,1012,23,male,True
511,98.0,25,F,down,0.6077014000002237,1.149248713865554,,experiment,emotion,2.0,,,,1777.8056920999998,1012,23,male,True
512,82.0,25,F,up,0.798136199999135,1.649098120808412,,experiment,emotion,2.0,,,,1780.3222720999993,1012,23,male,True
513,90.0,25,F,down,0.7066003999989334,1.432237411066858,,experiment,emotion,2.0,,,,1782.8388346000002,1012,23,male,True
514,98.0,25,F,up,0.944320399999924,0.8383873841883376,,experiment,emotion,2.0,,,,1784.672086900001,1012,23,male,True
515,90.0,25,F,down,0.7807733999998163,1.759646876963609,,experiment,emotion,2.0,,,,1787.638658500001,1012,23,male,True
516,74.0,25,F,down,0.759179700000459,1.6375928936467297,,experiment,emotion,2.0,,,,1790.3552615,1012,23,male,True
517,82.0,25,M,down,0.6519399999997404,1.267561212677052,,experiment,emotion,2.0,,,,1792.6384706,1012,23,male,True
518,74.0,25,M,down,0.531726000001072,1.4000318855602327,,experiment,emotion,2.0,,,,1794.9717078000003,1012,23,male,True
519,98.0,25,M,down,0.8790703999984544,0.5665504890269092,,experiment,emotion,2.0,,,,1796.3383365,1012,23,male,True
520,74.0,25,M,up,0.4002443999997922,1.5757488846721246,,experiment,emotion,2.0,,,,1799.0715551999992,1012,23,male,True
521,90.0,25,F,down,0.3501990000004298,0.3686945837252563,,experiment,emotion,2.0,,,,1800.1382110000004,1012,23,male,True
522,90.0,25,M,up,0.8282804000009492,0.4124819443148452,,experiment,emotion,2.0,,,,1801.2381453999997,1012,23,male,True
523,82.0,25,M,up,0.4514248999985284,1.1504596221879253,,experiment,emotion,2.0,,,,1803.4880253,1012,23,male,True
524,82.0,25,F,up,0.4356740000002901,0.4544477965191442,,experiment,emotion,2.0,,,,1804.6546929999995,1012,23,male,True
525,74.0,25,M,down,0.7124953999991703,1.8802651694920929,,experiment,emotion,2.0,,,,1807.2379508000004,1012,23,male,True
526,98.0,25,F,up,1.1425376000006509,0.65588395077806,,experiment,emotion,2.0,,,,1808.8878933000003,1012,23,male,True
527,90.0,25,F,down,0.6866704000003665,1.9338457518794685,,experiment,emotion,2.0,,,,1812.2377675,1012,23,male,True
528,74.0,25,M,down,0.3501739000002999,1.4282953262246034,,experiment,emotion,2.0,,,,1814.637663300001,1012,23,male,True
529,98.0,25,M,up,0.781506299999819,1.791373924565682,,experiment,emotion,2.0,,,,1817.1209062000007,1012,23,male,True
530,98.0,25,F,up,0.6162073999985296,0.4238336847102442,,experiment,emotion,2.0,,,,1818.6041982,1012,23,male,True
531,82.0,25,M,up,0.586644899998646,1.2129539150372055,,experiment,emotion,2.0,,,,1820.7207788999997,1012,23,male,True
532,74.0,25,F,down,0.2168378999995184,1.6389630457649778,,experiment,emotion,2.0,,,,1823.220693100001,1012,23,male,True
533,82.0,25,F,up,0.7568217999996705,0.6612176904530938,,experiment,emotion,2.0,,,,1824.570589,1012,23,male,True
534,90.0,25,F,down,0.3834888999990653,1.4471847401122515,,experiment,emotion,2.0,,,,1827.0538884000007,1012,23,male,True
535,74.0,25,M,down,0.6402127000001201,0.3951886898091108,,experiment,emotion,2.0,,,,1828.137172600001,1012,23,male,True
536,98.0,25,M,up,0.8393264000005729,1.09514231450028,,experiment,emotion,2.0,,,,1830.1370855,1012,23,male,True
537,90.0,25,M,down,0.2835380999986228,1.636346228172177,,experiment,emotion,2.0,,,,1832.8702975999995,1012,23,male,True
538,98.0,25,F,down,0.5034849000003305,0.878442343693328,,experiment,emotion,2.0,,,,1834.4369429000008,1012,23,male,True
539,74.0,25,F,down,0.6072002999990218,1.4126807975328195,,experiment,emotion,2.0,,,,1836.6202156000008,1012,23,male,True
540,90.0,25,M,up,0.4302710000010847,0.427264965032339,,experiment,emotion,2.0,,,,1837.920140900001,1012,23,male,True
541,82.0,25,F,down,0.8043046000002505,0.3722345824060041,,experiment,emotion,2.0,,,,1839.0201087,1012,23,male,True
542,82.0,25,M,down,0.4168450999986817,1.8786217767064373,,experiment,emotion,2.0,,,,1841.9866733000008,1012,23,male,True
543,90.0,25,M,down,0.4612096000000747,1.9766240314883332,,experiment,emotion,2.0,,,,1844.653232,1012,23,male,True
544,98.0,25,M,down,0.3501999000000069,1.779547514580479,,experiment,emotion,2.0,,,,1847.1697847000005,1012,23,male,True
545,82.0,25,F,up,0.6970459999993182,1.7716897242932337,,experiment,emotion,2.0,,,,1849.6363969000004,1012,23,male,True
546,74.0,25,F,down,0.649436900001092,0.585707057959135,,experiment,emotion,2.0,,,,1851.202999,1012,23,male,True
547,74.0,25,M,down,0.3668551999999181,1.1164029430022784,,experiment,emotion,2.0,,,,1853.252918700001,1012,23,male,True
548,82.0,25,F,down,0.4488991999987775,0.5328134768024297,,experiment,emotion,2.0,,,,1854.469542,1012,23,male,True
549,98.0,25,F,down,0.2835419999992155,0.8008517128387211,,experiment,emotion,2.0,,,,1855.9860449,1012,23,male,True
550,90.0,25,M,down,0.4386636999988695,0.989436672007904,,experiment,emotion,2.0,,,,1857.6527486999996,1012,23,male,True
551,74.0,25,M,down,0.6451025999995181,1.1087609135913394,,experiment,emotion,2.0,,,,1859.4693351,1012,23,male,True
552,98.0,25,F,down,0.8064374000005046,0.3653702455839231,,experiment,emotion,2.0,,,,1860.7359695999996,1012,23,male,True
553,90.0,25,M,down,0.9082168000004458,1.7434746960481975,,experiment,emotion,2.0,,,,1863.5691940000008,1012,23,male,True
554,90.0,25,F,down,0.4619916999999987,1.5335868939086086,,experiment,emotion,2.0,,,,1866.302442700001,1012,23,male,True
555,74.0,25,F,down,0.2835024000014527,1.1847041946144452,,experiment,emotion,2.0,,,,1868.219032600001,1012,23,male,True
556,82.0,25,F,down,0.5324602000000596,0.6041192406176663,,experiment,emotion,2.0,,,,1869.5189980999996,1012,23,male,True
557,98.0,25,M,down,0.2335450000009586,1.563227282867729,,experiment,emotion,2.0,,,,1871.8855295999992,1012,23,male,True
558,82.0,25,M,down,1.2922384000012244,1.244970544225354,,experiment,emotion,2.0,,,,1873.8021777000004,1012,23,male,True
559,82.0,25,F,down,1.0296614999988378,0.9975237741222156,,experiment,emotion,2.0,,,,1876.3687497,1012,23,male,True
560,82.0,25,F,down,0.3000086000010924,1.798589439136426,,experiment,emotion,2.0,,,,1879.4687031999997,1012,23,male,True
561,98.0,25,M,down,0.7892080000001442,1.199097742768347,,experiment,emotion,2.0,,,,1881.3352151000008,1012,23,male,True
562,90.0,25,M,up,0.4002009999985603,0.4666183136540129,,experiment,emotion,2.0,,,,1882.8685209000005,1012,23,male,True
563,74.0,25,M,up,0.5773838999994041,1.2992833300434048,,experiment,emotion,2.0,,,,1884.8850906,1012,23,male,True
564,74.0,25,M,down,0.3668627000006381,1.0158761200126138,,experiment,emotion,2.0,,,,1886.7516912,1012,23,male,True
565,90.0,25,M,down,0.2168424999999842,1.620653405882573,,experiment,emotion,2.0,,,,1889.0682645000009,1012,23,male,True
566,98.0,25,F,down,0.2501757999998517,1.9354098598715817,,experiment,emotion,2.0,,,,1891.7015062,1012,23,male,True
567,98.0,25,F,up,0.6350415999986581,1.863781060929895,,experiment,emotion,2.0,,,,1894.2514101000008,1012,23,male,True
568,74.0,25,M,down,0.6910718999988603,1.1356263691755348,,experiment,emotion,2.0,,,,1896.301343600001,1012,23,male,True
569,98.0,25,F,down,0.6798572999996395,1.971340333623245,,experiment,emotion,2.0,,,,1899.234555600001,1012,23,male,True
570,82.0,25,F,down,0.6095960000002378,1.688133063564503,,experiment,emotion,2.0,,,,1901.867824,1012,23,male,True
571,90.0,25,F,down,0.6187346000006073,1.1675540563214255,,experiment,emotion,2.0,,,,1903.9177038000007,1012,23,male,True
572,82.0,25,M,down,0.6394435999991401,0.738395065640908,,experiment,emotion,2.0,,,,1905.5509747999995,1012,23,male,True
573,74.0,25,F,down,0.7445358000004489,1.0967541202430848,,experiment,emotion,2.0,,,,1907.5509131000008,1012,23,male,True
574,90.0,25,F,down,0.6098830000009912,1.4080963694612565,,experiment,emotion,2.0,,,,1909.9675670999995,1012,23,male,True
575,82.0,25,F,down,0.7053087999993295,0.8358132729944105,,experiment,emotion,2.0,,,,1911.684112100001,1012,23,male,True
576,90.0,25,M,down,0.7441133000011178,1.7431491316657708,,experiment,emotion,2.0,,,,1914.417336900001,1012,23,male,True
577,74.0,25,M,down,0.8130187999995542,1.50916664726093,,experiment,emotion,2.0,,,,1916.950574900001,1012,23,male,True
578,98.0,25,F,down,0.7563152999991871,0.7645588895267471,,experiment,emotion,2.0,,,,1918.8171816000004,1012,23,male,True
579,90.0,25,M,down,0.7244434999993246,0.5177075417815418,,experiment,emotion,2.0,,,,1920.3670116999992,1012,23,male,True
580,98.0,25,F,up,0.6268433999994159,1.9216772315231,,experiment,emotion,2.0,,,,1923.2835736000009,1012,23,male,True
581,74.0,25,M,up,0.7131437000007281,1.0053826438591102,,experiment,emotion,2.0,,,,1925.200280600001,1012,23,male,True
582,82.0,25,M,up,0.3502079000008962,1.553469517718279,,experiment,emotion,2.0,,,,1927.7501815000005,1012,23,male,True
583,0.2300644228992643,25,up,up,0.5942535000012867,0.9737228703930748,,experiment,cRDM,2.0,,,,1935.3831695,1012,23,male,True
584,0.2300644228992643,25,up,up,0.7536399000000529,1.913763114529876,,experiment,cRDM,2.0,,,,1938.1498227,1012,23,male,True
585,0.2300644228992643,25,down,down,0.5880438000003778,0.4072054372968264,,experiment,cRDM,2.0,,,,1939.5663988000008,1012,23,male,True
586,0.2300644228992643,25,down,down,0.4168085000001156,1.184219594207191,,experiment,cRDM,2.0,,,,1941.5996821,1012,23,male,True
587,0.2300644228992643,25,up,up,0.7995760999983759,1.6011861450833451,,experiment,cRDM,2.0,,,,1943.8828404000003,1012,23,male,True
588,0.2300644228992643,25,down,down,0.3671783999998297,1.2996546009670789,,experiment,cRDM,2.0,,,,1946.2328377999995,1012,23,male,True
589,0.2300644228992643,25,up,up,0.4276934000008623,1.723174445270134,,experiment,cRDM,2.0,,,,1948.6327534,1012,23,male,True
590,0.2300644228992643,25,up,up,0.7723635999991529,1.593083181892501,,experiment,cRDM,2.0,,,,1950.916021600001,1012,23,male,True
591,0.2300644228992643,25,down,down,0.4495606000000407,1.367818419945999,,experiment,cRDM,2.0,,,,1953.3158802000007,1012,23,male,True
592,0.2300644228992643,25,down,down,0.4695726999998442,0.7900623395728715,,experiment,cRDM,2.0,,,,1954.815847500001,1012,23,male,True
593,0.2300644228992643,25,down,down,0.3671486000002915,1.8281939416543849,,experiment,cRDM,2.0,,,,1957.365747500001,1012,23,male,True
594,0.2300644228992643,25,down,up,0.3338729000006424,1.4146339297893318,,experiment,cRDM,2.0,,,,1959.4656296000005,1012,23,male,True
595,0.2300644228992643,25,down,down,0.3171400999999605,0.8370475545360532,,experiment,cRDM,2.0,,,,1960.9823472,1012,23,male,True
596,0.2300644228992643,25,down,up,0.3004643000003852,1.5255461499790457,,experiment,cRDM,2.0,,,,1963.1988885,1012,23,male,True
597,0.2300644228992643,25,up,up,0.5179560999986279,1.8496833089110023,,experiment,cRDM,2.0,,,,1965.715453,1012,23,male,True
598,0.2300644228992643,25,up,down,0.2837003999993612,0.9859659331594516,,experiment,cRDM,2.0,,,,1967.4820801,1012,23,male,True
599,0.2300644228992643,25,up,down,0.4002311000003828,1.885169423629024,,experiment,cRDM,2.0,,,,1970.0486284000008,1012,23,male,True
600,0.2300644228992643,25,up,down,0.4308394999989104,0.6170067768260443,,experiment,cRDM,2.0,,,,1971.3485813,1012,23,male,True
601,0.2300644228992643,25,down,down,0.498235900000509,0.7195580241020813,,experiment,cRDM,2.0,,,,1972.765177100001,1012,23,male,True
602,0.2300644228992643,25,up,up,0.448710900000151,1.6135391162156096,,experiment,cRDM,2.0,,,,1975.1317357,1012,23,male,True
603,0.2300644228992643,25,up,up,0.6474097999998776,1.980875235404683,,experiment,cRDM,2.0,,,,1977.8150090000008,1012,23,male,True
604,0.2300644228992643,25,down,down,0.5425722999989375,0.6255049059628675,,experiment,cRDM,2.0,,,,1979.3648893,1012,23,male,True
605,0.2300644228992643,25,up,up,0.481557299999622,1.742092381249359,,experiment,cRDM,2.0,,,,1981.9148509,1012,23,male,True
606,0.2300644228992643,25,down,down,0.3004937000005157,1.427934925507383,,experiment,cRDM,2.0,,,,1984.0814795,1012,23,male,True
607,0.2300644228992643,25,down,up,0.5230974999994942,1.2640445190277878,,experiment,cRDM,2.0,,,,1986.0313778000009,1012,23,male,True
608,0.2300644228992643,25,up,down,0.267196499999045,1.2707004223315304,,experiment,cRDM,2.0,,,,1988.0813212000005,1012,23,male,True
609,0.2300644228992643,25,up,up,0.4971777999999176,1.562205204416811,,experiment,cRDM,2.0,,,,1990.3312431000004,1012,23,male,True
610,0.2300644228992643,25,down,down,0.470217699999921,0.5914783910101263,,experiment,cRDM,2.0,,,,1991.6811905000004,1012,23,male,True
611,0.2300644228992643,25,up,up,0.3171354999994946,1.2306231512953811,,experiment,cRDM,2.0,,,,1993.6311068999996,1012,23,male,True
612,0.2300644228992643,25,down,down,0.2338097000010748,1.907163162942387,,experiment,cRDM,2.0,,,,1996.2143344999995,1012,23,male,True
613,0.2300644228992643,25,down,down,0.3338463000000047,0.7853663461979264,,experiment,cRDM,2.0,,,,1997.680932,1012,23,male,True
614,0.2300644228992643,25,down,down,0.3172653000001446,0.5697544922607857,,experiment,cRDM,2.0,,,,1998.9476012000005,1012,23,male,True
615,0.2300644228992643,25,up,up,0.333752500000628,1.3153064219594752,,experiment,cRDM,2.0,,,,2000.9474990000008,1012,23,male,True
616,0.2300644228992643,25,up,down,0.5236530000001949,1.2964170014656482,,experiment,cRDM,2.0,,,,2002.9307721,1012,23,male,True
617,0.2300644228992643,25,up,up,0.2672103000004426,1.1040956340608878,,experiment,cRDM,2.0,,,,2004.8306772000003,1012,23,male,True
618,0.2300644228992643,25,down,down,0.463180700000521,1.727543739173577,,experiment,cRDM,2.0,,,,2007.2472578000009,1012,23,male,True
619,0.2300644228992643,25,down,up,0.7219423999995342,1.703835329410854,,experiment,cRDM,2.0,,,,2009.6804753999995,1012,23,male,True
620,0.2300644228992643,25,up,down,0.333875899999839,0.7103768682253027,,experiment,cRDM,2.0,,,,2011.3637603,1012,23,male,True
621,0.2300644228992643,25,down,down,0.488345499999923,0.740805318485626,,experiment,cRDM,2.0,,,,2012.7971013,1012,23,male,True
622,0.2300644228992643,25,up,up,0.5267555999998876,0.9562826042609084,,experiment,cRDM,2.0,,,,2014.5136635000008,1012,23,male,True
623,0.2300644228992643,25,up,up,0.5064100000017788,0.8958121482409651,,experiment,cRDM,2.0,,,,2016.1969610999995,1012,23,male,True
624,0.2300644228992643,25,up,up,0.3004990999997972,1.5946445788629924,,experiment,cRDM,2.0,,,,2018.546862,1012,23,male,True
625,0.2300644228992643,25,down,down,0.5079624000009062,0.4220752606932874,,experiment,cRDM,2.0,,,,2019.6634594,1012,23,male,True
626,0.2300644228992643,25,down,down,0.4750158999995619,0.8816555158394168,,experiment,cRDM,2.0,,,,2021.3134137000009,1012,23,male,True
627,0.2300644228992643,25,up,down,0.484460499999841,0.5348245075313843,,experiment,cRDM,2.0,,,,2022.5799455000008,1012,23,male,True
628,0.2300644228992643,25,down,down,0.4651722000016889,1.941784414204568,,experiment,cRDM,2.0,,,,2025.2632532,1012,23,male,True
629,0.2300644228992643,25,down,down,0.9302176000001054,1.3284441532423394,,experiment,cRDM,2.0,,,,2027.3132075999995,1012,23,male,True
630,0.2300644228992643,25,up,up,0.6596016000003146,0.3727950537143745,,experiment,cRDM,2.0,,,,2028.8798292,1012,23,male,True
631,0.2300644228992643,25,up,up,0.416890799999237,1.80530624290672,,experiment,cRDM,2.0,,,,2031.5963765999995,1012,23,male,True
632,0.2300644228992643,25,down,down,0.7327251999995497,0.3049476951777049,,experiment,cRDM,2.0,,,,2032.5796869,1012,23,male,True
633,0.2300644228992643,25,up,up,1.3327908999999636,0.5205246340295642,,experiment,cRDM,2.0,,,,2034.0796356,1012,23,male,True
634,0.2300644228992643,25,down,down,0.4462553000012121,1.0182543340460817,,experiment,cRDM,2.0,,,,2036.6961951000003,1012,23,male,True
635,0.2300644228992643,25,down,down,0.6520199999995384,1.1813837529796063,,experiment,cRDM,2.0,,,,2038.579410200001,1012,23,male,True
636,0.2300644228992643,25,down,down,0.3337509000011778,1.433387743427152,,experiment,cRDM,2.0,,,,2040.929357,1012,23,male,True
637,0.2300644228992643,25,up,up,0.9558051000003616,1.495847786593374,,experiment,cRDM,2.0,,,,2043.1126154999995,1012,23,male,True
638,0.2300644228992643,25,up,down,0.3838550000000396,0.7278994823664844,,experiment,cRDM,2.0,,,,2045.0624781,1012,23,male,True
639,0.2300644228992643,25,down,down,0.5496509999993577,1.7552752805261458,,experiment,cRDM,2.0,,,,2047.4957913000007,1012,23,male,True
640,0.2300644228992643,25,down,down,1.1500554000012926,1.4177511910854186,,experiment,cRDM,2.0,,,,2049.712375,1012,23,male,True
641,0.2300644228992643,25,up,up,0.5699309000010544,1.9201185126783111,,experiment,cRDM,2.0,,,,2053.0455701,1012,23,male,True
642,0.2300644228992643,25,up,up,0.3671477000007144,0.8419367926309753,,experiment,cRDM,2.0,,,,2054.728862500001,1012,23,male,True
643,0.2300644228992643,25,up,up,0.383841000000757,0.6675079933660751,,experiment,cRDM,2.0,,,,2056.0788201000005,1012,23,male,True
644,0.2300644228992643,25,up,up,0.3004574999995384,0.4290761861123721,,experiment,cRDM,2.0,,,,2057.1954407999992,1012,23,male,True
645,0.2300644228992643,25,up,up,0.4168255999993562,1.240463294268684,,experiment,cRDM,2.0,,,,2059.1120232000003,1012,23,male,True
646,0.2300644228992643,25,down,down,0.5521313999997801,0.5124811447846613,,experiment,cRDM,2.0,,,,2060.2952926000007,1012,23,male,True
647,0.2300644228992643,25,down,down,0.712263499999608,1.4325668693110882,,experiment,cRDM,2.0,,,,2062.545218,1012,23,male,True
648,0.2300644228992643,25,up,up,0.4002562000005127,1.5595155394465443,,experiment,cRDM,2.0,,,,2065.0785083,1012,23,male,True
649,0.2300644228992643,25,down,down,0.4897653999996691,1.695774800972542,,experiment,cRDM,2.0,,,,2067.461685700001,1012,23,male,True
650,0.2300644228992643,25,down,down,0.4257811000006768,1.5044600486394029,,experiment,cRDM,2.0,,,,2069.711644600001,1012,23,male,True
651,0.2300644228992643,25,down,down,0.5971868999986327,0.741001092923248,,experiment,cRDM,2.0,,,,2071.1282416000004,1012,23,male,True
652,0.2300644228992643,25,up,up,0.5142268999989028,0.7386211322079218,,experiment,cRDM,2.0,,,,2072.7282024999995,1012,23,male,True
653,0.2300644228992643,25,down,down,0.5021104999996169,1.6661419875577237,,experiment,cRDM,2.0,,,,2075.161360700001,1012,23,male,True
654,0.2300644228992643,25,down,down,0.6607050000002346,0.7860940308855036,,experiment,cRDM,2.0,,,,2076.6947021000005,1012,23,male,True
655,0.2300644228992643,25,down,down,0.5178634000003512,1.879902886364768,,experiment,cRDM,2.0,,,,2079.4946090999997,1012,23,male,True
656,0.2300644228992643,25,up,up,0.3004636999994545,1.7180029475135117,,experiment,cRDM,2.0,,,,2081.9945670000006,1012,23,male,True
657,0.2300644228992643,25,up,up,0.3838085000006686,1.0480814981683368,,experiment,cRDM,2.0,,,,2083.7277904,1012,23,male,True
658,0.2300644228992643,25,down,down,0.2171702000014193,1.987552040107438,,experiment,cRDM,2.0,,,,2086.3943621000008,1012,23,male,True
659,0.2300644228992643,25,up,up,0.5087937999996939,1.8694136185839172,,experiment,cRDM,2.0,,,,2088.9275935,1012,23,male,True
660,0.2300644228992643,25,down,down,0.4002559999989898,1.2719769431458885,,experiment,cRDM,2.0,,,,2090.960836700001,1012,23,male,True
661,0.2300644228992643,25,up,up,0.4779465999999956,0.4839313517962466,,experiment,cRDM,2.0,,,,2092.1274819,1012,23,male,True
662,0.2300644228992643,25,up,up,0.4997029999994993,1.5537361249085606,,experiment,cRDM,2.0,,,,2094.4107308,1012,23,male,True
663,98.0,25,M,up,0.9186735000002956,1.0619991642834825,,experiment,emotion,3.0,,,,2103.1437562,1012,23,male,True
664,74.0,25,M,down,0.5025040000000445,1.278091566528978,,experiment,emotion,3.0,,,,2105.6269679000006,1012,23,male,True
665,90.0,25,F,up,0.7291775000012422,0.9830400560708918,,experiment,emotion,3.0,,,,2107.410261600001,1012,23,male,True
666,98.0,25,F,up,0.5429016999987653,0.8335567135824513,,experiment,emotion,3.0,,,,2109.2435207000008,1012,23,male,True
667,90.0,25,M,up,0.4002018999999563,1.5395123805876405,,experiment,emotion,3.0,,,,2111.5934401000004,1012,23,male,True
668,82.0,25,F,up,0.4264753999996173,1.2581305327695078,,experiment,emotion,3.0,,,,2113.5599524,1012,23,male,True
669,74.0,25,M,down,0.300169599999208,1.4086301152149985,,experiment,emotion,3.0,,,,2115.6766105,1012,23,male,True
670,82.0,25,M,down,0.7188897000014549,1.6635807720310596,,experiment,emotion,3.0,,,,2118.0265431,1012,23,male,True
671,98.0,25,F,up,0.5069978999999876,1.809703772095129,,experiment,emotion,3.0,,,,2120.826430100001,1012,23,male,True
672,82.0,25,F,down,0.7330525000015768,0.5682193486713805,,experiment,emotion,3.0,,,,2122.176374400001,1012,23,male,True
673,90.0,25,F,up,0.5708087000002706,0.7178959335991063,,experiment,emotion,3.0,,,,2123.9096404,1012,23,male,True
674,98.0,25,F,down,0.8715133999994578,1.344772179117774,,experiment,emotion,3.0,,,,2126.0929116,1012,23,male,True
675,90.0,25,F,,,0.5052119394435944,,experiment,emotion,3.0,,,,2127.7428307,1012,23,male,True
676,74.0,25,F,down,0.962367299998732,1.7841987942295765,,experiment,emotion,3.0,,,,2132.226066100001,1012,23,male,True
677,82.0,25,M,up,0.4167960000013408,1.3501944540329138,,experiment,emotion,3.0,,,,2134.809269800001,1012,23,male,True
678,74.0,25,M,down,0.6043871000001673,1.6753439561924397,,experiment,emotion,3.0,,,,2137.1590884000007,1012,23,male,True
679,98.0,25,M,up,0.7880738000003475,1.851313877594876,,experiment,emotion,3.0,,,,2139.8923891000004,1012,23,male,True
680,74.0,25,M,up,0.8267500000001746,0.4186596074811449,,experiment,emotion,3.0,,,,2141.3756788,1012,23,male,True
681,90.0,25,F,down,0.7095026999995753,0.9293568734262108,,experiment,emotion,3.0,,,,2143.408929100001,1012,23,male,True
682,90.0,25,M,down,0.4835693000004539,1.3619546258177937,,experiment,emotion,3.0,,,,2145.758863100001,1012,23,male,True
683,82.0,25,M,down,0.7230114999983925,1.2571236685861664,,experiment,emotion,3.0,,,,2147.7754577999995,1012,23,male,True
684,82.0,25,F,down,0.7414337000009255,1.474892296545108,,experiment,emotion,3.0,,,,2150.2420176999995,1012,23,male,True
685,74.0,25,M,down,0.6908426999998483,0.9121590136506434,,experiment,emotion,3.0,,,,2152.1585995,1012,23,male,True
686,98.0,25,F,down,0.4825840000012249,1.8581825208948848,,experiment,emotion,3.0,,,,2154.991845400001,1012,23,male,True
687,90.0,25,F,down,0.7256553999995958,0.5126956166597241,,experiment,emotion,3.0,,,,2156.2417773000006,1012,23,male,True
688,74.0,25,M,down,0.6190874000003532,1.0840299854247533,,experiment,emotion,3.0,,,,2158.3084123,1012,23,male,True
689,98.0,25,M,down,0.7724376999995002,1.0322704576002766,,experiment,emotion,3.0,,,,2160.2249870999995,1012,23,male,True
690,98.0,25,F,up,0.5716100000008737,1.112390129605755,,experiment,emotion,3.0,,,,2162.3748223,1012,23,male,True
691,82.0,25,M,down,0.2169067000013456,1.445401027083289,,experiment,emotion,3.0,,,,2164.6747587,1012,23,male,True
692,74.0,25,F,down,0.2835778999997274,0.8966231776750808,,experiment,emotion,3.0,,,,2166.2746977,1012,23,male,True
693,82.0,25,F,down,0.7300859000006312,1.3640011967609518,,experiment,emotion,3.0,,,,2168.341344900001,1012,23,male,True
694,90.0,25,F,down,0.4582144000014523,1.5218923654242715,,experiment,emotion,3.0,,,,2170.891253700001,1012,23,male,True
695,74.0,25,M,down,0.5905841999992845,1.5024509687253371,,experiment,emotion,3.0,,,,2173.1078468000005,1012,23,male,True
696,98.0,25,M,up,0.4453001000001677,0.4831334854714134,,experiment,emotion,3.0,,,,2174.4911327,1012,23,male,True
697,90.0,25,M,down,0.7587572000011278,1.9481005404576448,,experiment,emotion,3.0,,,,2177.1577123,1012,23,male,True
698,98.0,25,F,up,0.7974831000010454,0.8663411002539552,,experiment,emotion,3.0,,,,2179.040949200001,1012,23,male,True
699,74.0,25,F,,,0.5995366131683565,,experiment,emotion,3.0,,,,2180.7242386000007,1012,23,male,True
700,90.0,25,M,down,0.383485100001053,1.7839847142616814,,experiment,emotion,3.0,,,,2185.2074035,1012,23,male,True
701,82.0,25,F,down,0.3168358999992051,1.3870090738853131,,experiment,emotion,3.0,,,,2187.3073343000005,1012,23,male,True
702,82.0,25,M,down,0.2002572000001237,1.959060106455195,,experiment,emotion,3.0,,,,2189.9571726000004,1012,23,male,True
703,90.0,25,M,up,0.621337599999606,1.3119488939990722,,experiment,emotion,3.0,,,,2191.9571234999994,1012,23,male,True
704,98.0,25,M,up,0.4005196999987674,1.3874019649391929,,experiment,emotion,3.0,,,,2194.2570103000007,1012,23,male,True
705,82.0,25,F,up,0.3668094999993627,1.5074850894573606,,experiment,emotion,3.0,,,,2196.4403625999994,1012,23,male,True
706,74.0,25,F,down,0.2502041000007011,1.943175516589957,,experiment,emotion,3.0,,,,2199.0735608999994,1012,23,male,True
707,74.0,25,M,up,0.3668734999992011,1.0773305289037534,,experiment,emotion,3.0,,,,2200.840141,1012,23,male,True
708,82.0,25,F,up,0.983970600000248,0.3981191530254597,,experiment,emotion,3.0,,,,2201.9234638000007,1012,23,male,True
709,98.0,25,F,down,0.2168234000000666,1.9802794629699163,,experiment,emotion,3.0,,,,2205.1733383,1012,23,male,True
710,90.0,25,M,up,0.2668248999998468,1.7520240380716705,,experiment,emotion,3.0,,,,2207.6232358000007,1012,23,male,True
711,74.0,25,M,down,0.927910399999746,0.6989579873801819,,experiment,emotion,3.0,,,,2209.006509,1012,23,male,True
712,98.0,25,F,down,1.650701399999889,0.7272794487089169,,experiment,emotion,3.0,,,,2210.9397614,1012,23,male,True
713,90.0,25,M,up,0.5964452999996865,0.9186094893097152,,experiment,emotion,3.0,,,,2213.7730241,1012,23,male,True
714,90.0,25,F,down,0.5465302000011434,1.0285687203095202,,experiment,emotion,3.0,,,,2215.6729394999998,1012,23,male,True
715,74.0,25,F,down,1.0159412000011798,1.5386177411497894,,experiment,emotion,3.0,,,,2218.0395163000003,1012,23,male,True
716,82.0,25,F,up,0.539302700000917,0.9165476418620382,,experiment,emotion,3.0,,,,2220.2561361,1012,23,male,True
717,98.0,25,M,up,0.7967076000004454,0.948893125816324,,experiment,emotion,3.0,,,,2222.0227289000004,1012,23,male,True
718,82.0,25,M,down,0.2835236999999324,1.6994840746820647,,experiment,emotion,3.0,,,,2224.7892774,1012,23,male,True
719,82.0,25,F,up,0.7728724000007787,1.1058426254971767,,experiment,emotion,3.0,,,,2226.5725596,1012,23,male,True
720,82.0,25,F,down,0.7459792999998172,0.7606104712400358,,experiment,emotion,3.0,,,,2228.3724902999998,1012,23,male,True
721,98.0,25,M,down,0.6970206000005419,1.482554858669521,,experiment,emotion,3.0,,,,2230.8723870999997,1012,23,male,True
722,90.0,25,M,down,0.4688831000003119,0.9077547198628662,,experiment,emotion,3.0,,,,2232.7555516,1012,23,male,True
723,74.0,25,M,up,1.0531921000001605,1.4731879711222076,,experiment,emotion,3.0,,,,2234.9722441000004,1012,23,male,True
724,74.0,25,M,down,0.3168138000000908,1.7254747754752051,,experiment,emotion,3.0,,,,2238.0221563999994,1012,23,male,True
725,90.0,25,M,down,0.4168171999990591,1.104231847678964,,experiment,emotion,3.0,,,,2239.8220579,1012,23,male,True
726,98.0,25,F,up,0.990111799999795,1.2392191882460184,,experiment,emotion,3.0,,,,2241.755329300001,1012,23,male,True
727,98.0,25,F,down,0.8515260999993188,0.7084140661187879,,experiment,emotion,3.0,,,,2243.7219084,1012,23,male,True
728,74.0,25,M,down,0.3168470000000525,0.8015115653337566,,experiment,emotion,3.0,,,,2245.6551556000004,1012,23,male,True
729,98.0,25,F,down,0.3168655999998009,0.5533242181937503,,experiment,emotion,3.0,,,,2246.9051284000006,1012,23,male,True
730,82.0,25,F,down,0.2835664999984146,0.4306881995500244,,experiment,emotion,3.0,,,,2248.038407000001,1012,23,male,True
731,90.0,25,F,down,0.3335074000005988,0.6760150891658043,,experiment,emotion,3.0,,,,2249.4050495,1012,23,male,True
732,82.0,25,M,down,0.2335302999999839,0.9248825675521406,,experiment,emotion,3.0,,,,2251.0049775,1012,23,male,True
733,74.0,25,F,down,0.6765586000001349,1.91278168715168,,experiment,emotion,3.0,,,,2253.604882300001,1012,23,male,True
734,90.0,25,F,down,0.3502260000004753,1.4334488987129232,,experiment,emotion,3.0,,,,2255.9713826,1012,23,male,True
735,82.0,25,F,down,0.2834775999999692,0.8215578850940124,,experiment,emotion,3.0,,,,2257.4714295000003,1012,23,male,True
736,90.0,25,M,down,0.2835216999992553,1.1434438557639817,,experiment,emotion,3.0,,,,2259.304690800001,1012,23,male,True
737,74.0,25,M,down,0.4568232000001444,0.5605421013171776,,experiment,emotion,3.0,,,,2260.5546181,1012,23,male,True
738,98.0,25,F,down,0.216819300001589,1.097576553880241,,experiment,emotion,3.0,,,,2262.4046002000005,1012,23,male,True
739,90.0,25,M,down,0.2002059999995253,1.101887063919908,,experiment,emotion,3.0,,,,2264.187828000001,1012,23,male,True
740,98.0,25,F,down,0.5676774000003206,0.9045683736598552,,experiment,emotion,3.0,,,,2265.787758900001,1012,23,male,True
741,74.0,25,M,down,0.6161376000000018,0.3238994173297642,,experiment,emotion,3.0,,,,2266.9543305,1012,23,male,True
742,82.0,25,M,up,0.487434900000153,0.4365031209252558,,experiment,emotion,3.0,,,,2268.2710139,1012,23,male,True
743,0.2300644228992643,25,up,up,0.6805601000014576,0.9854115249615498,,experiment,cRDM,3.0,,,,2353.4678847000005,1012,23,male,True
744,0.2300644228992643,25,up,up,0.4834475000006932,1.5259100839495898,,experiment,cRDM,3.0,,,,2355.9509919,1012,23,male,True
745,0.2300644228992643,25,down,down,0.400441599998885,1.3222306179397698,,experiment,cRDM,3.0,,,,2358.0343863000007,1012,23,male,True
746,0.2300644228992643,25,down,down,0.3505141000005096,1.004564395318428,,experiment,cRDM,3.0,,,,2359.7176640000007,1012,23,male,True
