,stimLvl,stimTime,rand,response,rt,precedingITI,trialNumber,trialType,stimuli,block,estIntens,estThres,estSlope,trialStart,subject,age,gender,headRest
0,150.0,100,F,,,0.4421501873751752,,introTrial,emotion,,,,,235.97273039999996,111,49,female,True
1,0.9,100,down,,,1.1454857510778145,,introTrial,cRDM,,,,,241.0723399,111,49,female,True
2,0.9,25,up,up,0.6042592000000013,0.9383769056714072,,tutorial,cRDM,,,,,267.5377751,111,49,female,True
3,0.9,25,down,down,0.6345095000000356,0.9966865860415756,,tutorial,cRDM,,,,,269.4044875,111,49,female,True
4,0.9,25,down,down,0.5662861999999222,1.049911952409784,,tutorial,cRDM,,,,,271.38774809999995,111,49,female,True
5,0.9,25,up,up,0.4743486999999504,1.051540318958696,,tutorial,cRDM,,,,,273.28766269999994,111,49,female,True
6,0.9,25,up,up,0.8877294999999776,1.020240364384603,,tutorial,cRDM,,,,,275.0542759,111,49,female,True
7,0.9,25,down,down,0.4614401000000043,0.469860591243617,,tutorial,cRDM,,,,,276.6875387,111,49,female,True
8,0.9,25,down,down,0.6533259999999927,1.559806710772918,,tutorial,cRDM,,,,,278.9706494,111,49,female,True
9,0.9,25,down,down,0.4584045000000287,1.8776132428591992,,tutorial,cRDM,,,,,281.77056489999995,111,49,female,True
10,0.9,25,up,up,0.6563962000000174,1.0084279272050172,,tutorial,cRDM,,,,,283.52060069999993,111,49,female,True
11,0.9,25,up,up,0.7828048000000081,1.4872081089249298,,tutorial,cRDM,,,,,285.9371962,111,49,female,True
12,200.0,25,M,up,0.6669583999999986,0.9444364713731594,,tutorial,emotion,,,,,291.1370131,111,49,female,True
13,200.0,25,M,up,0.5479964999999538,0.3042011777458696,,tutorial,emotion,,,,,292.3869624,111,49,female,True
14,200.0,25,F,up,0.4720270999999911,0.4095601576653681,,tutorial,emotion,,,,,293.6369188,111,49,female,True
15,0.0,25,F,down,0.5041274000000158,1.0901621781529125,,tutorial,emotion,,,,,295.536834,111,49,female,True
16,0.0,25,M,down,0.5875615999999582,1.4950472253108942,,tutorial,emotion,,,,,297.8034034,111,49,female,True
17,200.0,25,F,up,0.6347356999999647,1.8953147784791915,,tutorial,emotion,,,,,300.5702448999999,111,49,female,True
18,0.0,25,M,down,0.5424313000000893,1.9919155427602164,,tutorial,emotion,,,,,303.4865106000001,111,49,female,True
19,200.0,25,M,up,0.623228299999937,1.373875789927343,,tutorial,emotion,,,,,305.6697032999999,111,49,female,True
20,0.0,25,F,down,0.4446333000000777,1.860926922585532,,tutorial,emotion,,,,,308.43633179999995,111,49,female,True
21,0.0,25,F,down,0.4447413999998844,0.927324551137768,,tutorial,emotion,,,,,310.0862252999999,111,49,female,True
22,0.29,25,up,up,0.5918722000001253,1.314344284146635,,psi_staircase_training,cRDM,,0.25,0.2569312402994632,0.105,316.786051,111,49,female,True
23,0.25,25,up,up,0.6423244000000068,0.8898093305612838,,psi_staircase_training,cRDM,,0.2191026665318312,0.2260132002683492,0.1046863203387393,318.5526153,111,49,female,True
24,0.21,25,down,up,0.6753945000000385,0.92967938893475,,psi_staircase_training,cRDM,,0.1900540959403307,0.1968497961554001,0.1029467298424999,320.4025295,111,49,female,True
25,0.32,25,down,down,0.4765262000000803,1.3142884446636165,,psi_staircase_training,cRDM,,0.2819387795981387,0.2893209636160949,0.1118312579561586,322.65245100000004,111,49,female,True
26,0.29,25,up,up,1.55781960000013,0.5251129548267895,,psi_staircase_training,cRDM,,0.259426876942127,0.2667634756990502,0.1111406957765679,323.91907609999987,111,49,female,True
27,0.27,25,down,down,0.8056332000001021,1.3648798348772415,,psi_staircase_training,cRDM,,0.238671950950526,0.2458822432686334,0.109227304305105,327.1022751,111,49,female,True
28,0.26,25,up,up,1.1514051999999992,1.3101887747906271,,psi_staircase_training,cRDM,,0.2201157802488951,0.2271739015591714,0.1069220955499697,329.48553030000005,111,49,female,True
29,0.24,25,down,down,1.4468160999999782,1.3262769748726568,,psi_staircase_training,cRDM,,0.2041505375414391,0.2110301411817813,0.1042177663775234,332.25207620000003,111,49,female,True
30,0.2,25,down,down,0.6989770999998655,0.6808388400799723,,psi_staircase_training,cRDM,,0.1888644554418269,0.1957080400193487,0.103672120658612,334.66893820000007,111,49,female,True
31,0.2,25,up,up,1.0900421999999708,1.8637004395860712,,psi_staircase_training,cRDM,,0.1705557926382123,0.1778497321889761,0.1104944598284255,337.5018947,111,49,female,True
32,0.19,25,down,down,0.6210704000000078,0.3549806675238021,,psi_staircase_training,cRDM,,0.1533088738836659,0.1608834185373759,0.1147452915030432,339.2018151000001,111,49,female,True
33,0.18,25,down,down,1.0118016999999782,0.9819962425335876,,psi_staircase_training,cRDM,,0.1374714623748278,0.1451964942842611,0.117024993427699,341.0851093,111,49,female,True
34,0.16,25,down,down,0.6537777999999435,1.09007199668863,,psi_staircase_training,cRDM,,0.1235084939531084,0.1312501447469713,0.1172767496487679,343.4681385,111,49,female,True
35,0.13,25,up,down,0.3671214000000873,1.7010949673467075,,psi_staircase_training,cRDM,,0.1110023859076282,0.118670920211633,0.1161691222828988,346.1015713999999,111,49,female,True
36,0.19,25,up,up,0.7434466999998222,1.3483614239813695,,psi_staircase_training,cRDM,,0.150543118945328,0.1585603425912709,0.1214513487418975,348.1514807,111,49,female,True
37,0.19,25,down,down,0.8354788999999982,1.1847415100877288,,psi_staircase_training,cRDM,,0.1393848187031004,0.1474030178901854,0.1214661270233444,350.35140190000004,111,49,female,True
38,0.18,25,down,down,0.6976013999999395,1.096578495902098,,psi_staircase_training,cRDM,,0.130221782189235,0.1381359893846421,0.1198907727354508,352.55130440000005,111,49,female,True
39,0.18,25,up,up,1.309253399999989,0.3513553008967031,,psi_staircase_training,cRDM,,0.1224242050503934,0.1301856484100916,0.1175765833470544,353.88463549999994,111,49,female,True
40,0.12,25,up,down,0.6654292000000623,0.985168168615362,,psi_staircase_training,cRDM,,0.1162001388229408,0.1237500636119895,0.1143723300015293,356.4345047999999,111,49,female,True
41,0.18,25,up,up,0.670134699999835,1.4383765323861368,,psi_staircase_training,cRDM,,0.1398694108873998,0.1464099957368906,0.0990820372004284,358.81774140000005,111,49,female,True
42,0.18,25,up,up,0.8639204999999492,1.583459460254134,,psi_staircase_training,cRDM,,0.1347572249650589,0.1409741239548829,0.0941785835908869,361.3509746000001,111,49,female,True
43,0.16,25,down,up,0.8286514000001262,1.1374173134444003,,psi_staircase_training,cRDM,,0.130978461022297,0.1368446125199288,0.0888651786173162,363.6342252999999,111,49,female,True
44,0.2,25,down,down,0.6071403999999347,1.5284018183922623,,psi_staircase_training,cRDM,,0.1505490187208542,0.1570468972251493,0.0984350871522699,366.2507872,111,49,female,True
45,0.19,25,down,down,0.626227199999903,1.5608848053862887,,psi_staircase_training,cRDM,,0.1465653940536679,0.1526933618571128,0.0928313824888653,368.7006250999999,111,49,female,True
46,0.19,25,up,down,0.663568400000031,1.6681559657919116,,psi_staircase_training,cRDM,,0.1434976224299093,0.1492478851878775,0.087109602827277,371.2673025,111,49,female,True
47,0.2,25,up,up,0.7237628999998833,0.9337162811023214,,psi_staircase_training,cRDM,,0.1580173025997304,0.1664082788236265,0.1271132532480969,373.1171188,111,49,female,True
48,0.2,25,down,up,1.094808300000068,1.7462872547765027,,psi_staircase_training,cRDM,,0.1519754470644749,0.1601948379197623,0.1245139401489232,375.8670744,111,49,female,True
49,0.21,25,down,down,0.5782202000000325,1.7014387532991415,,psi_staircase_training,cRDM,,0.1750892086144258,0.1843108023439022,0.1396961149464115,378.9336529000001,111,49,female,True
50,0.22,25,up,down,0.6632292000001598,1.2038047004622483,,psi_staircase_training,cRDM,,0.167747212514257,0.1769682616793424,0.1396878654472481,380.9836428,111,49,female,True
51,0.27,25,up,up,0.7046433000000434,0.7684959000823368,,psi_staircase_training,cRDM,,0.1934555362378116,0.2030124979167072,0.1447765382426214,382.7001823,111,49,female,True
52,100.0,25,M,up,0.6002840999999535,0.3347671730487833,,psi_staircase_training,emotion,,100.0,100.0,25.00050000000001,388.4166147,111,49,female,True
53,55.0,25,M,down,0.5589641000001393,1.4600583677974264,,psi_staircase_training,emotion,,54.7428094675419,54.7428094675419,25.00050000000011,390.8498825,111,49,female,True
54,79.0,25,F,up,0.6890453999999409,0.5280727278882329,,psi_staircase_training,emotion,,79.636070985635,79.636070985635,25.713269254886413,392.3498062,111,49,female,True
55,63.0,25,F,down,0.8247943999999734,1.6301992952801136,,psi_staircase_training,emotion,,62.16401670338348,62.16401670338348,25.292325986283885,395.0330319000001,111,49,female,True
56,73.0,25,M,down,0.5558942000000116,1.1007833903920143,,psi_staircase_training,emotion,,73.53930944190891,73.53930944190891,23.64975108561003,397.3329665,111,49,female,True
57,87.0,25,F,down,0.6089768000001641,1.082476137740478,,psi_staircase_training,emotion,,82.48355301883353,82.48355301883353,24.57617413513036,399.3328708,111,49,female,True
58,106.0,25,M,up,0.858027699999866,1.2087536935940013,,psi_staircase_training,emotion,,93.47321971198342,93.47321971198342,30.11570117720217,401.5327897000001,111,49,female,True
59,102.0,25,F,up,0.7080664999998589,0.4435653918479433,,psi_staircase_training,emotion,,87.30823528954795,87.30823528954795,27.7273534307992,403.1827502,111,49,female,True
60,68.0,25,F,down,1.1095514999999525,0.397464393789012,,psi_staircase_training,emotion,,83.44475538654902,83.44475538654902,25.68608228109167,404.6662646000001,111,49,female,True
61,97.0,25,M,up,0.8369226999998318,1.9701360756715784,,psi_staircase_training,emotion,,86.24064723047101,86.24064723047101,23.877520687671712,408.11589190000007,111,49,female,True
62,69.0,25,F,down,0.9681230000001052,1.660787552765455,,psi_staircase_training,emotion,,83.31054953894326,83.31054953894326,21.89311654377176,410.9657171,111,49,female,True
63,93.0,25,F,up,0.6508689999998296,1.6479750535609845,,psi_staircase_training,emotion,,85.20766704325236,85.20766704325236,20.06113658216017,413.9489864000001,111,49,female,True
64,70.0,25,F,down,0.761243999999806,1.43083675395545,,psi_staircase_training,emotion,,82.88727415078608,82.88727415078608,18.3348958165015,416.41558670000006,111,49,female,True
65,89.0,25,M,down,0.8955980999999156,1.7869136183336771,,psi_staircase_training,emotion,,84.20415442562094,84.20415442562094,16.641291449904475,419.3321316999999,111,49,female,True
66,102.0,25,M,up,0.7827391999999236,0.3010731896056987,,psi_staircase_training,emotion,,87.80195769422107,87.80195769422107,18.9660519966083,420.88205460000006,111,49,female,True
67,100.0,25,F,up,0.8488623999999163,0.9027337666836062,,psi_staircase_training,emotion,,86.56466274999235,86.56466274999235,17.107819279847828,422.9319715,111,49,female,True
68,87.0,25,F,up,0.5649151000000074,0.7808923818782383,,psi_staircase_training,emotion,,85.67806124803668,85.67806124803668,15.555323292985092,424.9318964999999,111,49,female,True
69,71.0,25,M,down,0.6106625999998414,1.0548178511896942,,psi_staircase_training,emotion,,83.61028851935964,83.61028851935964,16.105077377176364,426.91515160000006,111,49,female,True
70,72.0,25,M,down,0.6259601000001567,0.6459290706178701,,psi_staircase_training,emotion,,84.51460375511708,84.51460375511708,14.70407724750157,428.53176900000005,111,49,female,True
71,97.0,25,M,down,0.6156020000000808,1.9440163328436495,,psi_staircase_training,emotion,,85.19653261380074,85.19653261380074,13.549226397119156,431.4652514999999,111,49,female,True
72,106.0,25,M,down,0.8885614000000714,0.7078835035133102,,psi_staircase_training,emotion,,87.94253214660034,87.94253214660034,18.321589451611413,433.1482462999999,111,49,female,True
73,114.0,25,F,up,0.5846266999999443,1.082184817996776,,psi_staircase_training,emotion,,91.46891283103776,91.46891283103776,25.20893859824534,435.4982002999999,111,49,female,True
74,113.0,25,F,up,0.4953516000000491,1.0018803793655553,,psi_staircase_training,emotion,,90.53404799790138,90.53404799790138,23.813463763960307,437.4314204000001,111,49,female,True
75,112.0,25,F,up,0.5714084000001094,0.3874273295213414,,psi_staircase_training,emotion,,89.78965741269378,89.78965741269378,22.556022796584983,438.6813911,111,49,female,True
76,68.0,25,M,down,0.6564631999999619,1.7202153538719795,,psi_staircase_training,emotion,,89.1914247026892,89.1914247026892,21.42799805924928,441.3312950999999,111,49,female,True
77,111.0,25,M,up,0.7585311000000274,1.0983296518439194,,psi_staircase_training,emotion,,89.76208598406083,89.76208598406083,20.358620265374068,443.4312154999999,111,49,female,True
78,70.0,25,F,down,0.721984300000031,0.359685244734546,,psi_staircase_training,emotion,,89.27630278493217,89.27630278493217,19.38043754911831,444.8978040999999,111,49,female,True
79,109.0,25,F,up,1.193323400000054,0.3846022239198484,,psi_staircase_training,emotion,,89.77760484702503,89.77760484702503,18.4475566430171,446.4144373999999,111,49,female,True
80,72.0,25,M,down,0.6670864000000165,0.8007472258193777,,psi_staircase_training,emotion,,89.35029477187035,89.35029477187035,17.60913705785465,448.7476532,111,49,female,True
81,73.0,25,M,down,0.7754862000001594,0.761737655018639,,psi_staircase_training,emotion,,89.80470482793447,89.80470482793447,16.813370567268414,450.5142735999999,111,49,female,True
82,0.29,25,up,up,0.7706314000001839,1.6108170747918555,,psi_staircase,cRDM,,0.25,0.2569312402994632,0.105,462.3471285,111,49,female,True
83,0.25,25,up,up,0.8473293000001831,1.6501014503359697,,psi_staircase,cRDM,,0.2191026665318312,0.2260132002683492,0.1046863203387393,465.0304052,111,49,female,True
84,0.21,25,down,down,0.6224727999999686,0.6381918624160037,,psi_staircase,cRDM,,0.1900540959403307,0.1968497961554001,0.1029467298424999,466.7803249,111,49,female,True
85,0.18,25,down,down,1.2299556000000391,1.581741866793241,,psi_staircase,cRDM,,0.1635257589279754,0.1701521334256793,0.1003816477568649,469.2467731999999,111,49,female,True
86,0.15,25,up,up,0.7126241000000846,0.6865338558844605,,psi_staircase,cRDM,,0.1401895574244936,0.1466013351187503,0.0971307628663642,471.4301339,111,49,female,True
87,0.13,25,down,up,1.011545599999863,0.550318917926492,,psi_staircase,cRDM,,0.1198760602145479,0.1260554767618333,0.0936107694196103,472.9632191,111,49,female,True
88,0.21,25,up,down,0.8597686999999041,0.7311088330993462,,psi_staircase,cRDM,,0.1822197442013377,0.1893568545454257,0.1081186849325176,474.980021,111,49,female,True
89,0.31,25,down,down,0.974141500000087,0.302990718892824,,psi_staircase,cRDM,,0.2578325595776454,0.2659708713261456,0.1232856886607567,476.3966104,111,49,female,True
90,0.28,25,down,down,0.7116054999999051,1.2196373015098128,,psi_staircase,cRDM,,0.2374850205332603,0.2455811113209631,0.1226460916056582,478.8631316,111,49,female,True
91,0.26,25,up,up,0.7123501999999462,1.9039424024395504,,psi_staircase,cRDM,,0.2191550730521252,0.2271473713400003,0.1210737593806786,481.7463895,111,49,female,True
92,0.25,25,down,down,0.6364799000000403,0.440956141238858,,psi_staircase,cRDM,,0.2029799814349386,0.2108502760434667,0.1192255495685884,483.1632704,111,49,female,True
93,0.2,25,down,up,1.199487599999884,1.6914261808862956,,psi_staircase,cRDM,,0.1891193598581445,0.1968473813665315,0.1170702822759534,485.7462598000001,111,49,female,True
94,0.27,25,down,down,0.5682693999999628,1.6770642931735036,,psi_staircase,cRDM,,0.2320437316454333,0.2389767487037409,0.1050269157712893,488.8794437,111,49,female,True
95,0.26,25,up,up,1.3883023999999295,0.9578513834014806,,psi_staircase,cRDM,,0.2209798612517652,0.2275562420964129,0.0996243037110518,490.6794302,111,49,female,True
96,0.24,25,up,down,0.7154320000001917,1.0003823555487072,,psi_staircase,cRDM,,0.2121465680135148,0.2183676594306963,0.0942420938507411,493.3292766999999,111,49,female,True
97,0.28,25,down,down,0.6445730999998887,1.906640621819253,,psi_staircase,cRDM,,0.2474145990389799,0.2542566160515997,0.1036483739253291,496.2291835,111,49,female,True
98,0.28,25,down,down,0.509974899999861,1.400282178764436,,psi_staircase,cRDM,,0.2379412007559059,0.244364437075417,0.0973043473331735,498.5457427,111,49,female,True
99,0.28,25,up,up,0.7160453999999845,1.2928783181918833,,psi_staircase,cRDM,,0.2308591505128104,0.2368465212178886,0.0907015046184295,500.5956829,111,49,female,True
100,0.27,25,up,down,0.9021060000000034,1.616743591058587,,psi_staircase,cRDM,,0.225778428606939,0.2313354412931067,0.0841820953881506,503.1956056,111,49,female,True
101,0.3,25,up,up,0.9011981999999534,0.93071672460614,,psi_staircase,cRDM,,0.252742700200415,0.2609971980490508,0.1250457691062702,505.2955145,111,49,female,True
102,0.3,25,up,down,0.6533575999999357,1.9431654073719469,,psi_staircase,cRDM,,0.2437999398907113,0.2517446568846077,0.1203529596894388,508.3953728999999,111,49,female,True
103,0.35,25,down,down,1.082090899999912,1.60983734045631,,psi_staircase,cRDM,,0.2817804800341085,0.291541869128898,0.1478733690754116,510.9286154,111,49,female,True
104,0.33,25,down,down,0.972130800000059,0.3529592264417328,,psi_staircase,cRDM,,0.271220646950558,0.2809041433557057,0.1466933879956886,512.6285626,111,49,female,True
105,0.32,25,down,down,0.898201699999845,0.7574024794180305,,psi_staircase,cRDM,,0.2614713512495066,0.271047802573882,0.1450717830598479,514.6284813999999,111,49,female,True
106,0.3,25,up,up,0.8023274000001948,1.3912974318423228,,psi_staircase,cRDM,,0.2527153481352264,0.2621588158309039,0.1430572401483367,517.1783684999999,111,49,female,True
107,0.29,25,up,up,1.0994880999999168,1.3025377663629487,,psi_staircase,cRDM,,0.2444690151104898,0.2537839585513459,0.1411102514171414,519.5452082,111,49,female,True
108,0.29,25,down,down,0.6707946999999876,1.8958727743751744,,psi_staircase,cRDM,,0.2369276087385346,0.2461076106597803,0.1390660488001608,522.7948665,111,49,female,True
109,0.29,25,down,down,0.7161611999999877,0.9161808574593217,,psi_staircase,cRDM,,0.230357609993534,0.2393724934007567,0.1365647008128813,524.6445438,111,49,female,True
110,0.29,25,up,up,0.6116294000000835,0.854147140229101,,psi_staircase,cRDM,,0.2246901647588474,0.2335160818361605,0.1337020869395682,526.4780523000001,111,49,female,True
111,0.23,25,up,up,0.952036100000214,1.8908802664260285,,psi_staircase,cRDM,,0.2198517380243425,0.2284697553803162,0.1305526548325425,529.2446199,111,49,female,True
112,0.23,25,down,down,0.6381822999999258,1.0874409409671388,,psi_staircase,cRDM,,0.2115782631137543,0.2205776814536324,0.1363304235405569,531.5445007,111,49,female,True
113,0.23,25,up,up,0.7872403999999733,1.5377749707922184,,psi_staircase,cRDM,,0.2036853798253108,0.2129733002957291,0.1407008857374982,533.9944313,111,49,female,True
114,0.23,25,down,down,0.9250276999998732,1.5825380187141824,,psi_staircase,cRDM,,0.1962707126404868,0.2057691390098111,0.1438897983173788,536.62766,111,49,female,True
115,0.21,25,up,up,0.7287644000000455,0.4880320941991482,,psi_staircase,cRDM,,0.1893660477950116,0.1990126645967413,0.1461347061160266,538.3109066999999,111,49,female,True
116,0.2,25,down,down,0.7639830000000529,0.6607398353734646,,psi_staircase,cRDM,,0.1822159349082928,0.1920600327864148,0.1491263082139655,539.9606822,111,49,female,True
117,0.2,25,up,up,1.111654600000065,1.6697360971192594,,psi_staircase,cRDM,,0.1751821685366125,0.1852085729447461,0.1518880340846865,542.6610142999999,111,49,female,True
118,0.19,25,down,down,0.4777839999999287,1.3371620501193513,,psi_staircase,cRDM,,0.16849330907102,0.1786633248813645,0.1540635750529187,545.3609101000001,111,49,female,True
119,0.19,25,up,up,0.934376200000088,0.9745607186224792,,psi_staircase,cRDM,,0.161894127805635,0.1721992355601722,0.1561100564223981,547.0772800999999,111,49,female,True
120,0.18,25,up,down,0.749453399999993,0.8842470006308283,,psi_staircase,cRDM,,0.1556018519918428,0.1660168323642833,0.1577744951637208,549.1772013000001,111,49,female,True
121,0.22,25,down,up,1.3669451000000663,0.475616025928462,,psi_staircase,cRDM,,0.1750942081745459,0.1851728315430836,0.1526790888751049,550.6607227999999,111,49,female,True
122,0.22,25,down,down,0.6415947000000415,1.5885304247739305,,psi_staircase,cRDM,,0.1945704664893219,0.2044567894686282,0.1497659679909743,553.877022,111,49,female,True
123,0.21,25,down,down,0.7016338999999334,1.18960205710853,,psi_staircase,cRDM,,0.1889002678932388,0.1988927546486958,0.1513742222159347,555.9600400999999,111,49,female,True
124,0.21,25,up,up,0.7171226000000388,1.316718279918611,,psi_staircase,cRDM,,0.1832842739190656,0.193384584471861,0.1530076237763176,558.2434883,111,49,female,True
125,0.2,25,up,up,0.7417563999999857,0.337314194987672,,psi_staircase,cRDM,,0.1779137443490349,0.1881007713280272,0.1543212739106769,559.5598733999999,111,49,female,True
126,0.19,25,down,up,0.860640500000045,1.954953277068584,,psi_staircase,cRDM,,0.1725510088576702,0.1828304186752628,0.1557207634152877,562.5099985,111,49,female,True
127,0.25,25,down,down,0.667731300000014,1.0862958030314744,,psi_staircase,cRDM,,0.1887477105110043,0.1987306902153113,0.151230201762506,564.7099107999999,111,49,female,True
128,0.2,25,down,down,0.75513490000003,1.6382686707577274,,psi_staircase,cRDM,,0.1847570595263929,0.1947181449682169,0.1508985298738694,567.2764920999999,111,49,female,True
129,0.19,25,up,up,0.8061149000000114,0.5895221151378647,,psi_staircase,cRDM,,0.1797568872938177,0.1898189253512225,0.1524278412493246,568.8764729999999,111,49,female,True
130,0.18,25,up,up,0.7302695000000767,0.3278860887400405,,psi_staircase,cRDM,,0.1747275922084202,0.1848972214377839,0.1540577188134532,570.2763762999999,111,49,female,True
131,0.17,25,up,down,1.3402941000001647,1.2445947817339635,,psi_staircase,cRDM,,0.1696524714224441,0.1799362703979999,0.1557872539085066,572.5263037000001,111,49,female,True
132,100.0,25,M,up,1.4448863000000074,0.6902489466122702,,psi_staircase,emotion,,100.0,100.0,25.00050000000001,578.3927256000001,111,49,female,True
133,55.0,25,M,down,0.6656687999998212,0.3933147208986331,,psi_staircase,emotion,,54.7428094675419,54.7428094675419,25.00050000000011,580.5759766,111,49,female,True
134,79.0,25,F,up,0.7110241999998834,1.2025906589826871,,psi_staircase,emotion,,79.636070985635,79.636070985635,25.713269254886413,582.7925690999999,111,49,female,True
135,63.0,25,F,up,0.6334629000000405,1.3948515066239946,,psi_staircase,emotion,,62.16401670338348,62.16401670338348,25.292325986283885,585.2591495999999,111,49,female,True
136,46.0,25,M,down,0.495303100000001,1.2190464239399386,,psi_staircase,emotion,,49.95706999829706,49.95706999829706,27.05499044974309,587.4922981999999,111,49,female,True
137,51.0,25,F,down,0.6319326000000274,1.599222783125983,,psi_staircase,emotion,,58.26662899858864,58.26662899858864,23.997705832462845,589.9756289999999,111,49,female,True
138,67.0,25,M,down,1.0083835000000363,1.9270904247432965,,psi_staircase,emotion,,63.29425671754329,63.29425671754329,21.21474996822986,592.8922257,111,49,female,True
139,83.0,25,F,down,0.8231350999999449,0.8338036805124729,,psi_staircase,emotion,,71.29232787585137,71.29232787585137,26.36044441486173,595.0754526,111,49,female,True
140,98.0,25,F,up,0.9281538999998702,0.6757629536087344,,psi_staircase,emotion,,80.78650885710547,80.78650885710547,31.92472786580248,596.9253699,111,49,female,True
141,95.0,25,M,up,0.5156005999999707,0.3965627837671396,,psi_staircase,emotion,,76.63859547651717,76.63859547651717,30.19425812854417,598.5919656,111,49,female,True
142,93.0,25,F,down,1.7110120999998344,1.5500505802994502,,psi_staircase,emotion,,73.5983608381915,73.5983608381915,28.64575875724076,601.0085499999999,111,49,female,True
143,103.0,25,F,up,0.6958721999999398,1.8986471222771504,,psi_staircase,emotion,,80.582967201627,80.582967201627,32.84856626413523,604.9917151999999,111,49,female,True
144,56.0,25,F,down,0.8863033000000087,1.2683618852748149,,psi_staircase,emotion,,78.19671617200093,78.19671617200093,31.69359522825419,607.3082949999999,111,49,female,True
145,104.0,25,M,down,0.662023999999974,1.3053002194134002,,psi_staircase,emotion,,80.25917000057183,80.25917000057183,30.569175006163626,609.8415289000001,111,49,female,True
146,111.0,25,M,up,0.6851380000000518,1.7442667148081288,,psi_staircase,emotion,,86.50202751040248,86.50202751040248,34.83257493633612,612.5914366000001,111,49,female,True
147,110.0,25,F,up,0.7252719000000525,1.9900728862371488,,psi_staircase,emotion,,84.4824327709645,84.4824327709645,33.86438586935273,615.6413016999999,111,49,female,True
148,58.0,25,F,down,0.6889957000000777,1.2045121055565338,,psi_staircase,emotion,,82.79650384680716,82.79650384680716,32.947051476724575,617.9245771,111,49,female,True
149,111.0,25,M,up,1.6444298999999774,0.7173349718850519,,psi_staircase,emotion,,84.36087929914218,84.36087929914218,32.012196430110166,619.6580880999999,111,49,female,True
150,58.0,25,M,down,0.6895104999998694,1.6549794823577624,,psi_staircase,emotion,,83.02704157358458,83.02704157358458,31.05471215675013,623.2910166999999,111,49,female,True
151,111.0,25,M,up,0.922692300000108,1.3543692690772704,,psi_staircase,emotion,,84.31469734713272,84.31469734713272,30.081975956133636,625.6578667,111,49,female,True
152,59.0,25,M,down,0.4903798999998798,1.1757553490147905,,psi_staircase,emotion,,83.22406147774547,83.22406147774547,29.11331992592064,628.1241687999999,111,49,female,True
153,110.0,25,F,up,0.750443099999984,1.4544684661326035,,psi_staircase,emotion,,84.32655378994858,84.32655378994858,28.130887509661605,630.4240864,111,49,female,True
154,60.0,25,F,down,0.5749005999998644,1.335730057856371,,psi_staircase,emotion,,83.3997674908909,83.3997674908909,27.174900867194754,632.8576171000001,111,49,female,True
155,109.0,25,F,up,0.7539854000001469,1.7937796196484646,,psi_staircase,emotion,,84.35054692638747,84.35054692638747,26.214204846666608,635.5905566,111,49,female,True
156,61.0,25,M,down,0.5581452999999783,1.2096346237703686,,psi_staircase,emotion,,83.55910391871522,83.55910391871522,25.300883652569247,637.9404470999999,111,49,female,True
157,63.0,25,M,down,0.925824000000148,1.832402249148,,psi_staircase,emotion,,84.38678165385308,84.38678165385308,24.38962358995545,640.6736984999999,111,49,female,True
158,108.0,25,F,up,0.7642373000001044,1.1314931755098612,,psi_staircase,emotion,,85.14969670913669,85.14969670913669,23.54303753062187,643.0902697999999,111,49,female,True
159,65.0,25,F,down,0.6789835999998104,0.3795757828812667,,psi_staircase,emotion,,84.47041281422028,84.47041281422028,22.69246511552619,644.5735427999999,111,49,female,True
160,106.0,25,M,up,0.6487707000001137,0.8913223865569866,,psi_staircase,emotion,,85.18867981875611,85.18867981875611,21.907865593910756,646.5067938999999,111,49,female,True
161,67.0,25,M,down,0.6572060999999394,1.7764255018600588,,psi_staircase,emotion,,84.56590253110406,84.56590253110406,21.13759046813004,649.2733976000001,111,49,female,True
162,105.0,25,F,up,0.8825775999998768,0.8041000471744775,,psi_staircase,emotion,,85.25656332752166,85.25656332752166,20.420214383430714,651.0899251,111,49,female,True
163,70.0,25,M,down,0.5899772000000212,1.8934362384953236,,psi_staircase,emotion,,84.70595675640897,84.70595675640897,19.738871105722087,654.2065335000001,111,49,female,True
164,72.0,25,F,down,0.6628219000001536,1.6134397230814368,,psi_staircase,emotion,,85.42543344577034,85.42543344577034,19.087514588117607,656.756671,111,49,female,True
165,74.0,25,M,down,1.2798316000000796,1.1496245710542032,,psi_staircase,emotion,,86.14053491268099,86.14053491268099,18.48415954721463,658.9396665,111,49,female,True
166,76.0,25,F,down,0.6152576000001773,1.1902880057751009,,psi_staircase,emotion,,86.86139870367009,86.86139870367009,17.920973938995495,661.7562271,111,49,female,True
167,77.0,25,M,up,0.6197511000000304,0.7203493738823765,,psi_staircase,emotion,,87.596268320345,87.596268320345,17.39016230814581,663.4397542999999,111,49,female,True
168,104.0,25,F,up,0.6977790999999343,1.4595248792827331,,psi_staircase,emotion,,85.68592388191064,85.68592388191064,18.799032325347063,665.8727224,111,49,female,True
169,103.0,25,M,up,0.7444431999999779,0.6483593228071944,,psi_staircase,emotion,,85.21067274210968,85.21067274210968,18.198012525036223,667.556011,111,49,female,True
170,101.0,25,M,up,0.508583999999928,1.0240641773647263,,psi_staircase,emotion,,84.77559556912213,84.77559556912213,17.658396288616252,669.7059174,111,49,female,True
171,69.0,25,F,down,0.8274311999998645,0.5752707009678348,,psi_staircase,emotion,,84.34210315773035,84.34210315773035,17.165378717669945,671.1390668,111,49,female,True
172,100.0,25,F,down,1.117711399999962,1.902646473230571,,psi_staircase,emotion,,84.76068408765683,84.76068408765683,16.718287695627186,674.2057728999999,111,49,female,True
173,106.0,25,F,up,0.7642051999998785,0.9754657432404396,,psi_staircase,emotion,,86.57035822938555,86.57035822938555,18.64616398751713,676.6392554999999,111,49,female,True
174,69.0,25,M,down,0.7249025999999503,0.7447884114143266,,psi_staircase,emotion,,86.23954000803953,86.23954000803953,18.175499313199257,678.5055891000001,111,49,female,True
175,70.0,25,M,down,0.7292512999999872,0.7085191722403261,,psi_staircase,emotion,,86.6098400096286,86.6098400096286,17.727431205204997,680.2721923999999,111,49,female,True
176,105.0,25,F,up,0.7800554000000375,1.7431821802281091,,psi_staircase,emotion,,86.96746336663267,86.96746336663267,17.310411294023822,683.1054000999999,111,49,female,True
177,72.0,25,F,down,0.7121552000000975,1.4602158168175496,,psi_staircase,emotion,,86.65990371491512,86.65990371491512,16.91128096429202,685.7053248999999,111,49,female,True
178,73.0,25,F,down,0.7295802999999523,1.0170587408580796,,psi_staircase,emotion,,87.03709776680654,87.03709776680654,16.529849832272966,687.7718879,111,49,female,True
179,74.0,25,M,down,0.6726942999998755,1.8721590419597,,psi_staircase,emotion,,87.40800414385733,87.40800414385733,16.17045117341838,690.7217767999999,111,49,female,True
180,104.0,25,M,down,0.7987942999998268,0.8680953184447282,,psi_staircase,emotion,,87.77525360508862,87.77525360508862,15.83000027384682,692.6217097,111,49,female,True
181,109.0,25,M,down,1.3885109999998804,1.7432474803227411,,psi_staircase,emotion,,89.30134804512892,89.30134804512892,17.61610300572166,695.5049484,111,49,female,True
182,0.1835315015274117,25,down,down,1.3931139999999689,1.4120320902015504,,experiment,cRDM,0.0,,,,721.6872913999999,111,49,female,True
183,0.1835315015274117,25,up,up,0.8738620999999966,0.4664328379487389,,experiment,cRDM,0.0,,,,723.8205552000001,111,49,female,True
184,0.1835315015274117,25,down,up,1.0203080000001137,0.8301302880475916,,experiment,cRDM,0.0,,,,725.7871142,111,49,female,True
185,0.1835315015274117,25,up,up,0.7434087999999974,1.1661826353340925,,experiment,cRDM,0.0,,,,728.2370319999999,111,49,female,True
186,0.1835315015274117,25,down,up,1.0527534000000287,1.1700462428768548,,experiment,cRDM,0.0,,,,730.4036017,111,49,female,True
187,0.1835315015274117,25,down,down,0.7155401999998503,1.466530680410218,,experiment,cRDM,0.0,,,,733.1868387999999,111,49,female,True
188,0.1835315015274117,25,up,down,0.8862910000000284,0.8565378274245938,,experiment,cRDM,0.0,,,,735.0200928,111,49,female,True
189,0.1835315015274117,25,down,up,1.191762800000106,0.4891720787646143,,experiment,cRDM,0.0,,,,736.6536336,111,49,female,True
190,0.1835315015274117,25,up,up,1.0434548000000632,1.2152480302527464,,experiment,cRDM,0.0,,,,739.3199203,111,49,female,True
191,0.1835315015274117,25,up,up,0.7522692000000006,0.921839908908734,,experiment,cRDM,0.0,,,,741.5530935,111,49,female,True
192,0.1835315015274117,25,down,down,0.6774179999999888,1.6873388833059528,,experiment,cRDM,0.0,,,,744.2529566,111,49,female,True
193,0.1835315015274117,25,up,up,0.9540749999998752,1.3493851649684363,,experiment,cRDM,0.0,,,,746.5532738999999,111,49,female,True
194,0.1835315015274117,25,up,down,1.5725718999999572,1.4809664967777223,,experiment,cRDM,0.0,,,,749.2528171,111,49,female,True
195,0.1835315015274117,25,up,up,0.7246026000000256,0.9216757888797704,,experiment,cRDM,0.0,,,,752.0027744999999,111,49,female,True
196,0.1835315015274117,25,down,up,0.9129198000000542,0.3673797668262891,,experiment,cRDM,0.0,,,,753.369429,111,49,female,True
197,0.1835315015274117,25,down,down,0.690947000000051,0.6294188122903264,,experiment,cRDM,0.0,,,,755.1693666,111,49,female,True
198,0.1835315015274117,25,up,up,0.933750999999802,0.3860159570185775,,experiment,cRDM,0.0,,,,756.502627,111,49,female,True
199,0.1835315015274117,25,up,down,0.8721648000000641,1.6356875910494832,,experiment,cRDM,0.0,,,,759.3191817000001,111,49,female,True
200,0.1835315015274117,25,down,up,0.722579499999938,0.5603205331485693,,experiment,cRDM,0.0,,,,761.0357714,111,49,female,True
201,0.1835315015274117,25,down,down,0.6446943999999348,0.3185733988369834,,experiment,cRDM,0.0,,,,762.3357230999999,111,49,female,True
202,0.1835315015274117,25,up,up,0.7558676000001014,1.1847352397534543,,experiment,cRDM,0.0,,,,764.4354734,111,49,female,True
203,0.1835315015274117,25,down,down,0.6640962000001309,0.3488212158601162,,experiment,cRDM,0.0,,,,765.8022700999999,111,49,female,True
204,0.1835315015274117,25,up,up,0.741552300000194,0.8979628787256155,,experiment,cRDM,0.0,,,,767.6357687999999,111,49,female,True
205,0.1835315015274117,25,down,up,1.1301115000001118,1.5005345749432155,,experiment,cRDM,0.0,,,,770.1352502999999,111,49,female,True
206,0.1835315015274117,25,down,down,0.6282975999999962,0.8396875841132336,,experiment,cRDM,0.0,,,,772.3520445,111,49,female,True
207,0.1835315015274117,25,up,down,0.6657405999999355,0.423643964932533,,experiment,cRDM,0.0,,,,773.6686195000001,111,49,female,True
208,0.1835315015274117,25,up,down,0.4685432999999648,1.1528881015673538,,experiment,cRDM,0.0,,,,775.7518065,111,49,female,True
209,0.1835315015274117,25,down,down,0.7287092999999913,1.4805818747926311,,experiment,cRDM,0.0,,,,777.9516600999999,111,49,female,True
210,0.1835315015274117,25,up,up,0.5663917000001675,1.7457236946147292,,experiment,cRDM,0.0,,,,780.6850243,111,49,female,True
211,0.1835315015274117,25,down,down,0.5814631999999165,0.5175842564468396,,experiment,cRDM,0.0,,,,782.0348846,111,49,female,True
212,0.1835315015274117,25,up,down,0.6724162000000433,1.1082394663042248,,experiment,cRDM,0.0,,,,783.9849029000001,111,49,female,True
213,0.1835315015274117,25,down,down,0.684181899999885,1.5516852469097984,,experiment,cRDM,0.0,,,,786.4681340000001,111,49,female,True
214,0.1835315015274117,25,up,up,1.3209517999998752,1.6908122601143891,,experiment,cRDM,0.0,,,,789.1013746,111,49,female,True
215,0.1835315015274117,25,down,down,0.5973605000001498,0.6782728355243048,,experiment,cRDM,0.0,,,,791.3679741,111,49,female,True
216,0.1835315015274117,25,up,up,1.0704708000000664,0.8845298493360021,,experiment,cRDM,0.0,,,,793.1178667999999,111,49,female,True
217,0.1835315015274117,25,down,down,0.6495728999998391,1.573290465929012,,experiment,cRDM,0.0,,,,796.0178084999999,111,49,female,True
218,0.1835315015274117,25,up,down,1.4622768000001545,0.5794242914444139,,experiment,cRDM,0.0,,,,797.5010470999999,111,49,female,True
219,0.1835315015274117,25,down,down,0.7033421000000999,0.5651044267419727,,experiment,cRDM,0.0,,,,799.8009633999999,111,49,female,True
220,0.1835315015274117,25,up,,,1.1112271560032665,,experiment,cRDM,0.0,,,,801.8842168,111,49,female,True
221,0.1835315015274117,25,down,down,0.9455538999998224,1.693533636258623,,experiment,cRDM,0.0,,,,806.2507566,111,49,female,True
222,0.1835315015274117,25,down,down,0.6353283000000829,1.8181136263201445,,experiment,cRDM,0.0,,,,809.2839428999999,111,49,female,True
223,0.1835315015274117,25,up,up,2.218764199999896,1.832099258689956,,experiment,cRDM,0.0,,,,812.0005156999999,111,49,female,True
224,0.1835315015274117,25,down,down,0.6642225000000508,0.4957920604574043,,experiment,cRDM,0.0,,,,814.9670622,111,49,female,True
225,0.1835315015274117,25,up,up,0.9153344999999716,1.9205186720688452,,experiment,cRDM,0.0,,,,817.8169604999999,111,49,female,True
226,0.1835315015274117,25,up,up,0.9609712000001308,1.135679175842286,,experiment,cRDM,0.0,,,,820.1333077999999,111,49,female,True
227,0.1835315015274117,25,down,down,0.7124765000000934,0.4058262905691032,,experiment,cRDM,0.0,,,,821.7667906,111,49,female,True
228,0.1835315015274117,25,down,down,0.7870035000000826,1.0032688481151968,,experiment,cRDM,0.0,,,,823.7332659,111,49,female,True
229,0.1835315015274117,25,up,up,0.7526073000001361,0.4274616774828359,,experiment,cRDM,0.0,,,,825.2166576999999,111,49,female,True
230,0.1835315015274117,25,down,down,0.802784900000006,1.2306940666522102,,experiment,cRDM,0.0,,,,827.4664858,111,49,female,True
231,0.1835315015274117,25,up,up,0.5877470000000358,0.8900049329388231,,experiment,cRDM,0.0,,,,829.4165155,111,49,female,True
232,0.1835315015274117,25,up,up,0.9058504999998148,1.6902084504640078,,experiment,cRDM,0.0,,,,831.9664039999999,111,49,female,True
233,0.1835315015274117,25,up,up,0.8679505999998582,1.331868532717271,,experiment,cRDM,0.0,,,,834.4663047,111,49,female,True
234,0.1835315015274117,25,up,up,0.7320355000001655,1.1255263077557334,,experiment,cRDM,0.0,,,,836.7162176999999,111,49,female,True
235,0.1835315015274117,25,up,up,0.7668602000001101,1.6999823076279783,,experiment,cRDM,0.0,,,,839.3994710000001,111,49,female,True
236,0.1835315015274117,25,down,down,0.4898634999999558,1.6164456504513822,,experiment,cRDM,0.0,,,,842.0493929999999,111,49,female,True
237,0.1835315015274117,25,down,down,0.6389357999998992,1.093632151966546,,experiment,cRDM,0.0,,,,843.8992916000001,111,49,female,True
238,0.1835315015274117,25,down,down,0.7023685999999998,0.519999194396977,,experiment,cRDM,0.0,,,,845.3158964999999,111,49,female,True
239,0.1835315015274117,25,up,down,1.7707413000000545,1.0078796722509074,,experiment,cRDM,0.0,,,,847.2824955,111,49,female,True
240,0.1835315015274117,25,down,down,0.7492108000001281,1.2869148959817622,,experiment,cRDM,0.0,,,,850.5990275,111,49,female,True
241,0.1835315015274117,25,down,down,0.6630652999999711,1.511496433539249,,experiment,cRDM,0.0,,,,853.1321687999999,111,49,female,True
242,0.1835315015274117,25,down,up,1.1460541000001283,1.7258964319706662,,experiment,cRDM,0.0,,,,855.7821888,111,49,female,True
243,0.1835315015274117,25,up,down,1.6443589999998949,1.2485692634536196,,experiment,cRDM,0.0,,,,858.4318658999999,111,49,female,True
244,0.1835315015274117,25,down,down,0.8729992999999467,1.690467027421148,,experiment,cRDM,0.0,,,,862.0152592000001,111,49,female,True
245,0.1835315015274117,25,up,down,0.6797447000001284,1.751739072314517,,experiment,cRDM,0.0,,,,864.8984839000001,111,49,female,True
246,0.1835315015274117,25,up,up,1.1905905000000985,0.8957742544204816,,experiment,cRDM,0.0,,,,866.7316196,111,49,female,True
247,0.1835315015274117,25,down,down,0.7801771999997982,1.1784773108312063,,experiment,cRDM,0.0,,,,869.3650067,111,49,female,True
248,0.1835315015274117,25,up,up,0.7678461999998945,1.5374161788744314,,experiment,cRDM,0.0,,,,871.9313931,111,49,female,True
249,0.1835315015274117,25,down,down,0.6683671999999206,1.3968647420516005,,experiment,cRDM,0.0,,,,874.3648403999999,111,49,female,True
250,0.1835315015274117,25,up,up,0.9615316000001712,1.9654185886138391,,experiment,cRDM,0.0,,,,877.2646922,111,49,female,True
251,0.1835315015274117,25,down,down,0.6051763000000392,0.9556758492096492,,experiment,cRDM,0.0,,,,879.4479903,111,49,female,True
252,0.1835315015274117,25,up,up,0.6251473999998325,1.4358577513449444,,experiment,cRDM,0.0,,,,881.7310446,111,49,female,True
253,0.1835315015274117,25,down,down,0.5187468000001445,1.1422104675935645,,experiment,cRDM,0.0,,,,883.7644446,111,49,female,True
254,0.1835315015274117,25,down,down,0.7514550999999301,0.8962104561317015,,experiment,cRDM,0.0,,,,885.447738,111,49,female,True
255,0.1835315015274117,25,down,down,0.6829109000000244,1.2979803162780286,,experiment,cRDM,0.0,,,,887.7642976999999,111,49,female,True
256,0.1835315015274117,25,down,down,0.6419898999999987,0.5920692842666092,,experiment,cRDM,0.0,,,,889.3142251999999,111,49,female,True
257,0.1835315015274117,25,down,down,0.6250582000000122,1.6013426243237538,,experiment,cRDM,0.0,,,,891.8141254000001,111,49,female,True
258,0.1835315015274117,25,up,up,1.2198320999998489,1.900877171975404,,experiment,cRDM,0.0,,,,894.5973436999999,111,49,female,True
259,0.1835315015274117,25,up,up,0.8247410999999829,1.138025007210843,,experiment,cRDM,0.0,,,,897.2304651000001,111,49,female,True
260,0.1835315015274117,25,up,up,0.6202901999999995,0.5956200165539458,,experiment,cRDM,0.0,,,,898.9138663,111,49,female,True
261,0.1835315015274117,25,up,up,0.8604271000001518,1.364784099387854,,experiment,cRDM,0.0,,,,901.1637697,111,49,female,True
262,98.0,25,M,down,0.7769376000001103,1.6709401602616554,,experiment,emotion,0.0,,,,906.9802259,111,49,female,True
263,83.0,25,M,down,0.7359361999999692,0.6468305355480006,,experiment,emotion,0.0,,,,908.6801605,111,49,female,True
264,93.0,25,F,down,0.670406999999841,0.8627479850066648,,experiment,emotion,0.0,,,,910.5467626,111,49,female,True
265,98.0,25,F,down,1.4745182999999995,1.4121648924453898,,experiment,emotion,0.0,,,,912.8966852,111,49,female,True
266,93.0,25,M,down,1.5265984999998636,1.716815643996214,,experiment,emotion,0.0,,,,916.3465505,111,49,female,True
267,88.0,25,F,down,1.1233335000001716,0.8844318854561841,,experiment,emotion,0.0,,,,919.079797,111,49,female,True
268,83.0,25,M,down,0.8478474000000915,1.9098047788697328,,experiment,emotion,0.0,,,,922.3962955,111,49,female,True
269,88.0,25,M,down,0.8015210000000934,0.4653151552405746,,experiment,emotion,0.0,,,,923.979568,111,49,female,True
270,98.0,25,F,up,0.6960680999998203,1.9300755301836967,,experiment,emotion,0.0,,,,926.9961316,111,49,female,True
271,88.0,25,F,down,1.1507227000001876,0.3241156183446408,,experiment,emotion,0.0,,,,928.2794213,111,49,female,True
272,93.0,25,F,down,0.7204598999999234,1.1990417041245691,,experiment,emotion,0.0,,,,930.9126347,111,49,female,True
273,98.0,25,F,up,0.8340080000000398,1.5219923990796855,,experiment,emotion,0.0,,,,933.4291179,111,49,female,True
274,93.0,25,F,down,0.8137137000001076,1.585529048062075,,experiment,emotion,0.0,,,,936.1124145,111,49,female,True
275,83.0,25,F,down,0.8351302000000942,1.1076309516099627,,experiment,emotion,0.0,,,,938.3289932,111,49,female,True
276,88.0,25,M,down,1.2485312999999678,0.3982852929556548,,experiment,emotion,0.0,,,,939.8456493,111,49,female,True
277,83.0,25,M,down,0.7055583999999726,0.936929775765854,,experiment,emotion,0.0,,,,942.2955522,111,49,female,True
278,98.0,25,M,up,1.1866231999999854,1.6436486513964927,,experiment,emotion,0.0,,,,944.9454476,111,49,female,True
279,83.0,25,M,down,0.8225390000000061,0.8145331554694524,,experiment,emotion,0.0,,,,947.2285699,111,49,female,True
280,93.0,25,F,up,0.9048631999999088,1.4319860450904462,,experiment,emotion,0.0,,,,949.7452808,111,49,female,True
281,93.0,25,M,down,0.7739394000000175,1.6765719619672554,,experiment,emotion,0.0,,,,952.5951711,111,49,female,True
282,88.0,25,M,down,1.5980087000000367,0.5888487289210711,,experiment,emotion,0.0,,,,954.2450925,111,49,female,True
283,88.0,25,F,down,1.0059671999999864,1.708616448599349,,experiment,emotion,0.0,,,,957.8281806,111,49,female,True
284,83.0,25,M,down,1.8012393999999858,1.389927298610265,,experiment,emotion,0.0,,,,960.4948803,111,49,female,True
285,98.0,25,F,down,1.1994171000001188,1.121802082196142,,experiment,emotion,0.0,,,,963.6947379,111,49,female,True
286,93.0,25,F,down,0.7744792000000871,0.9119619333905692,,experiment,emotion,0.0,,,,966.094639,111,49,female,True
287,83.0,25,M,down,0.7968909000001076,1.7220719462246856,,experiment,emotion,0.0,,,,968.8612218,111,49,female,True
288,98.0,25,M,,,1.9383367559679971,,experiment,emotion,0.0,,,,971.8611005,111,49,female,True
289,98.0,25,F,up,0.8167978000001312,1.35099646934832,,experiment,emotion,0.0,,,,975.8942734,111,49,female,True
290,88.0,25,M,up,0.7084838999999192,1.3750844244628144,,experiment,emotion,0.0,,,,978.3775713,111,49,female,True
291,83.0,25,F,up,2.079235400000016,0.700440006175933,,experiment,emotion,0.0,,,,980.060801,111,49,female,True
292,88.0,25,F,up,0.9990605000000414,0.7451032545005638,,experiment,emotion,0.0,,,,983.1440023,111,49,female,True
293,93.0,25,F,up,0.9081498000000464,0.7262128405835506,,experiment,emotion,0.0,,,,985.1439425,111,49,female,True
294,83.0,25,M,down,1.124609300000202,1.6835433844236876,,experiment,emotion,0.0,,,,988.0104647,111,49,female,True
295,98.0,25,M,down,1.7553279999999631,1.2087745507264345,,experiment,emotion,0.0,,,,990.643726,111,49,female,True
296,93.0,25,M,up,1.3391134000000875,0.3510344201728809,,experiment,emotion,0.0,,,,993.0269283,111,49,female,True
297,98.0,25,F,up,0.7488419999999678,0.6190817446548844,,experiment,emotion,0.0,,,,995.2602111,111,49,female,True
298,83.0,25,F,up,1.760652600000185,0.7005209287526152,,experiment,emotion,0.0,,,,996.9934645,111,49,female,True
299,93.0,25,M,down,0.8545272000001205,1.8970208431138524,,experiment,emotion,0.0,,,,1000.926517,111,49,female,True
300,88.0,25,F,down,1.283515399999942,0.854613831298447,,experiment,emotion,0.0,,,,1002.9265215,111,49,female,True
301,88.0,25,M,down,0.8318729000000076,0.3147021947676141,,experiment,emotion,0.0,,,,1004.7932002,111,49,female,True
302,93.0,25,M,down,0.6609441000000515,1.902424333929785,,experiment,emotion,0.0,,,,1007.7930567,111,49,female,True
303,98.0,25,M,down,0.70974369999999,0.988571408173929,,experiment,emotion,0.0,,,,1009.7263081,111,49,female,True
304,88.0,25,F,down,0.7807904999999664,0.9799255365279322,,experiment,emotion,0.0,,,,1011.6762339,111,49,female,True
305,83.0,25,F,down,0.8065009000001737,0.7791743333281775,,experiment,emotion,0.0,,,,1013.5095258,111,49,female,True
306,83.0,25,M,down,0.7285717999998269,0.3897998117913431,,experiment,emotion,0.0,,,,1014.9594551,111,49,female,True
307,88.0,25,F,up,1.61661509999999,0.4415768254495602,,experiment,emotion,0.0,,,,1016.4093883,111,49,female,True
308,98.0,25,F,down,1.6007022000001143,1.5738381229465916,,experiment,emotion,0.0,,,,1019.8593,111,49,female,True
309,93.0,25,M,down,1.898166799999899,0.5326774713552423,,experiment,emotion,0.0,,,,1022.275856,111,49,female,True
310,83.0,25,M,down,0.7742988999998488,1.1666195484391622,,experiment,emotion,0.0,,,,1025.6256967,111,49,female,True
311,98.0,25,F,up,0.932362099999864,0.9515498397893574,,experiment,emotion,0.0,,,,1027.6256435,111,49,female,True
312,93.0,25,M,down,1.1838202999999794,1.1154868189445883,,experiment,emotion,0.0,,,,1029.9422194,111,49,female,True
313,93.0,25,F,down,0.9319070999999894,1.1969602436333555,,experiment,emotion,0.0,,,,1032.5921265000002,111,49,female,True
314,83.0,25,F,down,0.8723535000001448,0.8651612962078918,,experiment,emotion,0.0,,,,1034.6587131,111,49,female,True
315,88.0,25,F,down,0.7910506000000623,1.3776101315932456,,experiment,emotion,0.0,,,,1037.1919444,111,49,female,True
316,98.0,25,M,up,1.4341386000000966,1.1438578169210958,,experiment,emotion,0.0,,,,1039.3918536,111,49,female,True
317,88.0,25,M,up,1.2872608000000128,1.4090282755492427,,experiment,emotion,0.0,,,,1042.4917371,111,49,female,True
318,88.0,25,F,down,1.037012999999888,1.7661244345259586,,experiment,emotion,0.0,,,,1045.8249719,111,49,female,True
319,88.0,25,F,down,1.4430812000000517,1.3300905905842595,,experiment,emotion,0.0,,,,1048.4748998,111,49,female,True
320,98.0,25,M,down,1.5912425999999869,1.4797822389135964,,experiment,emotion,0.0,,,,1051.6747228999998,111,49,female,True
321,93.0,25,M,up,1.186703899999884,1.144103781761435,,experiment,emotion,0.0,,,,1054.6912656999998,111,49,female,True
322,83.0,25,M,down,0.9407740000001468,1.6397613660206845,,experiment,emotion,0.0,,,,1057.7911537,111,49,female,True
323,83.0,25,M,down,0.8035644999999931,0.8679733011101056,,experiment,emotion,0.0,,,,1059.8744097,111,49,female,True
324,93.0,25,M,down,0.940941400000156,0.5459487595989643,,experiment,emotion,0.0,,,,1061.4910163,111,49,female,True
325,98.0,25,F,down,1.3827309999999216,1.9622740428609535,,experiment,emotion,0.0,,,,1064.6742326,111,49,female,True
326,98.0,25,F,down,0.7481782999998359,1.3781931458511318,,experiment,emotion,0.0,,,,1067.6907984999998,111,49,female,True
327,83.0,25,M,down,0.8426701999999295,1.0974107020048622,,experiment,emotion,0.0,,,,1069.8073466,111,49,female,True
328,98.0,25,F,up,1.219003500000099,0.6448383815984928,,experiment,emotion,0.0,,,,1071.5739525,111,49,female,True
329,88.0,25,F,up,1.5351812999999763,0.7454201551829616,,experiment,emotion,0.0,,,,1073.8237665,111,49,female,True
330,93.0,25,F,down,0.8819297000000006,1.5617168610914065,,experiment,emotion,0.0,,,,1077.2070604,111,49,female,True
331,88.0,25,M,down,0.8713133000001108,1.9131452372766695,,experiment,emotion,0.0,,,,1080.2736261,111,49,female,True
332,83.0,25,F,down,0.7927314999999453,0.3718463265726872,,experiment,emotion,0.0,,,,1081.7902362999998,111,49,female,True
333,93.0,25,F,down,0.8930989000000409,0.4412792892594726,,experiment,emotion,0.0,,,,1083.3068299,111,49,female,True
334,88.0,25,F,down,0.6611823000000641,0.73732892415541,,experiment,emotion,0.0,,,,1085.2067757,111,49,female,True
335,93.0,25,M,down,0.7489190000001145,0.4465922478722549,,experiment,emotion,0.0,,,,1086.5900664,111,49,female,True
336,83.0,25,M,down,0.565659099999948,1.9713077028598176,,experiment,emotion,0.0,,,,1089.5733003,111,49,female,True
337,98.0,25,F,down,0.8587992000000213,0.6968431154639407,,experiment,emotion,0.0,,,,1091.123181,111,49,female,True
338,93.0,25,M,down,0.7244754000000739,1.7131724681203704,,experiment,emotion,0.0,,,,1093.9564384,111,49,female,True
339,98.0,25,F,down,0.8749006999998983,1.917178037222048,,experiment,emotion,0.0,,,,1096.8730153,111,49,female,True
340,83.0,25,M,down,0.7960241999999198,1.4433871922360806,,experiment,emotion,0.0,,,,1099.4728968999998,111,49,female,True
341,88.0,25,M,down,0.9240904000000684,0.8249014053734609,,experiment,emotion,0.0,,,,1101.372824,111,49,female,True
342,0.1835315015274117,25,up,up,0.9006970999998885,1.439994203401836,,experiment,cRDM,1.0,,,,1107.6892374999998,111,49,female,True
343,0.1835315015274117,25,up,up,0.7466608000001997,0.3787323003409395,,experiment,cRDM,1.0,,,,1109.2392381,111,49,female,True
344,0.1835315015274117,25,down,up,0.9094175999998696,1.2300445270798703,,experiment,cRDM,1.0,,,,1111.4724594,111,49,female,True
345,0.1835315015274117,25,down,down,0.7289582999999311,1.9397584143975797,,experiment,cRDM,1.0,,,,1114.5889717,111,49,female,True
346,0.1835315015274117,25,up,down,0.6113132000000405,1.4316992516953249,,experiment,cRDM,1.0,,,,1117.0055717,111,49,female,True
347,0.1835315015274117,25,down,down,0.6267358000000058,1.4913261642580362,,experiment,cRDM,1.0,,,,1119.3721537,111,49,female,True
348,0.1835315015274117,25,up,up,1.3671468000000004,1.9299050316320925,,experiment,cRDM,1.0,,,,1122.1887388,111,49,female,True
349,0.1835315015274117,25,up,up,0.8853030000000217,0.6887942299392872,,experiment,cRDM,1.0,,,,1124.4886037,111,49,female,True
350,0.1835315015274117,25,down,up,0.7803011000000879,0.4388888130682762,,experiment,cRDM,1.0,,,,1126.0885579,111,49,female,True
351,0.1835315015274117,25,down,down,0.7967254000000139,0.4259497454109219,,experiment,cRDM,1.0,,,,1127.5551887,111,49,female,True
352,0.1835315015274117,25,down,down,0.6842154000000846,0.3162357882605756,,experiment,cRDM,1.0,,,,1128.9216640999998,111,49,female,True
353,0.1835315015274117,25,down,down,0.6745045000000118,0.9185443613064102,,experiment,cRDM,1.0,,,,1130.7883667,111,49,female,True
354,0.1835315015274117,25,down,down,0.7405498000000534,1.204559277769752,,experiment,cRDM,1.0,,,,1132.9383231000002,111,49,female,True
355,0.1835315015274117,25,down,down,0.721441299999924,0.4780328499115475,,experiment,cRDM,1.0,,,,1134.4214263,111,49,female,True
356,0.1835315015274117,25,up,down,0.7176747000000887,0.6987204781515578,,experiment,cRDM,1.0,,,,1136.0881844,111,49,female,True
357,0.1835315015274117,25,up,up,0.8547530000000734,1.666464611777603,,experiment,cRDM,1.0,,,,1138.7381107,111,49,female,True
358,0.1835315015274117,25,up,up,0.8771526000000449,0.4033013084982279,,experiment,cRDM,1.0,,,,1140.2546686,111,49,female,True
359,0.1835315015274117,25,up,up,0.7367813000000751,0.5276067521014304,,experiment,cRDM,1.0,,,,1141.9210909,111,49,female,True
360,0.1835315015274117,25,down,down,0.6980008999998972,0.8701478056824965,,experiment,cRDM,1.0,,,,1143.7878781,111,49,female,True
361,0.1835315015274117,25,up,down,1.0780687999999827,1.853611967000565,,experiment,cRDM,1.0,,,,1146.587764,111,49,female,True
362,0.1835315015274117,25,up,up,0.5444760000000315,0.7669803129627157,,experiment,cRDM,1.0,,,,1148.7043779,111,49,female,True
363,0.1835315015274117,25,down,down,0.524886400000014,1.0510152908438994,,experiment,cRDM,1.0,,,,1150.5709902,111,49,female,True
364,0.1835315015274117,25,up,up,0.6473224999999729,1.031280218213249,,experiment,cRDM,1.0,,,,1152.3875414999998,111,49,female,True
365,0.1835315015274117,25,down,down,0.6013735999999881,1.6291801745664989,,experiment,cRDM,1.0,,,,1154.9374738,111,49,female,True
366,0.1835315015274117,25,down,down,0.6582350999999562,0.8186839606444527,,experiment,cRDM,1.0,,,,1156.6206707,111,49,female,True
367,0.1835315015274117,25,up,up,0.7588467000000492,1.610824138692412,,experiment,cRDM,1.0,,,,1159.1539948,111,49,female,True
368,0.1835315015274117,25,up,up,1.2789402000000791,0.4861543254075154,,experiment,cRDM,1.0,,,,1160.6538924,111,49,female,True
369,0.1835315015274117,25,down,down,0.6820787999999993,1.3690833356143082,,experiment,cRDM,1.0,,,,1163.5537928,111,49,female,True
370,0.1835315015274117,25,up,up,1.1475100000000111,1.917950099134468,,experiment,cRDM,1.0,,,,1166.4203160000002,111,49,female,True
371,0.1835315015274117,25,down,down,0.623577300000079,0.3350897395461614,,experiment,cRDM,1.0,,,,1168.1702724000002,111,49,female,True
372,0.1835315015274117,25,down,down,0.7132285999998658,0.3002384077634891,,experiment,cRDM,1.0,,,,1169.3536178,111,49,female,True
373,0.1835315015274117,25,down,up,1.203305300000011,0.3238125151294003,,experiment,cRDM,1.0,,,,1170.6535282,111,49,female,True
374,0.1835315015274117,25,up,down,0.7820765000001302,1.480927249331908,,experiment,cRDM,1.0,,,,1173.5867423999998,111,49,female,True
375,0.1835315015274117,25,up,up,0.7294789000000037,0.5744676530492308,,experiment,cRDM,1.0,,,,1175.2033418,111,49,female,True
376,0.1835315015274117,25,up,up,1.055482899999788,0.3697992418135162,,experiment,cRDM,1.0,,,,1176.5533252,111,49,female,True
377,0.1835315015274117,25,down,down,0.5490045999999893,1.5937821046238816,,experiment,cRDM,1.0,,,,1179.4698387,111,49,female,True
378,0.1835315015274117,25,down,down,0.7803939999998875,0.7092550464233798,,experiment,cRDM,1.0,,,,1180.9864684,111,49,female,True
379,0.1835315015274117,25,up,up,1.7091923000000406,1.191952345203786,,experiment,cRDM,1.0,,,,1183.2195702999998,111,49,female,True
380,0.1835315015274117,25,down,down,0.6995378000001438,1.2996108291578357,,experiment,cRDM,1.0,,,,1186.4862606000002,111,49,female,True
381,0.1835315015274117,25,up,up,1.1155164000001605,1.384236840703487,,experiment,cRDM,1.0,,,,1188.8193326,111,49,female,True
382,0.1835315015274117,25,up,down,0.6233902000001308,0.8632253735382032,,experiment,cRDM,1.0,,,,1191.0693963,111,49,female,True
383,0.1835315015274117,25,up,up,1.0926240999999663,0.4511632629762159,,experiment,cRDM,1.0,,,,1192.4191759,111,49,female,True
384,0.1835315015274117,25,down,down,0.5838467999999466,0.801267896828102,,experiment,cRDM,1.0,,,,1194.585946,111,49,female,True
385,0.1835315015274117,25,down,up,1.8742389000001367,0.6078054513982047,,experiment,cRDM,1.0,,,,1196.0525466999998,111,49,female,True
386,0.1835315015274117,25,up,up,1.1050506999999925,1.6912182361941688,,experiment,cRDM,1.0,,,,1199.8857456,111,49,female,True
387,0.1835315015274117,25,down,down,0.6831187999998747,1.7992471438176547,,experiment,cRDM,1.0,,,,1203.0356699,111,49,female,True
388,0.1835315015274117,25,down,up,1.308094199999914,1.1508116915926505,,experiment,cRDM,1.0,,,,1205.1186904,111,49,female,True
389,0.1835315015274117,25,up,down,1.2733206999998856,1.1041611275705447,,experiment,cRDM,1.0,,,,1207.7854515,111,49,female,True
390,0.1835315015274117,25,up,down,1.7074526000001242,0.8682117425357294,,experiment,cRDM,1.0,,,,1210.1853482,111,49,female,True
391,0.1835315015274117,25,down,down,0.7319311000001107,0.4857944412809342,,experiment,cRDM,1.0,,,,1212.651923,111,49,female,True
392,0.1835315015274117,25,up,up,0.749246200000016,1.63146094249477,,experiment,cRDM,1.0,,,,1215.2684905,111,49,female,True
393,0.1835315015274117,25,down,down,0.6738204000000678,1.5496914954665757,,experiment,cRDM,1.0,,,,1217.835111,111,49,female,True
394,0.1835315015274117,25,down,down,1.0534139999999752,0.3950313062658585,,experiment,cRDM,1.0,,,,1219.1683438,111,49,female,True
395,0.1835315015274117,25,down,down,1.1478184000000056,1.5583462242603026,,experiment,cRDM,1.0,,,,1222.0349348,111,49,female,True
396,0.1835315015274117,25,up,up,0.7702927000000273,1.1201126687255956,,experiment,cRDM,1.0,,,,1224.5514597,111,49,female,True
397,0.1835315015274117,25,up,up,1.551831600000014,1.1390230001209638,,experiment,cRDM,1.0,,,,1226.717916,111,49,female,True
398,0.1835315015274117,25,down,down,0.86551570000006,1.9770236172206188,,experiment,cRDM,1.0,,,,1230.5012376999998,111,49,female,True
399,0.1835315015274117,25,down,up,1.243579499999896,0.4757294301770323,,experiment,cRDM,1.0,,,,1232.1011678999998,111,49,female,True
400,0.1835315015274117,25,up,down,0.6986464999999953,0.3995026959067946,,experiment,cRDM,1.0,,,,1234.0010936,111,49,female,True
401,0.1835315015274117,25,up,up,0.8070678999999927,0.5044639863735576,,experiment,cRDM,1.0,,,,1235.467665,111,49,female,True
402,0.1835315015274117,25,up,up,1.0204387000001134,1.0533321787702927,,experiment,cRDM,1.0,,,,1237.5842948,111,49,female,True
403,0.1835315015274117,25,up,up,0.7254904000001261,0.9600141384811314,,experiment,cRDM,1.0,,,,1239.8342632,111,49,female,True
404,0.1835315015274117,25,up,up,0.7312603000000308,0.946184206862252,,experiment,cRDM,1.0,,,,1241.7674705999998,111,49,female,True
405,0.1835315015274117,25,down,up,1.4170140999999603,1.990399482833479,,experiment,cRDM,1.0,,,,1244.7507099999998,111,49,female,True
406,0.1835315015274117,25,down,down,0.676680000000033,1.8798010749405127,,experiment,cRDM,1.0,,,,1248.3170282,111,49,female,True
407,0.1835315015274117,25,up,down,0.8119035999998232,1.4952163239107523,,experiment,cRDM,1.0,,,,1250.7338197999998,111,49,female,True
408,0.1835315015274117,25,down,down,0.7120257000001402,0.7206296602611457,,experiment,cRDM,1.0,,,,1252.5336905,111,49,female,True
409,0.1835315015274117,25,down,down,1.3270137000001796,0.4891586312261662,,experiment,cRDM,1.0,,,,1253.9837014999998,111,49,female,True
410,0.1835315015274117,25,down,down,0.7721245000000181,1.7705772695127455,,experiment,cRDM,1.0,,,,1257.3335797,111,49,female,True
411,0.1835315015274117,25,up,down,1.1205786000000444,1.1262407742656402,,experiment,cRDM,1.0,,,,1259.5001303999998,111,49,female,True
412,0.1835315015274117,25,down,down,1.1023817999998755,1.7022023350637991,,experiment,cRDM,1.0,,,,1262.5833449000002,111,49,female,True
413,0.1835315015274117,25,down,down,0.740425999999843,0.8318093520581682,,experiment,cRDM,1.0,,,,1264.7832724,111,49,female,True
414,0.1835315015274117,25,down,down,0.7704702999999427,0.8502378141500389,,experiment,cRDM,1.0,,,,1266.6332269,111,49,female,True
415,0.1835315015274117,25,up,up,1.315261300000202,1.3061567835157186,,experiment,cRDM,1.0,,,,1268.9664455000002,111,49,female,True
416,0.1835315015274117,25,up,down,1.830319000000145,0.5152460482622214,,experiment,cRDM,1.0,,,,1271.0663582000002,111,49,female,True
417,0.1835315015274117,25,down,down,0.8000022000001081,0.9537945506620846,,experiment,cRDM,1.0,,,,1274.1146912999998,111,49,female,True
418,0.1835315015274117,25,up,up,2.041441999999961,0.4113314735037692,,experiment,cRDM,1.0,,,,1275.5813057,111,49,female,True
419,0.1835315015274117,25,down,down,0.8027007999999114,1.872191976019479,,experiment,cRDM,1.0,,,,1279.7659970999998,111,49,female,True
420,0.1835315015274117,25,up,down,0.6780438999999205,1.4047885125443114,,experiment,cRDM,1.0,,,,1282.2326311000002,111,49,female,True
421,0.1835315015274117,25,up,down,1.7991488999998635,0.4131215163951405,,experiment,cRDM,1.0,,,,1283.5825356,111,49,female,True
422,98.0,25,M,up,1.00435379999999,0.9300294164449552,,experiment,emotion,1.0,,,,1290.2323175,111,49,female,True
423,83.0,25,M,up,0.9311099999999896,1.197004190049069,,experiment,emotion,1.0,,,,1292.7155532000002,111,49,female,True
424,93.0,25,F,up,0.6579385000000002,1.9146223568300345,,experiment,emotion,1.0,,,,1295.8487507999998,111,49,female,True
425,98.0,25,F,down,1.2176864999998998,1.4901949939257275,,experiment,emotion,1.0,,,,1298.2819854,111,49,female,True
426,93.0,25,M,up,0.760086900000033,0.623198267064792,,experiment,emotion,1.0,,,,1300.398562,111,49,female,True
427,88.0,25,F,up,1.0687928999998348,0.3940716119874029,,experiment,emotion,1.0,,,,1301.8318717000002,111,49,female,True
428,83.0,25,M,down,1.110898299999917,1.6639268854973472,,experiment,emotion,1.0,,,,1304.8317502999998,111,49,female,True
429,88.0,25,M,down,0.8512980000000425,0.3980236191161018,,experiment,emotion,1.0,,,,1306.5983551,111,49,female,True
430,98.0,25,F,up,1.0074390999998286,1.6863144117947662,,experiment,emotion,1.0,,,,1309.3982356,111,49,female,True
431,88.0,25,F,down,1.0805063999998763,1.6251530561087353,,experiment,emotion,1.0,,,,1312.2981375,111,49,female,True
432,93.0,25,F,up,0.9013022999999976,1.4925774815587156,,experiment,emotion,1.0,,,,1315.1313360999998,111,49,female,True
433,98.0,25,F,up,0.9827308999999786,0.8366638713272516,,experiment,emotion,1.0,,,,1317.1479451,111,49,female,True
434,93.0,25,F,up,0.909505099999933,0.3739530513014123,,experiment,emotion,1.0,,,,1318.7812098999998,111,49,female,True
435,83.0,25,F,down,0.6938567000001967,1.98404923954432,,experiment,emotion,1.0,,,,1321.9477781,111,49,female,True
436,88.0,25,M,down,1.5586668000000827,1.7036950319399458,,experiment,emotion,1.0,,,,1324.6310146,111,49,female,True
437,83.0,25,M,down,0.9387802999999622,1.7359464513211915,,experiment,emotion,1.0,,,,1328.1808745000003,111,49,female,True
438,98.0,25,M,up,1.4211729000003288,1.107693377608083,,experiment,emotion,1.0,,,,1330.4974266,111,49,female,True
439,83.0,25,M,down,1.459970700000213,1.2763971601977369,,experiment,emotion,1.0,,,,1333.4806618000002,111,49,female,True
440,93.0,25,F,down,0.8028090000002521,0.3717112526103752,,experiment,emotion,1.0,,,,1335.6137765000003,111,49,female,True
441,93.0,25,M,down,0.7869888000000174,1.7253995529041302,,experiment,emotion,1.0,,,,1338.4136226,111,49,female,True
442,88.0,25,M,down,1.130229199999576,0.941556096541008,,experiment,emotion,1.0,,,,1340.4303986,111,49,female,True
443,88.0,25,F,down,0.7962367999998605,0.6897923217398894,,experiment,emotion,1.0,,,,1342.5303589,111,49,female,True
444,83.0,25,M,down,0.8807175000001735,1.302595455699441,,experiment,emotion,1.0,,,,1344.8968789,111,49,female,True
445,98.0,25,F,down,1.0767518000002383,1.0970409930037497,,experiment,emotion,1.0,,,,1347.1468395000002,111,49,female,True
446,93.0,25,F,up,0.8945259000001897,1.519095355521792,,experiment,emotion,1.0,,,,1350.0300707,111,49,female,True
447,83.0,25,M,down,0.873497000000043,1.5231597908923584,,experiment,emotion,1.0,,,,1352.7131144,111,49,female,True
448,98.0,25,M,up,0.922091200000068,0.4905062867224021,,experiment,emotion,1.0,,,,1354.3465292,111,49,female,True
449,98.0,25,F,up,0.9017525999997816,0.5463519973998885,,experiment,emotion,1.0,,,,1356.0798167000005,111,49,female,True
450,88.0,25,M,down,1.731583899999805,1.258770922786078,,experiment,emotion,1.0,,,,1358.5130583,111,49,female,True
451,83.0,25,F,down,0.8467352999996365,1.844800988503748,,experiment,emotion,1.0,,,,1362.3629,111,49,female,True
452,88.0,25,F,up,1.1247803999999633,1.4822040428195675,,experiment,emotion,1.0,,,,1364.9627863,111,49,female,True
453,93.0,25,F,up,1.2714873999998415,0.3795305806423646,,experiment,emotion,1.0,,,,1366.7460784,111,49,female,True
454,83.0,25,M,up,0.87562459999981,0.3010812932851829,,experiment,emotion,1.0,,,,1368.5959761,111,49,female,True
455,98.0,25,M,up,0.8510853000002498,0.3859562048186857,,experiment,emotion,1.0,,,,1370.1124888,111,49,female,True
456,93.0,25,M,up,0.6967436999998426,1.5351875353629143,,experiment,emotion,1.0,,,,1372.745824,111,49,female,True
457,98.0,25,F,up,0.8798655999999028,1.9791346538235772,,experiment,emotion,1.0,,,,1375.6957079,111,49,female,True
458,83.0,25,F,up,0.7382818000000952,0.7667665267150058,,experiment,emotion,1.0,,,,1377.6122781,111,49,female,True
459,93.0,25,M,up,1.2309319999999389,1.0181380446663733,,experiment,emotion,1.0,,,,1379.6455755000002,111,49,female,True
460,88.0,25,F,down,0.7724198999999317,1.1896430881395328,,experiment,emotion,1.0,,,,1382.3621291,111,49,female,True
461,88.0,25,M,down,0.9234802000000856,1.5724199224992663,,experiment,emotion,1.0,,,,1384.9620659000002,111,49,female,True
462,93.0,25,M,down,0.7989517000000887,0.7302807472132892,,experiment,emotion,1.0,,,,1386.8786105,111,49,female,True
463,98.0,25,M,up,0.8909899000000223,0.865848809987557,,experiment,emotion,1.0,,,,1388.8285525,111,49,female,True
464,88.0,25,F,down,1.8674587000000429,1.3930605155426437,,experiment,emotion,1.0,,,,1391.3950747,111,49,female,True
465,83.0,25,F,down,0.75214700000015,0.3755623629173132,,experiment,emotion,1.0,,,,1393.9283877000005,111,49,female,True
466,83.0,25,M,down,0.7049691999995957,1.8596276658921,,experiment,emotion,1.0,,,,1396.8115906000005,111,49,female,True
467,88.0,25,F,down,0.7312974000001304,1.285634017703718,,experiment,emotion,1.0,,,,1399.0782002,111,49,female,True
468,98.0,25,F,up,1.3954310999997688,1.0399741447932285,,experiment,emotion,1.0,,,,1401.1280930000005,111,49,female,True
469,93.0,25,M,down,0.7618819999997868,1.1266108881247532,,experiment,emotion,1.0,,,,1403.9446443000002,111,49,female,True
470,83.0,25,M,down,1.1069441999998162,0.376316476771578,,experiment,emotion,1.0,,,,1405.3445916,111,49,female,True
471,98.0,25,F,up,1.1772015000001377,1.066220818361791,,experiment,emotion,1.0,,,,1407.7943451,111,49,female,True
472,93.0,25,M,up,1.08741050000026,0.6742857634187228,,experiment,emotion,1.0,,,,1409.9111018,111,49,female,True
473,93.0,25,F,down,0.90689969999994,1.905954467414924,,experiment,emotion,1.0,,,,1413.1776169,111,49,female,True
474,83.0,25,F,down,0.7320411000000604,1.22898703809652,,experiment,emotion,1.0,,,,1415.5775034000003,111,49,female,True
475,88.0,25,F,down,0.7144005999998626,1.7146264961398807,,experiment,emotion,1.0,,,,1418.2940915,111,49,female,True
476,98.0,25,M,down,0.822946199999933,1.2130265250362036,,experiment,emotion,1.0,,,,1420.5105712,111,49,female,True
477,88.0,25,M,up,1.1095840999996651,1.7950301115451543,,experiment,emotion,1.0,,,,1423.3939181,111,49,female,True
478,88.0,25,F,up,0.9159969000002092,0.4779217564126278,,experiment,emotion,1.0,,,,1425.2605005,111,49,female,True
479,88.0,25,F,down,0.6838035000000673,1.3423188392061065,,experiment,emotion,1.0,,,,1427.7937182,111,49,female,True
480,98.0,25,M,down,1.512898899999982,1.841691489252024,,experiment,emotion,1.0,,,,1430.5936064000002,111,49,female,True
481,93.0,25,M,up,0.8614545000000362,0.5219857681490705,,experiment,emotion,1.0,,,,1432.9100252000003,111,49,female,True
482,83.0,25,M,down,0.7190776000002188,1.636194365114065,,experiment,emotion,1.0,,,,1435.6933685,111,49,female,True
483,83.0,25,M,down,0.839833500000168,1.954964263785575,,experiment,emotion,1.0,,,,1438.626659,111,49,female,True
484,93.0,25,M,up,0.8276716999998825,0.7833075323770168,,experiment,emotion,1.0,,,,1440.5098106,111,49,female,True
485,98.0,25,F,down,1.383972300000096,0.7089969348376011,,experiment,emotion,1.0,,,,1442.3265419,111,49,female,True
486,98.0,25,F,down,1.0870653000001766,1.4492946807203335,,experiment,emotion,1.0,,,,1445.4264042,111,49,female,True
487,83.0,25,M,down,0.8693969999999354,0.3564333258760285,,experiment,emotion,1.0,,,,1447.1430064,111,49,female,True
488,98.0,25,F,up,0.8915670000001228,1.3217205360072708,,experiment,emotion,1.0,,,,1449.5929027000002,111,49,female,True
489,88.0,25,F,up,0.8143331000001126,1.4593791760096948,,experiment,emotion,1.0,,,,1452.2261494,111,49,female,True
490,93.0,25,F,up,0.7927067000000534,0.4761489447630103,,experiment,emotion,1.0,,,,1453.7927339000005,111,49,female,True
491,88.0,25,M,up,1.4204406999997443,1.0432304831782266,,experiment,emotion,1.0,,,,1455.8760084,111,49,female,True
492,83.0,25,F,down,0.8328704000000471,0.3395889129464887,,experiment,emotion,1.0,,,,1457.8925869,111,49,female,True
493,93.0,25,F,up,1.2976227999997718,1.5300671414847202,,experiment,emotion,1.0,,,,1460.5258279,111,49,female,True
494,88.0,25,F,down,0.9727124000000912,0.6809984012320005,,experiment,emotion,1.0,,,,1462.7757398,111,49,female,True
495,93.0,25,M,down,1.0591702000001533,1.3348097239135377,,experiment,emotion,1.0,,,,1465.3423004,111,49,female,True
496,83.0,25,M,down,0.7692040000001725,1.282151758234941,,experiment,emotion,1.0,,,,1467.9422177,111,49,female,True
497,98.0,25,F,up,0.9467327000002116,0.3944260872102042,,experiment,emotion,1.0,,,,1469.4086915000005,111,49,female,True
498,93.0,25,M,up,1.018389699999716,0.6055587598012239,,experiment,emotion,1.0,,,,1471.2420761000003,111,49,female,True
499,98.0,25,F,down,0.7344202000003861,1.7078493264786143,,experiment,emotion,1.0,,,,1474.2420085,111,49,female,True
500,83.0,25,M,up,1.0290878000000705,0.8679363850927324,,experiment,emotion,1.0,,,,1476.1083264,111,49,female,True
501,88.0,25,M,up,0.756652000000031,1.6789072798929665,,experiment,emotion,1.0,,,,1479.0917703,111,49,female,True
502,0.1835315015274117,25,up,down,1.3124010000001365,1.645977849948053,,experiment,cRDM,2.0,,,,1487.1080181000002,111,49,female,True
503,0.1835315015274117,25,up,down,0.7656614000002264,0.8291229158767051,,experiment,cRDM,2.0,,,,1489.5247479,111,49,female,True
504,0.1835315015274117,25,down,down,0.604770500000086,1.0642655843681892,,experiment,cRDM,2.0,,,,1491.6246408000002,111,49,female,True
505,0.1835315015274117,25,down,down,0.575636300000042,1.3230551291155028,,experiment,cRDM,2.0,,,,1493.8077994,111,49,female,True
506,0.1835315015274117,25,up,up,0.8437249000003249,1.6674124819183431,,experiment,cRDM,2.0,,,,1496.3076638000002,111,49,female,True
507,0.1835315015274117,25,down,down,0.6819114999998419,1.4915948773268104,,experiment,cRDM,2.0,,,,1498.9075069,111,49,female,True
508,0.1835315015274117,25,up,down,0.8161193999999341,1.8746776837277657,,experiment,cRDM,2.0,,,,1501.7242848,111,49,female,True
509,0.1835315015274117,25,up,down,0.5731949000000895,1.1171251397803732,,experiment,cRDM,2.0,,,,1503.9241962,111,49,female,True
510,0.1835315015274117,25,down,down,0.7083301000002393,1.5059790440902294,,experiment,cRDM,2.0,,,,1506.2740694,111,49,female,True
511,0.1835315015274117,25,down,down,1.5510281000001669,1.1660739093899388,,experiment,cRDM,2.0,,,,1508.4073589,111,49,female,True
512,0.1835315015274117,25,down,down,1.167536100000234,0.9569490194890932,,experiment,cRDM,2.0,,,,1511.1738647000002,111,49,female,True
513,0.1835315015274117,25,down,up,2.2913057999999182,1.5350105289900249,,experiment,cRDM,2.0,,,,1514.1570946000002,111,49,female,True
514,0.1835315015274117,25,down,up,2.220774000000347,1.7132137841541206,,experiment,cRDM,2.0,,,,1518.4235937000003,111,49,female,True
515,0.1835315015274117,25,down,down,1.9062482999997885,0.9290506360784744,,experiment,cRDM,2.0,,,,1521.8401443000002,111,49,female,True
516,0.1835315015274117,25,up,down,1.412989700000253,0.8773370312713649,,experiment,cRDM,2.0,,,,1524.8733706000005,111,49,female,True
517,0.1835315015274117,25,up,down,0.9290909000001192,1.2135808433453552,,experiment,cRDM,2.0,,,,1527.7732417000002,111,49,female,True
518,0.1835315015274117,25,up,up,0.9328406999998152,0.7467838464456203,,experiment,cRDM,2.0,,,,1529.7065402000003,111,49,female,True
519,0.1835315015274117,25,up,down,1.4687678999998752,1.3749104681533164,,experiment,cRDM,2.0,,,,1532.2895873000002,111,49,female,True
520,0.1835315015274117,25,down,up,1.2137470999996367,1.6081750833651944,,experiment,cRDM,2.0,,,,1535.6396259000005,111,49,female,True
521,0.1835315015274117,25,up,up,0.8731649999999718,1.702341048432123,,experiment,cRDM,2.0,,,,1538.8061965000002,111,49,female,True
522,0.1835315015274117,25,up,up,1.4842390999997406,0.4030002294612467,,experiment,cRDM,2.0,,,,1540.3561038000005,111,49,female,True
523,0.1835315015274117,25,down,down,0.7703071999999338,0.7914775594704591,,experiment,cRDM,2.0,,,,1542.9060382000002,111,49,female,True
524,0.1835315015274117,25,up,up,1.1908331999998154,1.0394555200460929,,experiment,cRDM,2.0,,,,1544.9725752,111,49,female,True
525,0.1835315015274117,25,down,down,0.7174009999998816,1.7618100919039692,,experiment,cRDM,2.0,,,,1548.1889351,111,49,female,True
526,0.1835315015274117,25,down,down,0.7869384000000537,1.7131589771382365,,experiment,cRDM,2.0,,,,1550.8723644000002,111,49,female,True
527,0.1835315015274117,25,up,down,1.282356400000026,1.5112974157079708,,experiment,cRDM,2.0,,,,1553.4389682,111,49,female,True
528,0.1835315015274117,25,up,up,1.0384896999999,1.4447408460681872,,experiment,cRDM,2.0,,,,1556.4388309,111,49,female,True
529,0.1835315015274117,25,down,down,0.6822168999997302,0.6970411047988506,,experiment,cRDM,2.0,,,,1558.4220975000003,111,49,female,True
530,0.1835315015274117,25,up,up,0.916979000000083,1.0955732515633525,,experiment,cRDM,2.0,,,,1560.4553386000002,111,49,female,True
531,0.1835315015274117,25,down,down,0.7323503000002347,1.4334052181626034,,experiment,cRDM,2.0,,,,1563.0719159,111,49,female,True
532,0.1835315015274117,25,down,down,1.1767856000001302,0.3766998520526916,,experiment,cRDM,2.0,,,,1564.4385156000003,111,49,female,True
533,0.1835315015274117,25,down,down,1.898218799999995,0.5744613656137214,,experiment,cRDM,2.0,,,,1566.4551084,111,49,female,True
534,0.1835315015274117,25,up,up,0.7032767000000604,0.6948854646596222,,experiment,cRDM,2.0,,,,1569.3050018,111,49,female,True
535,0.1835315015274117,25,up,up,1.5143758999997772,0.3831931441762262,,experiment,cRDM,2.0,,,,1570.6549458,111,49,female,True
536,0.1835315015274117,25,up,up,0.9088063999997756,1.9927125681482063,,experiment,cRDM,2.0,,,,1574.4215050000005,111,49,female,True
537,0.1835315015274117,25,down,down,0.6595814999996037,0.7568271351546332,,experiment,cRDM,2.0,,,,1576.3547247,111,49,female,True
538,0.1835315015274117,25,down,up,1.3109565999998267,0.690694029405579,,experiment,cRDM,2.0,,,,1577.9713321,111,49,female,True
539,0.1835315015274117,25,up,up,0.6867011999997885,1.0159598162241723,,experiment,cRDM,2.0,,,,1580.5545915000002,111,49,female,True
540,0.1835315015274117,25,down,down,0.6371371000000181,1.574060046053582,,experiment,cRDM,2.0,,,,1583.0711531000002,111,49,female,True
541,0.1835315015274117,25,up,up,0.6495833000003586,1.6947121989188365,,experiment,cRDM,2.0,,,,1585.6877181,111,49,female,True
542,0.1835315015274117,25,up,up,0.8863233999995828,1.7725566710997978,,experiment,cRDM,2.0,,,,1588.3709579,111,49,female,True
543,0.1835315015274117,25,up,up,0.9267613000001802,0.7377717663114868,,experiment,cRDM,2.0,,,,1590.237534,111,49,female,True
544,0.1835315015274117,25,down,down,0.679798799999844,0.7079980746615548,,experiment,cRDM,2.0,,,,1592.1374786,111,49,female,True
545,0.1835315015274117,25,down,down,1.323869399999694,0.8603774736818475,,experiment,cRDM,2.0,,,,1593.9374078,111,49,female,True
546,0.1835315015274117,25,up,down,0.5546114000003399,0.3977611373706407,,experiment,cRDM,2.0,,,,1595.9206863,111,49,female,True
547,0.1835315015274117,25,down,up,1.1740658999997322,0.5983403031138875,,experiment,cRDM,2.0,,,,1597.3372574,111,49,female,True
548,0.1835315015274117,25,down,down,0.6966975999998795,1.8439192712423207,,experiment,cRDM,2.0,,,,1600.6205373000005,111,49,female,True
549,0.1835315015274117,25,up,up,0.8787452000001394,0.3266391635346333,,experiment,cRDM,2.0,,,,1601.9035551000002,111,49,female,True
550,0.1835315015274117,25,up,up,0.82190780000019,1.1618901602947307,,experiment,cRDM,2.0,,,,1604.2203437000005,111,49,female,True
551,0.1835315015274117,25,down,up,1.3498491999998803,1.0017020425680183,,experiment,cRDM,2.0,,,,1606.3034134,111,49,female,True
552,0.1835315015274117,25,up,down,1.8774164999999807,0.7685352684422802,,experiment,cRDM,2.0,,,,1608.6868433,111,49,female,True
553,0.1835315015274117,25,down,up,1.0269048999998631,1.130717041062983,,experiment,cRDM,2.0,,,,1611.9533845,111,49,female,True
554,0.1835315015274117,25,down,down,1.601805300000251,0.5484686852784377,,experiment,cRDM,2.0,,,,1613.786654,111,49,female,True
555,0.1835315015274117,25,down,up,1.497285599999941,1.9473658220219277,,experiment,cRDM,2.0,,,,1617.6029835,111,49,female,True
556,0.1835315015274117,25,up,up,0.7538730999999643,0.7264027691384669,,experiment,cRDM,2.0,,,,1620.0863936,111,49,female,True
557,0.1835315015274117,25,up,up,0.8468935999999303,0.7895357133775214,,experiment,cRDM,2.0,,,,1621.8863285000002,111,49,female,True
558,0.1835315015274117,25,down,down,0.6947181999998975,1.9737853812137824,,experiment,cRDM,2.0,,,,1624.969551,111,49,female,True
559,0.1835315015274117,25,down,down,1.0654342999996516,1.2209079102320457,,experiment,cRDM,2.0,,,,1627.1527913,111,49,female,True
560,0.1835315015274117,25,up,up,0.7762446000001546,1.1556351674777006,,experiment,cRDM,2.0,,,,1629.6360306,111,49,female,True
561,0.1835315015274117,25,up,up,0.8189420000003338,1.0022250629610945,,experiment,cRDM,2.0,,,,1631.6693147,111,49,female,True
562,0.1835315015274117,25,up,up,0.6430629999999837,1.725443029264437,,experiment,cRDM,2.0,,,,1634.4692076,111,49,female,True
563,0.1835315015274117,25,up,up,0.6031059000001733,1.2962971577996971,,experiment,cRDM,2.0,,,,1636.6691093,111,49,female,True
564,0.1835315015274117,25,up,up,0.6535257999998976,0.553963727287257,,experiment,cRDM,2.0,,,,1638.0857166,111,49,female,True
565,0.1835315015274117,25,down,up,1.11962369999992,1.5290857904777857,,experiment,cRDM,2.0,,,,1640.5356456,111,49,female,True
566,0.1835315015274117,25,down,down,0.9837338999996064,1.3710932316989335,,experiment,cRDM,2.0,,,,1643.2854994,111,49,female,True
567,0.1835315015274117,25,up,down,1.0047967999998946,0.7506505772699799,,experiment,cRDM,2.0,,,,1645.2854389,111,49,female,True
568,0.1835315015274117,25,down,up,0.8635546000000431,1.2649589957506069,,experiment,cRDM,2.0,,,,1647.8186577,111,49,female,True
569,0.1835315015274117,25,down,up,1.4345613999998932,0.6581652922780789,,experiment,cRDM,2.0,,,,1649.6186489000002,111,49,female,True
570,0.1835315015274117,25,down,up,0.6920331999999689,1.7129850612171251,,experiment,cRDM,2.0,,,,1653.0351612,111,49,female,True
571,0.1835315015274117,25,up,up,0.7424439999999777,0.8701747116415404,,experiment,cRDM,2.0,,,,1654.8517512000003,111,49,female,True
572,0.1835315015274117,25,down,up,1.7912133999998332,0.4805574281608454,,experiment,cRDM,2.0,,,,1656.3350164000003,111,49,female,True
573,0.1835315015274117,25,down,down,1.9516453999999608,0.5652556624422176,,experiment,cRDM,2.0,,,,1658.9515853000005,111,49,female,True
574,0.1835315015274117,25,down,down,1.0115497000001596,1.6287524086876397,,experiment,cRDM,2.0,,,,1662.7846306,111,49,female,True
575,0.1835315015274117,25,up,up,0.6788567999997213,0.5940321758285073,,experiment,cRDM,2.0,,,,1664.6513564000002,111,49,female,True
576,0.1835315015274117,25,up,up,0.9838383999999678,1.812562649319506,,experiment,cRDM,2.0,,,,1667.4013016,111,49,female,True
577,0.1835315015274117,25,down,down,0.5640155000000959,1.6533745258471657,,experiment,cRDM,2.0,,,,1670.3011795000002,111,49,female,True
578,0.1835315015274117,25,up,up,0.5990787999999156,0.919095664446416,,experiment,cRDM,2.0,,,,1672.0510915,111,49,female,True
579,0.1835315015274117,25,down,down,1.483455800000229,1.6005219752181945,,experiment,cRDM,2.0,,,,1674.5177113,111,49,female,True
580,0.1835315015274117,25,up,up,0.6759567000003699,1.0712321398062452,,experiment,cRDM,2.0,,,,1677.3342107000003,111,49,female,True
581,0.1835315015274117,25,up,up,1.1840862000003654,0.3166396538904359,,experiment,cRDM,2.0,,,,1678.6010871000003,111,49,female,True
582,98.0,25,M,up,1.0797168999997666,0.3727965999209661,,experiment,emotion,2.0,,,,1715.9994209,111,49,female,True
583,83.0,25,M,up,1.3241867000001548,1.302449582843824,,experiment,emotion,2.0,,,,1718.6659083,111,49,female,True
584,93.0,25,F,down,0.8905771999998251,0.7551409527761215,,experiment,emotion,2.0,,,,1721.0325497,111,49,female,True
585,98.0,25,F,up,0.6493350999999166,1.6265247751806868,,experiment,emotion,2.0,,,,1723.8157861,111,49,female,True
586,93.0,25,M,up,1.4070386999997029,0.7166747001077608,,experiment,emotion,2.0,,,,1725.4490598000002,111,49,female,True
587,88.0,25,F,up,1.2781458999997994,0.8982573765052406,,experiment,emotion,2.0,,,,1728.04896,111,49,female,True
588,83.0,25,M,down,0.6729411000001164,1.0752980521281978,,experiment,emotion,2.0,,,,1730.6822016,111,49,female,True
589,88.0,25,M,down,0.6789410999999745,1.0009966810797912,,experiment,emotion,2.0,,,,1732.6321506,111,49,female,True
590,98.0,25,F,down,0.5803736000002573,0.669592644753845,,experiment,emotion,2.0,,,,1734.2487150000002,111,49,female,True
591,88.0,25,F,down,0.6034368000000541,1.0829368223599984,,experiment,emotion,2.0,,,,1736.1986488000002,111,49,female,True
592,93.0,25,F,down,0.6418452000002617,0.53616562648886,,experiment,emotion,2.0,,,,1737.6152542,111,49,female,True
593,98.0,25,F,down,0.6992918999999347,1.9068365975104644,,experiment,emotion,2.0,,,,1740.4318215000003,111,49,female,True
594,93.0,25,F,down,1.014085700000123,1.1641550143219237,,experiment,emotion,2.0,,,,1742.5650553,111,49,female,True
595,83.0,25,F,down,0.7095820999998068,0.7287326560859715,,experiment,emotion,2.0,,,,1744.5815366000002,111,49,female,True
596,88.0,25,M,down,0.7491438999995808,0.3546985810384846,,experiment,emotion,2.0,,,,1745.9149411000003,111,49,female,True
597,83.0,25,M,down,0.7338240999997652,0.5226264652763115,,experiment,emotion,2.0,,,,1747.448222,111,49,female,True
598,98.0,25,M,up,0.9482413999999152,0.6753669957056303,,experiment,emotion,2.0,,,,1749.114841,111,49,female,True
599,83.0,25,M,up,1.978415699999914,1.2740567940009715,,experiment,emotion,2.0,,,,1751.6147413,111,49,female,True
600,93.0,25,F,up,0.7694818999998461,1.543698084405736,,experiment,emotion,2.0,,,,1755.4145802000005,111,49,female,True
601,93.0,25,M,up,1.2358883000001697,0.866694802899824,,experiment,emotion,2.0,,,,1757.3311894000003,111,49,female,True
602,88.0,25,M,down,1.1009699999999611,1.2787095341102492,,experiment,emotion,2.0,,,,1760.1310938,111,49,female,True
603,88.0,25,F,down,1.1824805000001106,0.5061042600181386,,experiment,emotion,2.0,,,,1761.9975896,111,49,female,True
604,83.0,25,M,down,0.9291809000001194,1.4653874992484883,,experiment,emotion,2.0,,,,1764.9308863,111,49,female,True
605,98.0,25,F,up,0.9629024000000754,0.5091910431154171,,experiment,emotion,2.0,,,,1766.6641495,111,49,female,True
606,93.0,25,F,up,0.9717047999997704,1.8544606231135632,,experiment,emotion,2.0,,,,1769.7473578,111,49,female,True
607,83.0,25,M,down,0.7644120999998449,1.8434196450668323,,experiment,emotion,2.0,,,,1772.8306081,111,49,female,True
608,98.0,25,M,up,0.8178988999998182,1.621758485434903,,experiment,emotion,2.0,,,,1775.4971475000002,111,49,female,True
609,98.0,25,F,up,1.1712714000000233,0.6299883314312147,,experiment,emotion,2.0,,,,1777.2137685000002,111,49,female,True
610,88.0,25,M,down,1.005370600000333,1.0351333441848585,,experiment,emotion,2.0,,,,1779.7136691,111,49,female,True
611,83.0,25,F,down,1.2567795999998452,0.6987310193364793,,experiment,emotion,2.0,,,,1781.6802367,111,49,female,True
612,88.0,25,F,up,1.0379110999997463,1.9764231317653016,,experiment,emotion,2.0,,,,1785.1801207000003,111,49,female,True
613,93.0,25,F,up,1.7799746999999115,1.7175010927352472,,experiment,emotion,2.0,,,,1788.230003,111,49,female,True
614,83.0,25,M,down,1.0456215000003797,1.8268336726802663,,experiment,emotion,2.0,,,,1792.0964392,111,49,female,True
615,98.0,25,M,up,0.7942295000002559,0.317510990516534,,experiment,emotion,2.0,,,,1793.7297966,111,49,female,True
616,93.0,25,M,down,0.6967308999996931,1.904608663014716,,experiment,emotion,2.0,,,,1796.6963168000002,111,49,female,True
617,98.0,25,F,up,0.9234094000003096,1.1750947641235812,,experiment,emotion,2.0,,,,1798.8296112000005,111,49,female,True
618,83.0,25,F,down,0.8178987000001143,1.3855893252089353,,experiment,emotion,2.0,,,,1801.3961517000002,111,49,female,True
619,93.0,25,M,up,1.0202047000002494,0.5808822679203021,,experiment,emotion,2.0,,,,1803.062789,111,49,female,True
620,88.0,25,F,down,0.6876784000000953,1.8615822170529943,,experiment,emotion,2.0,,,,1806.2293227,111,49,female,True
621,88.0,25,M,up,0.88543750000008,0.4736225878799476,,experiment,emotion,2.0,,,,1807.6625633,111,49,female,True
622,93.0,25,M,up,1.614514600000348,0.7462523165621275,,experiment,emotion,2.0,,,,1809.5625284,111,49,female,True
623,98.0,25,M,up,0.9784405000000334,1.9531248058473003,,experiment,emotion,2.0,,,,1813.3955623,111,49,female,True
624,88.0,25,F,down,0.6323922000001403,1.74330856442965,,experiment,emotion,2.0,,,,1816.3955917000003,111,49,female,True
625,83.0,25,F,up,1.2401265999997122,1.6369578966839464,,experiment,emotion,2.0,,,,1818.9288535,111,49,female,True
626,83.0,25,M,down,0.8462399999998524,0.5963408513336368,,experiment,emotion,2.0,,,,1821.0287531,111,49,female,True
627,88.0,25,F,up,0.9687213000001976,1.5567148691258923,,experiment,emotion,2.0,,,,1823.6952378,111,49,female,True
628,98.0,25,F,up,0.887429300000349,1.296338977657886,,experiment,emotion,2.0,,,,1826.2285445,111,49,female,True
629,93.0,25,M,down,0.7960055999997167,1.788007548785409,,experiment,emotion,2.0,,,,1829.1949668,111,49,female,True
630,83.0,25,M,down,0.7502603999996609,0.5661223173493536,,experiment,emotion,2.0,,,,1830.8117111,111,49,female,True
631,98.0,25,F,up,0.74864529999968,0.4005245468865043,,experiment,emotion,2.0,,,,1832.2283344,111,49,female,True
632,93.0,25,M,up,0.712370700000065,0.6614830111959034,,experiment,emotion,2.0,,,,1833.9116187,111,49,female,True
633,93.0,25,F,up,0.9241391000000476,1.2597976728947338,,experiment,emotion,2.0,,,,1836.1448282,111,49,female,True
634,83.0,25,F,up,0.9812040000001616,1.290210200941055,,experiment,emotion,2.0,,,,1838.6447637,111,49,female,True
635,88.0,25,F,up,2.096674599999915,1.3392146685115385,,experiment,emotion,2.0,,,,1841.2613072,111,49,female,True
636,98.0,25,M,up,0.8297536000000036,0.8316676306697066,,experiment,emotion,2.0,,,,1844.4611953,111,49,female,True
637,88.0,25,M,down,0.9046172000003024,1.042195425883381,,experiment,emotion,2.0,,,,1846.5943369,111,49,female,True
638,88.0,25,F,up,1.288924799999677,1.2008884919974183,,experiment,emotion,2.0,,,,1848.9610174,111,49,female,True
639,88.0,25,F,up,1.0286545999997545,0.4298821751862791,,experiment,emotion,2.0,,,,1850.944285,111,49,female,True
640,98.0,25,M,down,0.8871940000003633,1.7188568281573495,,experiment,emotion,2.0,,,,1853.9608242,111,49,female,True
641,93.0,25,M,down,0.8174763999995776,0.4967053835388744,,experiment,emotion,2.0,,,,1855.6274553000003,111,49,female,True
642,83.0,25,M,up,0.9559960000001412,1.3220897237666214,,experiment,emotion,2.0,,,,1858.0439955,111,49,female,True
643,83.0,25,M,down,0.9563143999998828,0.3412857295597211,,experiment,emotion,2.0,,,,1859.6106245,111,49,female,True
644,93.0,25,M,up,1.107809399999951,1.5390091340884098,,experiment,emotion,2.0,,,,1862.3771548,111,49,female,True
645,98.0,25,F,up,0.9688574000001609,0.6716817099415597,,experiment,emotion,2.0,,,,1864.427082,111,49,female,True
646,98.0,25,F,up,1.0698809000000438,0.5681031854400485,,experiment,emotion,2.0,,,,1866.227033,111,49,female,True
647,83.0,25,M,down,0.9380208000002312,1.314188940188868,,experiment,emotion,2.0,,,,1868.8769173,111,49,female,True
648,98.0,25,F,down,1.338767799999914,0.977586976715024,,experiment,emotion,2.0,,,,1871.0601514,111,49,female,True
649,88.0,25,F,down,0.9864677000000484,0.9983697747735938,,experiment,emotion,2.0,,,,1873.6934575,111,49,female,True
650,93.0,25,F,down,0.7589233999997305,0.8210893365572443,,experiment,emotion,2.0,,,,1875.759994,111,49,female,True
651,88.0,25,M,down,0.7396512000000257,1.149416059257527,,experiment,emotion,2.0,,,,1877.9432567,111,49,female,True
652,83.0,25,F,down,0.9730180999999902,0.5529175315065626,,experiment,emotion,2.0,,,,1879.5098576,111,49,female,True
653,93.0,25,F,down,0.7458293999998205,1.4907219612257263,,experiment,emotion,2.0,,,,1882.243081,111,49,female,True
654,88.0,25,F,down,1.0558826999999835,0.3827738154285414,,experiment,emotion,2.0,,,,1883.6430197,111,49,female,True
655,93.0,25,M,down,1.3969437000000653,0.373869419528515,,experiment,emotion,2.0,,,,1885.3429722,111,49,female,True
656,83.0,25,M,up,1.2674142999999276,1.809602503264211,,experiment,emotion,2.0,,,,1888.8095075,111,49,female,True
657,98.0,25,F,up,0.8521614000001136,1.374743321206532,,experiment,emotion,2.0,,,,1891.7427284,111,49,female,True
658,93.0,25,M,up,1.287003200000072,1.6992748433932268,,experiment,emotion,2.0,,,,1894.5758757,111,49,female,True
659,98.0,25,F,up,0.9153845999999248,1.571169243796236,,experiment,emotion,2.0,,,,1897.6925124,111,49,female,True
660,83.0,25,M,down,0.9975079000000732,1.9981533471065709,,experiment,emotion,2.0,,,,1900.8923735000003,111,49,female,True
661,88.0,25,M,down,0.7862608000000364,0.9647470554525436,,experiment,emotion,2.0,,,,1903.125627,111,49,female,True
662,0.1835315015274117,25,up,up,0.9009995999999774,0.450330626912531,,experiment,cRDM,3.0,,,,2001.8717503000005,111,49,female,True
663,0.1835315015274117,25,up,up,0.640314500000386,1.0126953573858402,,experiment,cRDM,3.0,,,,2004.0384326000003,111,49,female,True
664,0.1835315015274117,25,down,down,0.6352731000001768,1.9238594818986592,,experiment,cRDM,3.0,,,,2006.8714528,111,49,female,True
665,0.1835315015274117,25,down,down,0.7658299999998235,1.197789787075329,,experiment,cRDM,3.0,,,,2008.9549054,111,49,female,True
666,0.1835315015274117,25,up,up,0.6735355999999229,0.7513031937610319,,experiment,cRDM,3.0,,,,2010.7381951,111,49,female,True
667,0.1835315015274117,25,down,down,0.7943520000003446,0.5993082021976905,,experiment,cRDM,3.0,,,,2012.2714045,111,49,female,True
668,0.1835315015274117,25,up,up,0.6677506999999423,1.92054318503955,,experiment,cRDM,3.0,,,,2015.2380103,111,49,female,True
669,0.1835315015274117,25,up,up,0.6517692999998417,0.7646044709083621,,experiment,cRDM,3.0,,,,2016.9379545,111,49,female,True
670,0.1835315015274117,25,down,down,0.5445749999998952,1.967513617923757,,experiment,cRDM,3.0,,,,2019.8211514,111,49,female,True
671,0.1835315015274117,25,down,down,0.8419332000003124,1.4674005850124066,,experiment,cRDM,3.0,,,,2022.0877747,111,49,female,True
672,0.1835315015274117,25,down,up,1.280035400000088,1.2984920471350614,,experiment,cRDM,3.0,,,,2024.487682,111,49,female,True
673,0.1835315015274117,25,down,down,0.6259530000006635,0.7522294745322213,,experiment,cRDM,3.0,,,,2026.7707862,111,49,female,True
674,0.1835315015274117,25,down,down,1.2782059999999549,1.5868918214780734,,experiment,cRDM,3.0,,,,2029.237489,111,49,female,True
675,0.1835315015274117,25,down,down,0.6911638999999923,1.7775967100547208,,experiment,cRDM,3.0,,,,2032.5705946000005,111,49,female,True
676,0.1835315015274117,25,up,up,0.7067803999998432,0.9347917885806492,,experiment,cRDM,3.0,,,,2034.4539331,111,49,female,True
677,0.1835315015274117,25,up,up,1.257818699999916,1.4971661911819942,,experiment,cRDM,3.0,,,,2036.9038419000003,111,49,female,True
678,0.1835315015274117,25,up,up,1.3546218000001318,1.40799950501561,,experiment,cRDM,3.0,,,,2039.8370716,111,49,female,True
679,0.1835315015274117,25,up,down,0.6597121000004336,0.4932344636811575,,experiment,cRDM,3.0,,,,2041.9369807000005,111,49,female,True
680,0.1835315015274117,25,down,down,0.7127966999996715,1.2688086729829098,,experiment,cRDM,3.0,,,,2044.1369025,111,49,female,True
681,0.1835315015274117,25,up,up,0.9581715000003896,0.6446665994446845,,experiment,cRDM,3.0,,,,2045.7535047,111,49,female,True
682,0.1835315015274117,25,up,up,1.1716105000004973,0.4541663561888196,,experiment,cRDM,3.0,,,,2047.4201006000003,111,49,female,True
683,0.1835315015274117,25,down,up,1.1596382000006995,0.7539634244795737,,experiment,cRDM,3.0,,,,2049.6200085,111,49,female,True
684,0.1835315015274117,25,up,up,0.7625053000001571,1.561860045430011,,experiment,cRDM,3.0,,,,2052.6032239,111,49,female,True
685,0.1835315015274117,25,down,down,0.6561644999992495,1.847153589589403,,experiment,cRDM,3.0,,,,2055.486512,111,49,female,True
686,0.1835315015274117,25,down,down,0.6336360999994213,0.7548382305694897,,experiment,cRDM,3.0,,,,2057.153063,111,49,female,True
687,0.1835315015274117,25,up,down,0.6277399999999034,1.2189601906189678,,experiment,cRDM,3.0,,,,2059.2529865,111,49,female,True
688,0.1835315015274117,25,up,up,0.9567815000000336,1.2124134841972365,,experiment,cRDM,3.0,,,,2061.3529074000003,111,49,female,True
689,0.1835315015274117,25,down,down,0.622155300000486,1.1311406286647037,,experiment,cRDM,3.0,,,,2063.7195053,111,49,female,True
690,0.1835315015274117,25,up,up,0.7702494000004663,0.7042585072445892,,experiment,cRDM,3.0,,,,2065.319415,111,49,female,True
691,0.1835315015274117,25,down,down,0.7160132999997586,1.5487292398273564,,experiment,cRDM,3.0,,,,2067.9026512,111,49,female,True
692,0.1835315015274117,25,down,down,0.7185681000000841,1.1920395161226027,,experiment,cRDM,3.0,,,,2070.0690791,111,49,female,True
693,0.1835315015274117,25,down,down,0.8200742000008177,0.3892388422557081,,experiment,cRDM,3.0,,,,2071.4525391,111,49,female,True
694,0.1835315015274117,25,up,up,0.5879095999998754,1.7006377414302143,,experiment,cRDM,3.0,,,,2074.2357635000003,111,49,female,True
695,0.1835315015274117,25,up,down,0.6182968000002802,1.0201566836673874,,experiment,cRDM,3.0,,,,2076.1023576,111,49,female,True
696,0.1835315015274117,25,up,up,0.5840223000004698,0.7492902233060205,,experiment,cRDM,3.0,,,,2077.7356321,111,49,female,True
697,0.1835315015274117,25,down,down,0.6243930999999066,0.6182445272549082,,experiment,cRDM,3.0,,,,2079.2022444,111,49,female,True
698,0.1835315015274117,25,down,up,0.5874260000000504,1.709151102625265,,experiment,cRDM,3.0,,,,2081.8021365,111,49,female,True
699,0.1835315015274117,25,up,down,0.8762657999996009,1.4760338436914218,,experiment,cRDM,3.0,,,,2084.1353803,111,49,female,True
700,0.1835315015274117,25,down,down,0.6826818999998068,1.0827885717691434,,experiment,cRDM,3.0,,,,2086.3519602,111,49,female,True
701,0.1835315015274117,25,up,up,0.6097636000004059,1.5652384485801711,,experiment,cRDM,3.0,,,,2088.8518724,111,49,female,True
702,0.1835315015274117,25,up,up,1.0694572999991578,0.4655606363123556,,experiment,cRDM,3.0,,,,2090.1851752,111,49,female,True
703,0.1835315015274117,25,up,down,1.0898805000006178,0.6400691786112429,,experiment,cRDM,3.0,,,,2092.1517451,111,49,female,True
704,0.1835315015274117,25,down,up,1.2033289000000875,0.3168006348516502,,experiment,cRDM,3.0,,,,2093.8183251,111,49,female,True
705,0.1835315015274117,25,down,down,0.7517563000001246,1.353319633835891,,experiment,cRDM,3.0,,,,2096.6348896,111,49,female,True
706,0.1835315015274117,25,up,down,2.069802099999833,1.8016412696434423,,experiment,cRDM,3.0,,,,2099.4348005,111,49,female,True
707,0.1835315015274117,25,down,down,0.6159171999997852,0.7640276667530265,,experiment,cRDM,3.0,,,,2102.5347030000003,111,49,female,True
708,0.1835315015274117,25,down,up,1.4623559999999998,1.3963041623788113,,experiment,cRDM,3.0,,,,2104.8012568,111,49,female,True
709,0.1835315015274117,25,up,up,1.1721577999996953,1.101148397661145,,experiment,cRDM,3.0,,,,2107.6344704000003,111,49,female,True
710,0.1835315015274117,25,up,down,0.7792106999995667,1.9103644205743555,,experiment,cRDM,3.0,,,,2110.9844002,111,49,female,True
711,0.1835315015274117,25,down,down,0.9321093999997174,0.5298801397678895,,experiment,cRDM,3.0,,,,2112.5674931000003,111,49,female,True
712,0.1835315015274117,25,up,down,0.9783848999995826,0.920865476633264,,experiment,cRDM,3.0,,,,2114.6842617,111,49,female,True
713,0.1835315015274117,25,down,down,1.7084414000000834,0.6218435220712663,,experiment,cRDM,3.0,,,,2116.5341386,111,49,female,True
714,0.1835315015274117,25,down,down,0.6499724999994214,1.3457572692246953,,experiment,cRDM,3.0,,,,2119.8506847,111,49,female,True
715,0.1835315015274117,25,down,up,0.616010799999458,0.3312367836182112,,experiment,cRDM,3.0,,,,2121.100621,111,49,female,True
716,0.1835315015274117,25,up,down,0.6300464000005377,1.079967235882187,,experiment,cRDM,3.0,,,,2123.050548,111,49,female,True
717,0.1835315015274117,25,up,up,0.6707648000001427,1.5425377005013017,,experiment,cRDM,3.0,,,,2125.4838265000003,111,49,female,True
718,0.1835315015274117,25,down,down,0.6208979000002728,0.9170698028338716,,experiment,cRDM,3.0,,,,2127.3337194,111,49,female,True
719,0.1835315015274117,25,down,up,1.1077635999999984,0.7407261386745817,,experiment,cRDM,3.0,,,,2128.9668676,111,49,female,True
720,0.1835315015274117,25,up,down,0.5728766000001997,0.8268682788713972,,experiment,cRDM,3.0,,,,2131.1667584,111,49,female,True
721,0.1835315015274117,25,up,up,0.6254254000004948,1.5072510931540166,,experiment,cRDM,3.0,,,,2133.5001644,111,49,female,True
722,0.1835315015274117,25,up,up,1.6034970000000612,1.3207561084204522,,experiment,cRDM,3.0,,,,2135.7001019,111,49,female,True
723,0.1835315015274117,25,up,up,1.0776454999995622,1.4401021631853803,,experiment,cRDM,3.0,,,,2138.9999462,111,49,female,True
724,0.1835315015274117,25,up,down,0.8132118000003175,0.9239315051139914,,experiment,cRDM,3.0,,,,2141.2663544,111,49,female,True
725,0.1835315015274117,25,down,down,0.7870726999999533,0.9727785573308584,,experiment,cRDM,3.0,,,,2143.3164758000003,111,49,female,True
726,0.1835315015274117,25,down,up,2.0155196999994587,1.8043446261165876,,experiment,cRDM,3.0,,,,2146.183048,111,49,female,True
727,0.1835315015274117,25,up,down,0.9046466999998302,0.704468501102893,,experiment,cRDM,3.0,,,,2149.1829248,111,49,female,True
728,0.1835315015274117,25,down,down,0.7371583000003739,1.1198137203138006,,experiment,cRDM,3.0,,,,2151.4663999,111,49,female,True
729,0.1835315015274117,25,down,down,0.7038119999997434,0.6714361073032783,,experiment,cRDM,3.0,,,,2153.1327481000003,111,49,female,True
730,0.1835315015274117,25,down,down,0.7451974000005066,0.8489408708791966,,experiment,cRDM,3.0,,,,2154.949347,111,49,female,True
731,0.1835315015274117,25,up,up,0.8332666000005702,1.0309686735918484,,experiment,cRDM,3.0,,,,2156.9992624,111,49,female,True
732,0.1835315015274117,25,down,down,0.9328743000005488,1.4629665204870594,,experiment,cRDM,3.0,,,,2159.5657089,111,49,female,True
733,0.1835315015274117,25,down,up,1.196828000000096,1.2491320346925174,,experiment,cRDM,3.0,,,,2162.0157487,111,49,female,True
734,0.1835315015274117,25,down,down,0.7723525999999765,1.85780139961391,,experiment,cRDM,3.0,,,,2165.3322639000003,111,49,female,True
735,0.1835315015274117,25,up,down,1.0066584000005605,1.2263530970934502,,experiment,cRDM,3.0,,,,2167.5988686,111,49,female,True
736,0.1835315015274117,25,up,up,0.9203215999996246,1.2841172396183096,,experiment,cRDM,3.0,,,,2170.1652109,111,49,female,True
737,0.1835315015274117,25,down,down,0.7335683999999674,1.7974079216850831,,experiment,cRDM,3.0,,,,2173.1319782,111,49,female,True
738,0.1835315015274117,25,up,up,0.6022905999998329,1.279987324198909,,experiment,cRDM,3.0,,,,2175.4152241,111,49,female,True
739,0.1835315015274117,25,down,down,0.802353299999595,0.4892344944190731,,experiment,cRDM,3.0,,,,2176.7651664,111,49,female,True
740,0.1835315015274117,25,up,up,0.697988500000065,1.4414542882578132,,experiment,cRDM,3.0,,,,2179.2815774,111,49,female,True
741,0.1835315015274117,25,up,down,0.7128436000002694,0.8923785941778888,,experiment,cRDM,3.0,,,,2181.1316814,111,49,female,True
742,98.0,25,M,up,1.7347537000005104,1.6645941375800906,,experiment,emotion,3.0,,,,2296.0606286,111,49,female,True
743,83.0,25,M,down,0.6248679000000266,1.989705034651517,,experiment,emotion,3.0,,,,2300.0604793,111,49,female,True
744,93.0,25,F,down,1.4716533000000709,1.719959030318171,,experiment,emotion,3.0,,,,2302.6937059,111,49,female,True
745,98.0,25,F,up,0.7354353000000629,1.6929467219200502,,experiment,emotion,3.0,,,,2306.1269115,111,49,female,True
746,93.0,25,M,up,1.0768511999995098,1.2782919599857214,,experiment,emotion,3.0,,,,2308.3935071,111,49,female,True
747,88.0,25,F,down,0.6879753000002893,1.68167588247607,,experiment,emotion,3.0,,,,2311.4433857,111,49,female,True
748,83.0,25,M,down,0.6148421000007147,1.076074556897621,,experiment,emotion,3.0,,,,2313.476441,111,49,female,True
749,88.0,25,M,down,0.5954747000005227,0.8965990729451192,,experiment,emotion,3.0,,,,2315.259867,111,49,female,True
