,stimLvl,stimTime,rand,response,rt,precedingITI,trialNumber,trialType,stimuli,block,estIntens,estThres,estSlope,trialStart,subject,age,gender,headRest
0,150.0,100,F,,,1.0833435480829403,,introTrial,emotion,,,,,137.02914410000085,179,22,female,True
1,0.9,100,down,up,1.4671186999985366,1.895890062700259,,introTrial,cRDM,,,,,142.84560229999988,179,22,female,True
2,0.9,25,down,down,0.990144399998826,1.3719711706969189,,tutorial,cRDM,,,,,177.6275999999998,179,22,female,True
3,0.9,25,down,down,0.6378613999986555,0.5162986132539825,,tutorial,cRDM,,,,,179.41089009999996,179,22,female,True
4,0.9,25,up,up,0.4246629000008397,0.323909945202407,,tutorial,cRDM,,,,,180.64417010000037,179,22,female,True
5,0.9,25,down,up,0.7615312999987509,0.8383332791690916,,tutorial,cRDM,,,,,182.17726129999937,179,22,female,True
6,0.9,25,down,up,0.4234421000001021,0.6300811590037485,,tutorial,cRDM,,,,,183.8273732000016,179,22,female,True
7,0.9,25,down,down,0.4775632000018959,1.7080380685235887,,tutorial,cRDM,,,,,186.2272696,179,22,female,True
8,0.9,25,up,down,0.417297600000893,1.9095342376739308,,tutorial,cRDM,,,,,188.877443100002,179,22,female,True
9,0.9,25,up,down,1.3957505999969726,1.743086335796279,,tutorial,cRDM,,,,,191.32707890000165,179,22,female,True
10,0.9,25,up,down,0.6135128999994777,0.3955187930347168,,tutorial,cRDM,,,,,193.37730329999977,179,22,female,True
11,0.9,25,up,up,1.1615112999970734,0.804265254072414,,tutorial,cRDM,,,,,195.06028890000016,179,22,female,True
12,200.0,25,M,up,0.8564718000016001,1.4493590471868925,,tutorial,emotion,,,,,204.39328880000176,179,22,female,True
13,200.0,25,M,up,0.4756097000026784,0.908037327387079,,tutorial,emotion,,,,,206.44314880000093,179,22,female,True
14,200.0,25,F,up,0.383505800000421,1.9183798572850044,,tutorial,emotion,,,,,209.10974859999988,179,22,female,True
15,0.0,25,F,down,0.4267517999978736,1.1089604760057956,,tutorial,emotion,,,,,210.94299089999916,179,22,female,True
16,0.0,25,M,down,0.4168126000004122,1.9401828629106732,,tutorial,emotion,,,,,213.59290229999897,179,22,female,True
17,200.0,25,F,down,0.4001897999987704,1.91277185576044,,tutorial,emotion,,,,,216.20945850000132,179,22,female,True
18,0.0,25,M,down,0.5690854000022227,1.2516496055401276,,tutorial,emotion,,,,,218.1596626999999,179,22,female,True
19,200.0,25,M,up,0.4261955000001762,1.5609680015024767,,tutorial,emotion,,,,,220.55956259999948,179,22,female,True
20,0.0,25,F,down,0.4724787999984983,0.5841858118745,,tutorial,emotion,,,,,221.85926520000064,179,22,female,True
21,0.0,25,F,down,0.4178500999987591,0.7817664103133046,,tutorial,emotion,,,,,223.37586519999968,179,22,female,True
22,0.29,25,up,down,0.8947425999976986,0.9948026433023982,,psi_staircase_training,cRDM,,0.25,0.2569312402994632,0.105,227.6599681000007,179,22,female,True
23,0.39,25,up,down,0.9817945999966468,0.6295377780062066,,psi_staircase_training,cRDM,,0.3546095744690496,0.3616109212953642,0.1060620300265678,229.45895400000157,179,22,female,True
24,0.45,25,down,down,0.6621797000007064,1.9051618079675148,,psi_staircase_training,cRDM,,0.4150689485921841,0.4216473382772667,0.0996547352408428,232.6255229999988,179,22,female,True
25,0.44,25,down,down,0.6809393000003183,0.6394588217331665,,psi_staircase_training,cRDM,,0.4054457120615716,0.4121127131824852,0.1009970925045164,234.2087850999997,179,22,female,True
26,0.43,25,up,down,0.6426809000004141,1.4754660298060764,,psi_staircase_training,cRDM,,0.3958107273700079,0.4025120380008885,0.1015168405425151,236.6420443999996,179,22,female,True
27,0.46,25,down,up,0.7527339000007487,0.4385994137525605,,psi_staircase_training,cRDM,,0.4310053600809398,0.4376465946403073,0.1006067599167771,237.99197020000065,179,22,female,True
28,0.48,25,up,down,0.5781840000017837,0.781861194566902,,psi_staircase_training,cRDM,,0.4533049667951992,0.4600314922295603,0.1018988146555257,239.8085936999996,179,22,female,True
29,0.52,25,down,down,1.0405713000000103,1.381828345159432,,psi_staircase_training,cRDM,,0.4678944128238445,0.4743004204244534,0.0970433528492762,242.02514620000147,179,22,female,True
30,0.47,25,down,down,0.7002572000019427,0.8252446121974983,,psi_staircase_training,cRDM,,0.4680623452523526,0.4740648205654978,0.0909303213638475,244.15842989999877,179,22,female,True
31,0.47,25,up,down,0.6157193000035477,0.9703381433822424,,psi_staircase_training,cRDM,,0.4627325021499482,0.4694445120198811,0.1016789212166731,246.1249777000012,179,22,female,True
32,0.52,25,down,up,1.126448300001357,1.2031013337423988,,psi_staircase_training,cRDM,,0.4748074578283651,0.4801619830309732,0.0811146522098486,248.20823050000035,179,22,female,True
33,0.52,25,down,down,0.5629707000007329,0.864132944637604,,psi_staircase_training,cRDM,,0.4707233762855733,0.4794708592657341,0.1325139041836424,250.47468229999868,179,22,female,True
34,0.52,25,down,down,0.7560727000018233,0.5753093518598785,,psi_staircase_training,cRDM,,0.4701525009674172,0.4786580631121971,0.1288490928919377,251.87463560000103,179,22,female,True
35,0.52,25,up,down,0.7260385999979917,1.6159110470282882,,psi_staircase_training,cRDM,,0.4696681780149013,0.4779069112899406,0.1248069546724719,254.52470240000184,179,22,female,True
36,0.63,25,up,up,1.093462400000135,1.4320740047035465,,psi_staircase_training,cRDM,,0.4716086751601935,0.4813303976121847,0.1472724668827488,256.9412491000003,179,22,female,True
37,0.53,25,down,down,0.6078409000001557,1.205239877132389,,psi_staircase_training,cRDM,,0.4713538314612855,0.4809539854116205,0.145430849492152,259.50781189999907,179,22,female,True
38,0.53,25,down,down,0.6032712999985961,1.8262699821217667,,psi_staircase_training,cRDM,,0.4705212696275176,0.4800139108675803,0.1438021605287234,262.22437680000075,179,22,female,True
39,0.53,25,up,down,0.6413843000009365,1.118025807643127,,psi_staircase_training,cRDM,,0.4696922410758348,0.4790677632189461,0.1420279462974206,264.22430990000066,179,22,female,True
40,0.65,25,up,down,0.5994390999985626,1.4903151737869242,,psi_staircase_training,cRDM,,0.4735076484208932,0.4834797208399314,0.1510649694370139,266.62422180000067,179,22,female,True
41,0.66,25,up,down,0.5742079000010563,1.696185852080205,,psi_staircase_training,cRDM,,0.4754947408692653,0.4866468022371934,0.1689403906142353,269.2074508000005,179,22,female,True
42,0.66,25,up,down,1.1349501000004238,1.1212248464949657,,psi_staircase_training,cRDM,,0.47766996938957,0.4897582747733661,0.1831233676023134,271.1907040000005,179,22,female,True
43,0.65,25,down,down,0.6160081999987597,1.3018385065597131,,psi_staircase_training,cRDM,,0.4800758728296374,0.4927279495425422,0.1916638289048905,273.8906414000012,179,22,female,True
44,0.65,25,down,down,0.8510916999985056,0.6575219003439929,,psi_staircase_training,cRDM,,0.4797783000255954,0.4923942861516681,0.1911170996827526,275.4405563,179,22,female,True
45,0.65,25,down,down,0.6022355000022799,1.634405166844063,,psi_staircase_training,cRDM,,0.4794795715576073,0.4920574728602721,0.1905401601618222,278.19043690000035,179,22,female,True
46,0.65,25,up,down,0.4949544000010064,0.5559260243988964,,psi_staircase_training,cRDM,,0.479180050193042,0.4917178058064421,0.1899320009881854,279.62371429999985,179,22,female,True
47,0.65,25,up,down,0.4682709999979124,0.6148837743092823,,psi_staircase_training,cRDM,,0.4815633969763208,0.4944370508570471,0.1950204579663668,280.9903775999992,179,22,female,True
48,0.64,25,down,down,0.5891388999989431,1.5503605948940502,,psi_staircase_training,cRDM,,0.4837112294167984,0.4967555389406968,0.1976056868372296,283.2734624000004,179,22,female,True
49,0.64,25,down,down,0.6464484999996785,1.7013511041213567,,psi_staircase_training,cRDM,,0.4834422785389795,0.4964750588929668,0.1974310337032517,285.84014450000177,179,22,female,True
50,0.64,25,up,down,0.6025634999969043,0.7882562431233037,,psi_staircase_training,cRDM,,0.4831690013770153,0.4961894653618186,0.1972444554418652,287.5400956000012,179,22,female,True
51,0.63,25,up,down,0.5765883999993093,1.558996330838181,,psi_staircase_training,cRDM,,0.4850886437267141,0.498200058714018,0.1986222543422012,289.99003119999907,179,22,female,True
52,100.0,25,M,down,0.9282891000002564,1.3275074801194504,,psi_staircase_training,emotion,,100.0,100.0,25.00050000000001,297.57330999999976,179,22,female,True
53,145.0,25,M,up,0.9458765999988828,1.326244228116393,,psi_staircase_training,emotion,,145.25719053245996,145.25719053245996,25.00050000000028,300.17276409999977,179,22,female,True
54,121.0,25,F,up,0.5323895000001357,0.3752131027857146,,psi_staircase_training,emotion,,120.36392901436103,120.36392901436103,25.71326925488699,301.85620420000123,179,22,female,True
55,97.0,25,F,down,0.6004577999992762,0.5144821452421935,,psi_staircase_training,emotion,,102.3887610608496,102.3887610608496,26.14633372628729,303.25617409999904,179,22,female,True
56,113.0,25,M,down,0.661184200002026,0.3280120565170196,,psi_staircase_training,emotion,,114.01123255420406,114.01123255420406,23.00305641778335,304.5394505000004,179,22,female,True
57,127.0,25,F,up,0.6582916000006662,1.6650905354817838,,psi_staircase_training,emotion,,123.15505271238727,123.15505271238727,23.86267166612523,307.23933359999864,179,22,female,True
58,117.0,25,M,up,0.576730699998734,1.846544278254524,,psi_staircase_training,emotion,,116.72664759921038,116.72664759921038,20.612160618334432,310.10590800000136,179,22,female,True
59,107.0,25,F,up,0.8051085999977659,1.0857085437477216,,psi_staircase_training,emotion,,111.41772370799676,111.41772370799676,20.39996786109954,312.12250610000046,179,22,female,True
60,91.0,25,F,down,0.8795623000005435,1.1619143976967456,,psi_staircase_training,emotion,,104.32443105099112,104.32443105099112,26.32628876540062,314.4390695000002,179,22,female,True
61,93.0,25,M,down,0.5259767000025022,1.49674728828672,,psi_staircase_training,emotion,,107.92512315738632,107.92512315738632,23.70033126942176,317.1556074,179,22,female,True
62,124.0,25,F,down,0.5317778999997245,1.1854022212495865,,psi_staircase_training,emotion,,110.22796413543166,110.22796413543166,21.45892762814926,319.2388867000009,179,22,female,True
63,136.0,25,F,up,0.7777793000022939,0.8296490369578762,,psi_staircase_training,emotion,,116.16830498100494,116.16830498100494,28.2226692258824,320.9388375000017,179,22,female,True
64,135.0,25,F,up,0.8337716999994882,0.341867959312192,,psi_staircase_training,emotion,,114.08183245391676,114.08183245391676,26.53317734822661,322.4388303999985,179,22,female,True
65,93.0,25,M,down,0.595259999998234,0.700878345027929,,psi_staircase_training,emotion,,112.53840227939776,112.53840227939776,25.007941771224505,324.30535130000135,179,22,female,True
66,133.0,25,M,down,1.1840166000001773,1.8390078277804431,,psi_staircase_training,emotion,,114.04009940438408,114.04009940438408,23.369363775219664,327.0885608999997,179,22,female,True
67,143.0,25,F,down,0.5470322000001033,0.6665286141026112,,psi_staircase_training,emotion,,118.82296656559922,118.82296656559922,29.30224405337064,329.28853439999875,179,22,female,True
68,150.0,25,F,up,0.5962194999992789,1.7495285200865396,,psi_staircase_training,emotion,,124.17810929752318,124.17810929752318,34.276373099712494,331.93839780000053,179,22,female,True
69,150.0,25,M,down,0.9863220999977784,1.91698177102932,,psi_staircase_training,emotion,,122.54840332431884,122.54840332431884,33.27326122925509,334.7883164999985,179,22,female,True
70,155.0,25,M,up,0.5191281000006711,0.9392284881664624,,psi_staircase_training,emotion,,127.59736250701164,127.59736250701164,36.87401341652615,337.0714599999992,179,22,female,True
71,154.0,25,M,up,0.646476600002643,1.331341472799536,,psi_staircase_training,emotion,,126.069414269007,126.069414269007,36.12985103236058,339.2881245999997,179,22,female,True
72,96.0,25,M,down,0.588881700001366,0.7586154030917298,,psi_staircase_training,emotion,,124.72448787910902,124.72448787910902,35.40474290308282,341.05470409999907,179,22,female,True
73,155.0,25,F,up,0.8103983000000881,1.6919976660654912,,psi_staircase_training,emotion,,125.92914949042192,125.92914949042192,34.6737222592096,343.6711590999985,179,22,female,True
74,95.0,25,F,down,0.5016605000018899,0.3419505368731562,,psi_staircase_training,emotion,,124.80961714767416,124.80961714767416,33.90599278050853,345.18790029999946,179,22,female,True
75,155.0,25,F,down,0.6597283000010066,0.3620370268903901,,psi_staircase_training,emotion,,125.81181734143996,125.81181734143996,33.140291098946406,346.38786360000086,179,22,female,True
76,160.0,25,M,down,0.44020730000193,0.9648434848969032,,psi_staircase_training,emotion,,129.7874567204951,129.7874567204951,36.43429004647808,348.37136720000126,179,22,female,True
77,163.0,25,M,up,0.3499015999987023,1.4120676124014897,,psi_staircase_training,emotion,,133.78116020347483,133.78116020347483,38.89598643368301,350.5712851999997,179,22,female,True
78,163.0,25,F,up,0.5689587999986543,1.070676964184178,,psi_staircase_training,emotion,,132.6055986486529,132.6055986486529,38.3645221422492,352.3876230999995,179,22,female,True
79,163.0,25,F,down,0.5790545999989263,1.740759839899579,,psi_staircase_training,emotion,,131.55344965768688,131.55344965768688,37.84062531713931,355.0375168999999,179,22,female,True
80,164.0,25,M,down,0.4771213999993051,0.8570641328503488,,psi_staircase_training,emotion,,135.10092541884796,135.10092541884796,39.77755715412212,356.837445600002,179,22,female,True
81,165.0,25,M,down,0.5727703000011388,0.3534956481765375,,psi_staircase_training,emotion,,138.48013844591586,138.48013844591586,41.13315111196364,358.02073459999883,179,22,female,True
82,0.29,25,up,down,0.6248271999975259,1.7937919132631526,,psi_staircase,cRDM,,0.25,0.2569312402994632,0.105,376.1367037999989,179,22,female,True
83,0.39,25,up,down,0.497437699999864,0.5543318139720221,,psi_staircase,cRDM,,0.3546095744690496,0.3616109212953642,0.1060620300265678,377.57003149999946,179,22,female,True
84,0.45,25,down,down,0.4543884000013349,0.8236465236981836,,psi_staircase,cRDM,,0.4150689485921841,0.4216473382772667,0.0996547352408428,379.1531246000013,179,22,female,True
85,0.44,25,down,down,0.579745200000616,1.6495659927610244,,psi_staircase,cRDM,,0.4054457120615716,0.4121127131824852,0.1009970925045164,381.51985630000127,179,22,female,True
86,0.43,25,up,up,0.6256211999971129,0.490585079738529,,psi_staircase,cRDM,,0.3958107273700079,0.4025120380008885,0.1015168405425151,382.8529507999992,179,22,female,True
87,0.43,25,down,up,1.25292879999688,1.2174112522420997,,psi_staircase,cRDM,,0.3860412409781549,0.3927592277984972,0.1017694648662767,384.9695792999992,179,22,female,True
88,0.46,25,up,down,0.6188901000023179,0.530112473577838,,psi_staircase,cRDM,,0.4227691215316403,0.4298901011346566,0.1078743234994465,387.0196426000002,179,22,female,True
89,0.47,25,down,down,0.5622829999992973,0.9179895425799992,,psi_staircase,cRDM,,0.4468582608104146,0.4542972616066916,0.1126919641885123,388.8362409000001,179,22,female,True
90,0.47,25,down,down,0.4906903999981296,0.3395556075856811,,psi_staircase,cRDM,,0.441238512049911,0.4489354045144585,0.1165987144955977,390.00284960000135,179,22,female,True
91,0.45,25,up,up,0.5460554999990563,1.064515187397313,,psi_staircase,cRDM,,0.4359515752506168,0.443784941938978,0.1186661357479727,391.8194551000015,179,22,female,True
92,0.45,25,down,down,0.5393881000018155,1.2496905669102247,,psi_staircase,cRDM,,0.4293706093391092,0.4375472206252552,0.123865880845571,393.8860829000005,179,22,female,True
93,0.46,25,down,down,0.5945843999979843,1.552272024842536,,psi_staircase,cRDM,,0.422910061602014,0.4313132718405996,0.127298583937397,396.2359398000008,179,22,female,True
94,0.47,25,down,down,0.6299790000011853,1.5251464941454391,,psi_staircase,cRDM,,0.4174032680408066,0.425815379200317,0.1274334222429127,398.6025339000007,179,22,female,True
95,0.43,25,up,down,0.5857347999990452,1.1503903706839933,,psi_staircase,cRDM,,0.4129747730381843,0.4212429769970827,0.125253400282712,400.6357734000012,179,22,female,True
96,0.48,25,up,down,0.4638046000000031,0.7082415087686542,,psi_staircase,cRDM,,0.4338224888794786,0.4412361780880434,0.1123085239101549,402.1857067000019,179,22,female,True
97,0.47,25,down,down,0.6728417000012996,1.4230593616417424,,psi_staircase,cRDM,,0.4464837456767472,0.4553900754125055,0.1349202425324989,404.3356375000003,179,22,female,True
98,0.47,25,down,down,0.6059176000017032,0.7532360894263526,,psi_staircase,cRDM,,0.442583389495739,0.4515977541948895,0.1365568430060198,406.0355892000007,179,22,female,True
99,0.48,25,up,up,0.6959577999987232,0.8335802802912566,,psi_staircase,cRDM,,0.4388086225579286,0.4478634751113309,0.1371701855699421,407.7355107000003,179,22,female,True
100,0.48,25,up,down,0.6565187999985937,0.663772986344705,,psi_staircase,cRDM,,0.4355726688194814,0.4445496398438462,0.1359903735600253,409.3519789999991,179,22,female,True
101,0.46,25,up,down,0.5667963999985659,1.6423734307133824,,psi_staircase,cRDM,,0.4482797298411904,0.4577311733487246,0.1431780641580032,411.9186823000018,179,22,female,True
102,0.52,25,up,down,0.4789057000016328,1.6532343327990129,,psi_staircase,cRDM,,0.4586495417580116,0.4676402111686626,0.136197887727461,414.4185757000014,179,22,female,True
103,0.63,25,down,up,0.7298274999993737,1.3871926764925722,,psi_staircase,cRDM,,0.4637670507777936,0.4737501799529748,0.1512324660674662,416.5516748000009,179,22,female,True
104,0.64,25,down,down,0.5013438999994833,0.835407100259626,,psi_staircase,cRDM,,0.4680911539405611,0.4792267608244267,0.1686911248620874,418.38510769999993,179,22,female,True
105,0.64,25,down,up,0.8938030999997864,1.463241556858091,,psi_staircase,cRDM,,0.4676745306455158,0.4787146707118314,0.1672449167651728,420.6016787000008,179,22,female,True
106,0.65,25,up,down,0.4782656999996106,1.0024193026487032,,psi_staircase,cRDM,,0.4715505617127113,0.4835116211925029,0.181195744356947,422.76827780000167,179,22,female,True
107,0.64,25,up,up,0.756652899999608,1.567047451982175,,psi_staircase,cRDM,,0.4751246394348948,0.4876913156579253,0.1903701136318107,425.0848542999993,179,22,female,True
108,0.65,25,down,down,0.6463812000001781,1.362464468043831,,psi_staircase,cRDM,,0.4747001278414895,0.4872257311242048,0.1897479077138543,427.46810209999967,179,22,female,True
109,0.65,25,down,up,0.6183119000015722,1.5839996020711278,,psi_staircase,cRDM,,0.4742998771839488,0.4867831549790661,0.1891067272027505,429.9511816000013,179,22,female,True
110,0.64,25,up,down,0.4556995999992068,1.2195539823755763,,psi_staircase,cRDM,,0.4776028330071147,0.4904516891958143,0.1946448025929681,432.06782060000114,179,22,female,True
111,0.63,25,up,down,0.4299747000004572,1.329958178302458,,psi_staircase,cRDM,,0.4804648116332806,0.4934902775236826,0.1973202283288492,434.13448889999927,179,22,female,True
112,0.62,25,down,down,0.3672454000006837,0.9341878856442548,,psi_staircase,cRDM,,0.4828531175090994,0.4959631124916055,0.1986007429679991,435.7511025999993,179,22,female,True
113,0.62,25,up,down,0.7188502999997581,0.3249972977546643,,psi_staircase,cRDM,,0.4825275577715359,0.4956307173662432,0.1984971950187351,436.76757670000006,179,22,female,True
114,0.6,25,down,down,1.227765100000397,0.9685414300144772,,psi_staircase,cRDM,,0.484549396867908,0.4976970221369496,0.19917079679899,438.7176909000009,179,22,female,True
115,0.6,25,up,up,0.6002189999999246,0.3295631466387619,,psi_staircase,cRDM,,0.4842383124194505,0.4973820164792906,0.1991113951697903,440.5342464999994,179,22,female,True
116,0.61,25,down,down,0.4798719000027631,0.4318234884486076,,psi_staircase,cRDM,,0.4839195796510363,0.4970590935911066,0.1990479198671304,441.8175416999984,179,22,female,True
117,0.61,25,up,up,0.5126478999991377,1.289690479358977,,psi_staircase,cRDM,,0.4836073916507899,0.4967423022237723,0.1989781843618891,443.850788300002,179,22,female,True
118,0.61,25,down,down,0.4193190000005415,0.4623168193767745,,psi_staircase,cRDM,,0.4832880195707831,0.4964180051629482,0.1989035767933329,445.0840973000013,179,22,female,True
119,0.61,25,up,up,0.5710951999972167,1.9486400675307995,,psi_staircase,cRDM,,0.4829613281263374,0.4960860464586122,0.1988237841062258,447.7173307000012,179,22,female,True
120,0.61,25,up,up,0.8163486999983434,1.8171078730713923,,psi_staircase,cRDM,,0.4826271849576187,0.4957462719703449,0.1987384763507516,450.3670741999995,179,22,female,True
121,0.61,25,down,down,0.4335108000013861,0.5187974336639534,,psi_staircase,cRDM,,0.4822854613057308,0.4953985300090121,0.1986473061612311,451.966950500002,179,22,female,True
122,0.62,25,down,down,0.4407080999990285,0.7371934997344103,,psi_staircase,cRDM,,0.4819360327451126,0.4950426720371164,0.1985499082706696,453.3837889999995,179,22,female,True
123,0.62,25,down,down,0.4887348000011116,1.1439844169064664,,psi_staircase,cRDM,,0.4815956153493342,0.4946952838027648,0.1984443084041867,455.2336886000012,179,22,female,True
124,0.62,25,up,down,0.3672092999986489,1.0325974718402446,,psi_staircase,cRDM,,0.4812481655584544,0.4943403854656626,0.19833147183821,457.01695299999847,179,22,female,True
125,0.6,25,up,down,0.3840816000010818,1.291579264278927,,psi_staircase,cRDM,,0.4834220421954404,0.4965630403511651,0.1990704039590067,458.9835884999993,179,22,female,True
126,0.59,25,down,down,0.435925199999474,1.0628028461178187,,psi_staircase,cRDM,,0.4852036145516391,0.4983676223656108,0.1994189727593286,460.7334828999992,179,22,female,True
127,0.59,25,down,down,0.4196654000006674,1.1879808170965416,,psi_staircase,cRDM,,0.4849040920017614,0.4980654994912473,0.1993795809536477,462.6167463999991,179,22,female,True
128,0.59,25,down,down,0.5891827000014018,0.7343612854257489,,psi_staircase,cRDM,,0.4845971148693314,0.4977557534991608,0.1993376360417176,464.0502885999995,179,22,female,True
129,0.59,25,up,up,0.6777894000006199,1.5074868156949215,,psi_staircase,cRDM,,0.4842824981395514,0.4974381892732403,0.1992929850007233,466.4166088999991,179,22,female,True
130,0.6,25,up,up,0.5558763000008184,1.0077301056208707,,psi_staircase,cRDM,,0.4839600550551885,0.4971126094378166,0.199245466974056,468.366524699999,179,22,female,True
131,0.6,25,up,down,0.5843160999975225,1.7486356383673085,,psi_staircase,cRDM,,0.4836433788123833,0.4967924392633366,0.1991925380883159,470.9331198,179,22,female,True
132,100.0,25,M,down,0.6421802999975625,0.6240022891130071,,psi_staircase,emotion,,100.0,100.0,25.00050000000001,476.96622729999945,179,22,female,True
133,145.0,25,M,down,0.7240438000007998,0.4687002669686338,,psi_staircase,emotion,,145.25719053245996,145.25719053245996,25.00050000000028,478.4493681999993,179,22,female,True
134,168.0,25,F,up,0.3835287000001699,0.8245560654995365,,psi_staircase,emotion,,168.03875363226317,168.03875363226317,24.348195048155315,480.33276040000055,179,22,female,True
135,155.0,25,F,down,0.4833810000018275,0.8688532951839796,,psi_staircase,emotion,,155.004436652377,155.004436652377,25.558429500416704,481.9660169999988,179,22,female,True
136,170.0,25,M,up,0.4454440000008617,0.4161642595434008,,psi_staircase,emotion,,165.44574296022685,165.44574296022685,24.96788539774863,483.2159670000001,179,22,female,True
137,160.0,25,F,up,0.4523651999988942,0.890427761718541,,psi_staircase,emotion,,159.5266948558149,159.5266948558149,22.495191219702527,484.899242800002,179,22,female,True
138,147.0,25,M,up,0.3834664999994857,1.623561597293045,,psi_staircase,emotion,,153.1208070803471,153.1208070803471,23.19092239554965,487.299184800002,179,22,female,True
139,131.0,25,F,up,0.350154100000509,0.6485653391931742,,psi_staircase,emotion,,144.11172588590583,144.11172588590583,29.605855662144407,488.7157656999989,179,22,female,True
140,118.0,25,F,up,0.4168212000004132,1.5025457661482946,,psi_staircase,emotion,,133.85208613142927,133.85208613142927,34.35131506104172,490.98233940000136,179,22,female,True
141,108.0,25,M,down,1.014781399997446,1.5588851198058875,,psi_staircase,emotion,,123.68937544939742,123.68937544939742,37.32430622361097,493.315590000002,179,22,female,True
142,113.0,25,F,down,0.5831659000032232,0.3957567424767868,,psi_staircase,emotion,,128.71838529850845,128.71838529850845,36.320703000281625,495.0821827,179,22,female,True
143,117.0,25,F,down,0.4666186000031302,0.6750845576587686,,psi_staircase,emotion,,132.69658451350887,132.69658451350887,35.39782691370229,496.69879690000016,179,22,female,True
144,116.0,25,F,down,0.4001867000006314,0.6842883657720091,,psi_staircase,emotion,,136.04160300639012,136.04160300639012,34.57763997832132,498.2320608000009,179,22,female,True
145,161.0,25,M,down,0.5473525000015798,1.890983916102816,,psi_staircase,emotion,,138.60010578601015,138.60010578601015,33.7693054271839,500.8820053999989,179,22,female,True
146,168.0,25,M,down,0.4168208000010054,0.5179702292100821,,psi_staircase,emotion,,144.99231474944992,144.99231474944992,36.57303167087746,502.2985684999985,179,22,female,True
147,173.0,25,F,up,0.8913713000001735,0.8790534909311154,,psi_staircase,emotion,,151.12857111616714,151.12857111616714,38.71600006601373,503.9650115000004,179,22,female,True
148,172.0,25,F,up,0.8946207999979379,1.4201883045068204,,psi_staircase,emotion,,148.75197127269195,148.75197127269195,38.064624058808526,506.6317506000014,179,22,female,True
149,171.0,25,M,down,0.6450360999988334,1.3224356420885552,,psi_staircase,emotion,,146.68420200396127,146.68420200396127,37.43686810686989,509.198311600001,179,22,female,True
150,175.0,25,M,down,0.5937568000008469,1.0684001178696156,,psi_staircase,emotion,,151.71911830826147,151.71911830826147,39.10896388927577,511.2815799000018,179,22,female,True
151,178.0,25,M,up,0.8141808999971545,0.6748256690776393,,psi_staircase,emotion,,156.49503697501356,156.49503697501356,40.431120357574926,512.8981447000006,179,22,female,True
152,177.0,25,M,up,0.5838503999984823,1.128641632182081,,psi_staircase,emotion,,154.54454281450666,154.54454281450666,39.982322849862335,515.1814387000013,179,22,female,True
153,130.0,25,F,down,0.5247041000002355,1.4136584061560646,,psi_staircase,emotion,,152.77642061720735,152.77642061720735,39.54600064273646,517.5146557000007,179,22,female,True
154,181.0,25,F,up,0.4184021000000939,0.7055312904645321,,psi_staircase,emotion,,154.41407548585894,154.41407548585894,39.11540274562204,519.0979306000008,179,22,female,True
155,127.0,25,F,up,0.749153100001422,1.9032503654972768,,psi_staircase,emotion,,152.99598974405072,152.99598974405072,38.62135402213395,521.7811676999991,179,22,female,True
156,125.0,25,M,up,0.8326583000016399,1.1482345292981386,,psi_staircase,emotion,,149.10508964661642,149.10508964661642,40.04447952541573,524.0477299000013,179,22,female,True
157,123.0,25,M,down,0.7963761999999406,1.6020303410950123,,psi_staircase,emotion,,145.4486801526325,145.4486801526325,41.089624064231735,526.8309807000005,179,22,female,True
158,123.0,25,F,down,0.6511317000004055,1.5487939982231775,,psi_staircase,emotion,,146.92011206613662,146.92011206613662,40.73860679890389,529.5142104000006,179,22,female,True
159,174.0,25,F,up,0.7668618999996397,1.379636937186575,,psi_staircase,emotion,,148.2574474050161,148.2574474050161,40.39010801510295,531.8974603999995,179,22,female,True
160,120.0,25,M,up,0.7233152999979211,1.3906030316515288,,psi_staircase,emotion,,147.03311151055854,147.03311151055854,40.01311731436434,534.4140239000008,179,22,female,True
161,118.0,25,M,down,0.38354039999831,1.2160871087158662,,psi_staircase,emotion,,143.7587980438434,143.7587980438434,41.14891420324634,536.6972916000013,179,22,female,True
162,119.0,25,F,down,0.3668536000004678,0.4898314225820191,,psi_staircase,emotion,,144.9328286936925,144.9328286936925,40.811265579972165,537.9472043999995,179,22,female,True
163,175.0,25,M,down,0.4001570000000356,1.585957743468169,,psi_staircase,emotion,,146.03998074899104,146.03998074899104,40.47762237027533,540.2971392,179,22,female,True
164,175.0,25,F,down,0.7369736000000557,0.7095884187326734,,psi_staircase,emotion,,149.11930475378642,149.11930475378642,41.61922513564412,541.7473419999988,179,22,female,True
165,175.0,25,M,up,0.6376679999993939,0.8927111092110471,,psi_staircase,emotion,,152.01177395781036,152.01177395781036,42.45235655074911,543.7136782000016,179,22,female,True
166,175.0,25,F,down,0.8334986000008939,1.569880566424624,,psi_staircase,emotion,,150.8492509482703,150.8492509482703,42.18125695371079,546.2468224000004,179,22,female,True
167,176.0,25,M,down,0.5615097999980208,0.5772033952928959,,psi_staircase,emotion,,153.50499203005683,153.50499203005683,42.8477939204815,547.996834900001,179,22,female,True
168,176.0,25,F,up,0.5266224999977567,0.5530487905858934,,psi_staircase,emotion,,156.04725325886557,156.04725325886557,43.39893635343543,549.4467789000009,179,22,female,True
169,176.0,25,M,up,0.5836097000028531,1.0820019726069088,,psi_staircase,emotion,,154.8773094440331,154.8773094440331,43.18396052202317,551.3967061000003,179,22,female,True
170,175.0,25,M,up,0.6352867999994487,0.4194877392205055,,psi_staircase,emotion,,153.7820855778863,153.7820855778863,42.96863566530258,552.7299863000007,179,22,female,True
171,130.0,25,F,up,0.4780343999991601,1.5526796834761658,,psi_staircase,emotion,,152.7310874464407,152.7310874464407,42.75680296382051,555.2632414,179,22,female,True
172,130.0,25,F,up,0.4001720999985991,1.3949906681779631,,psi_staircase,emotion,,150.4803372508138,150.4803372508138,43.25027921916668,557.4631444000006,179,22,female,True
173,129.0,25,F,up,0.3672035000017786,0.3504445210244011,,psi_staircase,emotion,,148.34526906752083,148.34526906752083,43.651542555668485,558.5797719000002,179,22,female,True
174,128.0,25,M,up,0.3834835000016028,1.949772231921833,,psi_staircase,emotion,,146.2867992285732,146.2867992285732,44.00522983513359,561.2963329999984,179,22,female,True
175,127.0,25,M,up,0.3834874000021955,1.5740927086051253,,psi_staircase,emotion,,144.29838117268247,144.29838117268247,44.320616040900696,563.6295824000008,179,22,female,True
176,126.0,25,F,up,0.400277199998527,0.7148880519566367,,psi_staircase,emotion,,142.3741983421803,142.3741983421803,44.60452227636666,565.0961845999991,179,22,female,True
177,125.0,25,F,up,0.6191361000019242,1.1315673697283888,,psi_staircase,emotion,,140.50906044931054,140.50906044931054,44.86211259127785,566.9961146999995,179,22,female,True
178,123.0,25,F,up,0.4649133999992045,0.7020798480977692,,psi_staircase,emotion,,138.69831979385734,138.69831979385734,45.09738834273879,568.679379600002,179,22,female,True
179,122.0,25,M,up,0.5170180999994045,1.337961620125669,,psi_staircase,emotion,,136.91049716553465,136.91049716553465,45.32640254007136,570.8292827000005,179,22,female,True
180,121.0,25,M,up,0.3001660999980231,1.4701531206084288,,psi_staircase,emotion,,135.17031466208434,135.17031466208434,45.53639188431576,573.1625533000006,179,22,female,True
181,120.0,25,M,up,0.6981152000007569,0.4090617093672261,,psi_staircase,emotion,,133.47432726653645,133.47432726653645,45.729870179730405,574.3291503,179,22,female,True
182,0.4853698961504132,25,down,up,0.6537779999998747,0.5651058113960538,,experiment,cRDM,0.0,,,,583.7454690999984,179,22,female,True
183,0.4853698961504132,25,up,down,0.4166651999985333,1.7758721005068174,,experiment,cRDM,0.0,,,,586.4453853000014,179,22,female,True
184,0.4853698961504132,25,down,up,0.5469601000004332,1.011471543678079,,experiment,cRDM,0.0,,,,588.1452992999984,179,22,female,True
185,0.4853698961504132,25,up,down,0.5193768999997701,1.6590828479326087,,experiment,cRDM,0.0,,,,590.6118849999984,179,22,female,True
186,0.4853698961504132,25,down,up,0.9197910999973828,1.7294048983977406,,experiment,cRDM,0.0,,,,593.1284558000007,179,22,female,True
187,0.4853698961504132,25,down,down,0.8828622000000905,0.3176041055969183,,experiment,cRDM,0.0,,,,594.6283801999998,179,22,female,True
188,0.4853698961504132,25,up,up,0.7742693000000145,1.9313416700583157,,experiment,cRDM,0.0,,,,597.6949615000012,179,22,female,True
189,0.4853698961504132,25,down,down,0.6690505000005942,0.5057335932033962,,experiment,cRDM,0.0,,,,599.2282092999994,179,22,female,True
190,0.4853698961504132,25,up,up,0.6195174000022234,1.4709765833215145,,experiment,cRDM,0.0,,,,601.6281173999996,179,22,female,True
191,0.4853698961504132,25,up,up,0.7572041000021272,1.7697188459437398,,experiment,cRDM,0.0,,,,604.2780569999995,179,22,female,True
192,0.4853698961504132,25,down,down,0.5837181999995664,0.5034646408932764,,experiment,cRDM,0.0,,,,605.7946396000007,179,22,female,True
193,0.4853698961504132,25,up,up,0.8337290000017674,1.024294353297354,,experiment,cRDM,0.0,,,,607.661495700002,179,22,female,True
194,0.4853698961504132,25,up,up,1.1744161999995413,1.362367894286243,,experiment,cRDM,0.0,,,,610.1278012000002,179,22,female,True
195,0.4853698961504132,25,up,down,0.8235109000015655,0.9079805193085062,,experiment,cRDM,0.0,,,,612.4777273,179,22,female,True
196,0.4853698961504132,25,down,down,0.5325459999985469,1.2488863351315476,,experiment,cRDM,0.0,,,,614.8276864,179,22,female,True
197,0.4853698961504132,25,down,down,0.38387579999835,0.3936925336841805,,experiment,cRDM,0.0,,,,616.027574300002,179,22,female,True
198,0.4853698961504132,25,up,up,0.547804099998757,0.6239904710272168,,experiment,cRDM,0.0,,,,617.3274592999987,179,22,female,True
199,0.4853698961504132,25,up,up,0.5867766000010306,0.9449778882139032,,experiment,cRDM,0.0,,,,619.0774544000014,179,22,female,True
200,0.4853698961504132,25,down,down,0.5315493999987666,1.5370748995345531,,experiment,cRDM,0.0,,,,621.4607104999995,179,22,female,True
201,0.4853698961504132,25,down,up,0.6939586000007694,1.17766086628689,,experiment,cRDM,0.0,,,,623.4273022999987,179,22,female,True
202,0.4853698961504132,25,up,up,0.6499742000014521,0.5078894820535751,,experiment,cRDM,0.0,,,,624.8772562999984,179,22,female,True
203,0.4853698961504132,25,down,down,0.6184245000004012,1.8053048804881784,,experiment,cRDM,0.0,,,,627.5937946999984,179,22,female,True
204,0.4853698961504132,25,up,up,0.9091482000003452,1.2757381152115803,,experiment,cRDM,0.0,,,,629.7439889000016,179,22,female,True
205,0.4853698961504132,25,down,up,0.5999449000009918,1.2029810020317693,,experiment,cRDM,0.0,,,,632.1102948000007,179,22,female,True
206,0.4853698961504132,25,down,down,0.5659657000032894,1.2850851171004374,,experiment,cRDM,0.0,,,,634.2602488000011,179,22,female,True
207,0.4853698961504132,25,up,up,0.5519872999975632,0.9676173961473196,,experiment,cRDM,0.0,,,,636.0601824000005,179,22,female,True
208,0.4853698961504132,25,up,up,0.5261116000001493,1.885633196862042,,experiment,cRDM,0.0,,,,638.7600424000011,179,22,female,True
209,0.4853698961504132,25,down,up,0.4002427999985229,0.8122821868448009,,experiment,cRDM,0.0,,,,640.3600188000019,179,22,female,True
210,0.4853698961504132,25,up,up,0.4182193999986339,1.324097958903435,,experiment,cRDM,0.0,,,,642.3599352000019,179,22,female,True
211,0.4853698961504132,25,down,up,0.6213004999990517,0.9205679897586334,,experiment,cRDM,0.0,,,,643.9599043999988,179,22,female,True
212,0.4853698961504132,25,up,up,0.4002459999974235,1.9846424140306895,,experiment,cRDM,0.0,,,,646.826409199999,179,22,female,True
213,0.4853698961504132,25,down,up,0.4179332999992766,1.6314742759584413,,experiment,cRDM,0.0,,,,649.1432544000018,179,22,female,True
214,0.4853698961504132,25,up,up,0.7152516999994987,0.4787584716314926,,experiment,cRDM,0.0,,,,650.2929382000002,179,22,female,True
215,0.4853698961504132,25,down,up,1.2990279999976335,0.967909775994978,,experiment,cRDM,0.0,,,,652.2431295999995,179,22,female,True
216,0.4853698961504132,25,up,up,0.6076792999992904,1.027602870968464,,experiment,cRDM,0.0,,,,654.8094758000007,179,22,female,True
217,0.4853698961504132,25,down,down,0.4498822999994445,1.9741638106117831,,experiment,cRDM,0.0,,,,657.6593226000005,179,22,female,True
218,0.4853698961504132,25,up,down,0.350527400001738,1.2259531015709968,,experiment,cRDM,0.0,,,,659.6092413000006,179,22,female,True
219,0.4853698961504132,25,down,up,0.6283523000020068,1.931000035152786,,experiment,cRDM,0.0,,,,662.2258135000011,179,22,female,True
220,0.4853698961504132,25,up,up,0.6180810000005295,0.4436063076968197,,experiment,cRDM,0.0,,,,663.5590883000004,179,22,female,True
221,0.4853698961504132,25,down,up,0.4485429000014846,0.4102841422945757,,experiment,cRDM,0.0,,,,664.8426471999992,179,22,female,True
222,0.4853698961504132,25,down,up,0.4166732999983651,0.3721713947995489,,experiment,cRDM,0.0,,,,665.9256762000005,179,22,female,True
223,0.4853698961504132,25,up,down,0.5346076999994693,1.2727107218218658,,experiment,cRDM,0.0,,,,667.875609900002,179,22,female,True
224,0.4853698961504132,25,down,up,0.4276479000000108,0.6423404961019545,,experiment,cRDM,0.0,,,,669.3255075000015,179,22,female,True
225,0.4853698961504132,25,up,up,0.637320699999691,1.536735172166639,,experiment,cRDM,0.0,,,,671.5588467000016,179,22,female,True
226,0.4853698961504132,25,up,down,0.609103500002675,1.636158433296884,,experiment,cRDM,0.0,,,,674.0920315000003,179,22,female,True
227,0.4853698961504132,25,down,down,0.5457314999985101,1.795568703020879,,experiment,cRDM,0.0,,,,676.7584356000007,179,22,female,True
228,0.4853698961504132,25,down,down,0.4445560000021942,1.5973920460652395,,experiment,cRDM,0.0,,,,679.1585496000007,179,22,female,True
229,0.4853698961504132,25,up,down,0.4387661000000662,1.1879211732424917,,experiment,cRDM,0.0,,,,681.0582814000009,179,22,female,True
230,0.4853698961504132,25,down,down,0.534794499999407,0.3051670853761813,,experiment,cRDM,0.0,,,,682.0583110000007,179,22,female,True
231,0.4853698961504132,25,up,down,0.5048419000013382,1.6582099757448934,,experiment,cRDM,0.0,,,,684.5083000000013,179,22,female,True
232,0.4853698961504132,25,up,down,0.4966032999982417,1.0194453744819256,,experiment,cRDM,0.0,,,,686.2915605999988,179,22,female,True
233,0.4853698961504132,25,up,down,0.595083700001851,1.5610703220508562,,experiment,cRDM,0.0,,,,688.6081330999987,179,22,female,True
234,0.4853698961504132,25,up,up,0.6027424999992945,1.3412401660353703,,experiment,cRDM,0.0,,,,690.791384600001,179,22,female,True
235,0.4853698961504132,25,up,up,0.4641133999975864,0.3709614379561109,,experiment,cRDM,0.0,,,,692.0080139999991,179,22,female,True
236,0.4853698961504132,25,down,down,0.8035142999979143,1.2936106268513707,,experiment,cRDM,0.0,,,,694.0245919000008,179,22,female,True
237,0.4853698961504132,25,down,up,0.6238986999996996,1.3814057762832408,,experiment,cRDM,0.0,,,,696.4911769999999,179,22,female,True
238,0.4853698961504132,25,down,down,0.4360395000003336,1.379016410630296,,experiment,cRDM,0.0,,,,698.7580613999999,179,22,female,True
239,0.4853698961504132,25,up,down,0.4538556000006792,1.9677448584133372,,experiment,cRDM,0.0,,,,701.4243276999987,179,22,female,True
240,0.4853698961504132,25,down,down,0.7542098000012629,0.4179834141007129,,experiment,cRDM,0.0,,,,702.5578845999989,179,22,female,True
241,0.4853698961504132,25,down,up,0.4598949999999604,1.4545322255867192,,experiment,cRDM,0.0,,,,705.0241805000005,179,22,female,True
242,0.4853698961504132,25,down,down,0.4002562999994552,1.8335302873415331,,experiment,cRDM,0.0,,,,707.5907531000012,179,22,female,True
243,0.4853698961504132,25,up,down,0.3171861000009812,1.0764210177976148,,experiment,cRDM,0.0,,,,709.3573553999995,179,22,female,True
244,0.4853698961504132,25,down,down,0.7938115999968431,1.8691550993436947,,experiment,cRDM,0.0,,,,711.9072493999993,179,22,female,True
245,0.4853698961504132,25,up,up,0.5546013999992283,0.33673172646099,,experiment,cRDM,0.0,,,,713.2905371999987,179,22,female,True
246,0.4853698961504132,25,up,down,0.4796623000002,1.18562257903001,,experiment,cRDM,0.0,,,,715.2904516999988,179,22,female,True
247,0.4853698961504132,25,down,up,0.4168857999975444,0.8883202471092673,,experiment,cRDM,0.0,,,,716.9237446000006,179,22,female,True
248,0.4853698961504132,25,up,down,0.4212239000007685,0.4512004734854167,,experiment,cRDM,0.0,,,,718.0568487000019,179,22,female,True
249,0.4853698961504132,25,down,up,0.4418092999985674,1.8652781106872625,,experiment,cRDM,0.0,,,,720.5902657000006,179,22,female,True
250,0.4853698961504132,25,up,down,0.4295072999993863,0.7919847847428727,,experiment,cRDM,0.0,,,,722.0735644999986,179,22,female,True
251,0.4853698961504132,25,down,up,0.4590908999998646,1.775196832546059,,experiment,cRDM,0.0,,,,724.5399682999996,179,22,female,True
252,0.4853698961504132,25,up,down,0.4003386000003957,0.3497061102231072,,experiment,cRDM,0.0,,,,725.6067223999999,179,22,female,True
253,0.4853698961504132,25,down,down,0.577353900000162,0.9240547001600294,,experiment,cRDM,0.0,,,,727.2066814999998,179,22,female,True
254,0.4853698961504132,25,down,up,0.7340822000005573,0.4544200482556161,,experiment,cRDM,0.0,,,,728.4899656000016,179,22,female,True
255,0.4853698961504132,25,down,up,0.6198942000009993,0.4487760925379718,,experiment,cRDM,0.0,,,,729.9232283999991,179,22,female,True
256,0.4853698961504132,25,down,down,0.5874116000013601,0.3423293808326386,,experiment,cRDM,0.0,,,,731.1396939000006,179,22,female,True
257,0.4853698961504132,25,down,up,0.6436027999989165,0.8272382945948684,,experiment,cRDM,0.0,,,,732.8064496000006,179,22,female,True
258,0.4853698961504132,25,up,up,0.9497037000001,1.649494095430058,,experiment,cRDM,0.0,,,,735.3563806999991,179,22,female,True
259,0.4853698961504132,25,up,up,0.7374136999969778,0.6217131772631534,,experiment,cRDM,0.0,,,,737.1896229999984,179,22,female,True
260,0.4853698961504132,25,up,up,0.6231450000013865,1.9392010882071145,,experiment,cRDM,0.0,,,,740.122854199999,179,22,female,True
261,0.4853698961504132,25,up,up,0.5783009000006132,1.2957298780097393,,experiment,cRDM,0.0,,,,742.3227574000011,179,22,female,True
262,149.0,25,M,up,0.6217956000000413,0.721548469482016,,experiment,emotion,0.0,,,,755.7722624000016,179,22,female,True
263,113.0,25,M,down,0.7528892000009364,1.4846802651532094,,experiment,emotion,0.0,,,,758.1721612000001,179,22,female,True
264,137.0,25,F,up,0.6256573000027856,0.6955673017813582,,experiment,emotion,0.0,,,,759.9054351999985,179,22,female,True
265,149.0,25,F,up,0.6643650000005437,0.7854047856578451,,experiment,emotion,0.0,,,,761.5887164999986,179,22,female,True
266,137.0,25,M,up,0.4170943999997689,1.5490647476160504,,experiment,emotion,0.0,,,,764.0719453999991,179,22,female,True
267,125.0,25,F,down,0.7028782999987016,1.886004914254211,,experiment,emotion,0.0,,,,766.6552025000019,179,22,female,True
268,113.0,25,M,down,0.5185873000009451,0.367198319028488,,experiment,emotion,0.0,,,,767.9884506999988,179,22,female,True
269,125.0,25,M,up,0.7455637999992177,1.611105921575554,,experiment,emotion,0.0,,,,770.3883897000014,179,22,female,True
270,149.0,25,F,up,0.3835060000019439,1.6545466648114109,,experiment,emotion,0.0,,,,773.0715928999998,179,22,female,True
271,125.0,25,F,up,0.3333345999999437,0.5407637366661017,,experiment,emotion,0.0,,,,774.3048922000016,179,22,female,True
272,137.0,25,F,up,0.3335045999992871,0.9889669882516784,,experiment,emotion,0.0,,,,775.9714993000016,179,22,female,True
273,149.0,25,F,up,0.3668187000002945,1.5548714310752094,,experiment,emotion,0.0,,,,778.2047377999988,179,22,female,True
274,137.0,25,F,up,0.465995100003056,0.3022704262970893,,experiment,emotion,0.0,,,,779.1880251000002,179,22,female,True
275,113.0,25,F,up,0.4624478000005183,1.833995757037036,,experiment,emotion,0.0,,,,781.7545986000005,179,22,female,True
276,125.0,25,M,up,1.0258579000001191,1.335831128627246,,experiment,emotion,0.0,,,,783.8211636999986,179,22,female,True
277,113.0,25,M,down,0.5872578999988036,1.062567986390642,,experiment,emotion,0.0,,,,786.1877649000016,179,22,female,True
278,149.0,25,M,down,0.6939982000003511,0.6748912160239275,,experiment,emotion,0.0,,,,787.721021100002,179,22,female,True
279,113.0,25,M,down,0.7783777000004193,1.562398716867346,,experiment,emotion,0.0,,,,790.2542743000013,179,22,female,True
280,137.0,25,F,down,0.549469900000986,0.6286292829061368,,experiment,emotion,0.0,,,,791.9375131000015,179,22,female,True
281,137.0,25,M,down,0.7428663999999117,1.996912785416329,,experiment,emotion,0.0,,,,794.7540999000012,179,22,female,True
282,125.0,25,M,down,0.6399514000004274,1.1951993542140575,,experiment,emotion,0.0,,,,796.9540230999992,179,22,female,True
283,125.0,25,F,down,0.5598331000001053,1.273953857993351,,experiment,emotion,0.0,,,,799.1371196,179,22,female,True
284,113.0,25,M,down,0.4501001999997243,1.1303426495233904,,experiment,emotion,0.0,,,,801.1038673000003,179,22,female,True
285,149.0,25,F,down,0.3836303000025509,1.282284834651355,,experiment,emotion,0.0,,,,803.1369902000006,179,22,female,True
286,137.0,25,F,down,0.7302234000017052,0.7287940447861516,,experiment,emotion,0.0,,,,804.5537478000006,179,22,female,True
287,113.0,25,M,up,0.4997007999991183,1.1830333509804387,,experiment,emotion,0.0,,,,806.7202881000012,179,22,female,True
288,149.0,25,M,up,0.3669177000010677,1.683391789443592,,experiment,emotion,0.0,,,,809.1868900000009,179,22,female,True
289,149.0,25,F,up,0.2834925999995903,1.385074408604308,,experiment,emotion,0.0,,,,811.2701622999994,179,22,female,True
290,125.0,25,M,up,0.2335429999984626,1.3388062299490782,,experiment,emotion,0.0,,,,813.2867384000019,179,22,female,True
291,113.0,25,F,up,0.3002388999993854,1.4631128314288262,,experiment,emotion,0.0,,,,815.4364593999999,179,22,female,True
292,125.0,25,F,up,0.487670700000308,1.836083991748826,,experiment,emotion,0.0,,,,817.9532378000004,179,22,female,True
293,137.0,25,F,up,0.3001828999986173,0.7641933439904934,,experiment,emotion,0.0,,,,819.486490700001,179,22,female,True
294,113.0,25,M,up,0.2667700999991211,0.7001115964749598,,experiment,emotion,0.0,,,,820.8697801000017,179,22,female,True
295,149.0,25,M,up,0.2503156000020681,1.0801136460972165,,experiment,emotion,0.0,,,,822.6362183000019,179,22,female,True
296,137.0,25,M,up,0.233515100000659,1.5793057098125014,,experiment,emotion,0.0,,,,824.8862837000015,179,22,female,True
297,149.0,25,F,up,0.300125300000218,0.33899625408301,,experiment,emotion,0.0,,,,825.9196268000014,179,22,female,True
298,113.0,25,F,up,1.2437351999979,0.7723219209566281,,experiment,emotion,0.0,,,,827.386199200002,179,22,female,True
299,137.0,25,M,up,0.2834894999978132,0.613195874600693,,experiment,emotion,0.0,,,,829.5027934999998,179,22,female,True
300,125.0,25,F,up,0.3169343000008666,1.7224937387664188,,experiment,emotion,0.0,,,,831.9193414000001,179,22,female,True
301,125.0,25,M,up,0.6699435000009544,0.8632170834747008,,experiment,emotion,0.0,,,,833.4859847000007,179,22,female,True
302,137.0,25,M,up,0.283542999997735,0.8074593208340726,,experiment,emotion,0.0,,,,835.2358343000014,179,22,female,True
303,149.0,25,M,up,0.2335235999998985,1.372076187527836,,experiment,emotion,0.0,,,,837.3191312999988,179,22,female,True
304,125.0,25,F,up,0.3334896999986085,0.7792680910743195,,experiment,emotion,0.0,,,,838.7857642000017,179,22,female,True
305,113.0,25,F,up,0.3669558000001416,1.9569490317376328,,experiment,emotion,0.0,,,,841.4355527000007,179,22,female,True
306,113.0,25,M,up,0.4001974999991944,1.773101424493768,,experiment,emotion,0.0,,,,843.9022260999991,179,22,female,True
307,125.0,25,F,up,0.4474503999990702,0.9516268253254672,,experiment,emotion,0.0,,,,845.5355138000014,179,22,female,True
308,149.0,25,F,up,0.4739559000008739,1.5100200953502934,,experiment,emotion,0.0,,,,847.7519395999989,179,22,female,True
309,137.0,25,M,up,0.4932379999991099,1.0413407646781996,,experiment,emotion,0.0,,,,849.551738099999,179,22,female,True
310,113.0,25,M,up,0.2334407999987888,0.4021899514525816,,experiment,emotion,0.0,,,,850.7186532000014,179,22,female,True
311,149.0,25,F,up,1.676286699999764,0.4579764992204405,,experiment,emotion,0.0,,,,851.8686132000003,179,22,female,True
312,137.0,25,M,up,0.3668523999986064,1.8608718006853533,,experiment,emotion,0.0,,,,855.6684539999987,179,22,female,True
313,137.0,25,F,up,0.4864756999995734,0.699041937826544,,experiment,emotion,0.0,,,,857.0684222999989,179,22,female,True
314,113.0,25,F,up,0.1833932999979879,0.4319997292587423,,experiment,emotion,0.0,,,,858.2516862000011,179,22,female,True
315,125.0,25,F,up,0.3335143999975116,1.8004375280898688,,experiment,emotion,0.0,,,,860.7682602999994,179,22,female,True
316,149.0,25,M,up,0.400164799997583,1.727930519908101,,experiment,emotion,0.0,,,,863.201510400002,179,22,female,True
317,125.0,25,M,up,0.3668997999993735,1.8837842590937293,,experiment,emotion,0.0,,,,865.768070099999,179,22,female,True
318,125.0,25,F,up,0.4929019999981392,0.3675928745020609,,experiment,emotion,0.0,,,,866.818040099999,179,22,female,True
319,125.0,25,F,up,0.3001745000001392,1.599783297361098,,experiment,emotion,0.0,,,,869.1846052000001,179,22,female,True
320,149.0,25,M,up,0.3001574000008986,0.825933650567495,,experiment,emotion,0.0,,,,870.6845443999991,179,22,female,True
321,137.0,25,M,up,0.333484300001146,1.896243005719377,,experiment,emotion,0.0,,,,873.2677786999993,179,22,female,True
322,113.0,25,M,up,0.3001716999970085,1.1964036687933313,,experiment,emotion,0.0,,,,875.1677105999988,179,22,female,True
323,113.0,25,M,up,0.5438227000013285,0.5385886757398499,,experiment,emotion,0.0,,,,876.4009981000017,179,22,female,True
324,137.0,25,M,up,0.400187499999447,0.3704339990421295,,experiment,emotion,0.0,,,,877.5842889999985,179,22,female,True
325,149.0,25,F,up,0.3168364000011934,1.9213801893881104,,experiment,emotion,0.0,,,,880.1841988999986,179,22,female,True
326,149.0,25,F,up,0.3335160999995423,0.8247171979802821,,experiment,emotion,0.0,,,,881.7008059,179,22,female,True
327,113.0,25,M,up,0.3333764999988489,1.024480028190958,,experiment,emotion,0.0,,,,883.4007265,179,22,female,True
328,149.0,25,F,up,0.4167895999999018,1.8885541657242333,,experiment,emotion,0.0,,,,885.9673003999997,179,22,female,True
329,125.0,25,F,up,0.3668645000034303,0.5332526030670335,,experiment,emotion,0.0,,,,887.2172262999993,179,22,female,True
330,137.0,25,F,up,0.3335133000000496,0.4963490822054819,,experiment,emotion,0.0,,,,888.4171964000016,179,22,female,True
331,125.0,25,M,down,0.657397700000729,1.4959480410696355,,experiment,emotion,0.0,,,,890.6004431000001,179,22,female,True
332,113.0,25,F,down,0.5124538999989454,0.8301423312774465,,experiment,emotion,0.0,,,,892.3503989000019,179,22,female,True
333,137.0,25,F,up,0.4513532999990275,1.1744006391944668,,experiment,emotion,0.0,,,,894.3175607000012,179,22,female,True
334,125.0,25,F,up,0.7296158999997715,1.505196689248108,,experiment,emotion,0.0,,,,896.5502321999993,179,22,female,True
335,137.0,25,M,up,0.6425293000029342,1.9712063910994304,,experiment,emotion,0.0,,,,899.5333135000001,179,22,female,True
336,113.0,25,M,,,1.9461431428851823,,experiment,emotion,0.0,,,,902.4000349000016,179,22,female,True
337,149.0,25,F,up,0.538293400000839,0.6221959146821519,,experiment,emotion,0.0,,,,905.7165458000018,179,22,female,True
338,137.0,25,M,up,0.3001732000011543,0.8007873844682436,,experiment,emotion,0.0,,,,907.3331024,179,22,female,True
339,149.0,25,F,up,0.4453920000014477,0.8976080323156885,,experiment,emotion,0.0,,,,908.9164155,179,22,female,True
340,113.0,25,M,up,0.3169049999996787,1.3443673799856806,,experiment,emotion,0.0,,,,910.9829807999996,179,22,female,True
341,125.0,25,M,up,0.3170283999970706,1.3413734082673026,,experiment,emotion,0.0,,,,913.0327763999994,179,22,female,True
342,0.4853698961504132,25,up,up,0.6037232999988191,0.8891062972689814,,experiment,cRDM,1.0,,,,918.2160584000012,179,22,female,True
343,0.4853698961504132,25,up,down,0.4634986000019125,0.8255568247437517,,experiment,cRDM,1.0,,,,919.8993226999992,179,22,female,True
344,0.4853698961504132,25,down,down,0.4455049999996845,1.27348181069608,,experiment,cRDM,1.0,,,,921.8992647000014,179,22,female,True
345,0.4853698961504132,25,down,up,0.48331060000055,1.77469937855479,,experiment,cRDM,1.0,,,,924.3824994999997,179,22,female,True
346,0.4853698961504132,25,up,down,0.4320770999984233,0.9911379069540054,,experiment,cRDM,1.0,,,,926.115761699999,179,22,female,True
347,0.4853698961504132,25,down,up,0.450770299998112,1.84282396164747,,experiment,cRDM,1.0,,,,928.6490314000002,179,22,female,True
348,0.4853698961504132,25,up,down,0.4717793000017991,0.3906774335382349,,experiment,cRDM,1.0,,,,929.7490088000012,179,22,female,True
349,0.4853698961504132,25,up,up,0.3171412999981839,0.3859534818781086,,experiment,cRDM,1.0,,,,930.8489412000016,179,22,female,True
350,0.4853698961504132,25,down,down,0.4166754999969271,1.6031241334897308,,experiment,cRDM,1.0,,,,933.1155043,179,22,female,True
351,0.4853698961504132,25,down,up,0.3504400999991048,0.8584163493485342,,experiment,cRDM,1.0,,,,934.6488250000002,179,22,female,True
352,0.4853698961504132,25,down,up,0.416806400000496,1.2385741463515023,,experiment,cRDM,1.0,,,,936.5820077999996,179,22,female,True
353,0.4853698961504132,25,down,up,0.560459999996965,0.6442992367356175,,experiment,cRDM,1.0,,,,937.9153117999996,179,22,female,True
354,0.4853698961504132,25,down,down,0.4666354000000865,1.971242163743317,,experiment,cRDM,1.0,,,,940.7151988000004,179,22,female,True
355,0.4853698961504132,25,down,down,0.4603677999984938,0.5581829304313957,,experiment,cRDM,1.0,,,,941.9984323999996,179,22,female,True
356,0.4853698961504132,25,up,down,0.4990675000008195,1.9510937988278143,,experiment,cRDM,1.0,,,,944.6817037,179,22,female,True
357,0.4853698961504132,25,up,down,0.5382481999986339,0.59228398564963,,experiment,cRDM,1.0,,,,946.0315297999988,179,22,female,True
358,0.4853698961504132,25,up,down,0.4688395000011951,1.041761374357994,,experiment,cRDM,1.0,,,,947.8649369999983,179,22,female,True
359,0.4853698961504132,25,up,down,0.4769378999990294,1.819279503357837,,experiment,cRDM,1.0,,,,950.4148324000016,179,22,female,True
360,0.4853698961504132,25,down,down,0.5017203999996127,1.1902833070023302,,experiment,cRDM,1.0,,,,952.3481299000014,179,22,female,True
361,0.4853698961504132,25,up,down,0.4890806999974302,0.3056449872602095,,experiment,cRDM,1.0,,,,953.4147135999992,179,22,female,True
362,0.4853698961504132,25,up,down,0.5728051000005507,1.7788937164867948,,experiment,cRDM,1.0,,,,955.9479987999983,179,22,female,True
363,0.4853698961504132,25,down,down,0.6261701000003086,0.7384055899157221,,experiment,cRDM,1.0,,,,957.5145564000012,179,22,female,True
364,0.4853698961504132,25,up,down,1.234317700000247,0.7676405603206768,,experiment,cRDM,1.0,,,,959.1645157999992,179,22,female,True
365,0.4853698961504132,25,down,down,0.4296719999983907,0.5238329569187266,,experiment,cRDM,1.0,,,,961.1811148000016,179,22,female,True
366,0.4853698961504132,25,down,down,0.4389325000011013,1.1547264759793,,experiment,cRDM,1.0,,,,963.0308532999989,179,22,female,True
367,0.4853698961504132,25,up,down,0.3671109999995678,1.105815443227808,,experiment,cRDM,1.0,,,,964.8476456999996,179,22,female,True
368,0.4853698961504132,25,up,up,0.6805425000020477,1.98069292321832,,experiment,cRDM,1.0,,,,967.5141895000016,179,22,female,True
369,0.4853698961504132,25,down,up,0.4836570000006759,1.3524272027730042,,experiment,cRDM,1.0,,,,969.8141131000012,179,22,female,True
370,0.4853698961504132,25,up,down,0.4943084999977145,0.8814108448076834,,experiment,cRDM,1.0,,,,971.447394400002,179,22,female,True
371,0.4853698961504132,25,down,up,0.608452300002682,1.1904746311350511,,experiment,cRDM,1.0,,,,973.3972840999996,179,22,female,True
372,0.4853698961504132,25,down,up,0.7284970000000612,1.082760324190614,,experiment,cRDM,1.0,,,,975.3472595999992,179,22,female,True
373,0.4853698961504132,25,down,down,0.5884332000023278,1.0832240666337527,,experiment,cRDM,1.0,,,,977.4303454,179,22,female,True
374,0.4853698961504132,25,up,up,0.6159468999976525,0.6253933179446162,,experiment,cRDM,1.0,,,,978.9137527999992,179,22,female,True
375,0.4853698961504132,25,up,up,0.6330899999993562,1.8865048574515595,,experiment,cRDM,1.0,,,,981.6636311000002,179,22,female,True
376,0.4853698961504132,25,up,up,0.4885201000033703,0.4240228589598234,,experiment,cRDM,1.0,,,,982.980284100002,179,22,female,True
377,0.4853698961504132,25,down,down,0.5468615999998292,0.7708817331345534,,experiment,cRDM,1.0,,,,984.4968708000016,179,22,female,True
378,0.4853698961504132,25,down,up,0.6089500000016415,1.7378946562179274,,experiment,cRDM,1.0,,,,987.0467970999998,179,22,female,True
379,0.4853698961504132,25,up,up,0.5364101999984996,1.7379976812191007,,experiment,cRDM,1.0,,,,989.6633321000008,179,22,female,True
380,0.4853698961504132,25,down,down,0.4363806000001204,1.1959306367505873,,experiment,cRDM,1.0,,,,991.6632691999984,179,22,female,True
381,0.4853698961504132,25,up,up,0.6518472999996447,1.317977498480347,,experiment,cRDM,1.0,,,,993.6798573999986,179,22,female,True
382,0.4853698961504132,25,up,up,0.5676109999985783,1.1159641127215696,,experiment,cRDM,1.0,,,,995.7131173999989,179,22,female,True
383,0.4853698961504132,25,up,up,0.5233402000012575,1.9142343643848363,,experiment,cRDM,1.0,,,,998.4463727000002,179,22,female,True
384,0.4853698961504132,25,down,down,0.5263100999982271,0.4020734054843441,,experiment,cRDM,1.0,,,,999.6294488999991,179,22,female,True
385,0.4853698961504132,25,down,down,0.6448536999996577,1.3067462504993652,,experiment,cRDM,1.0,,,,1001.712875199999,179,22,female,True
386,0.4853698961504132,25,up,up,0.6852792999998201,1.9614565190902615,,experiment,cRDM,1.0,,,,1004.5794633000004,179,22,female,True
387,0.4853698961504132,25,down,up,0.4616516999994928,0.7625991773454702,,experiment,cRDM,1.0,,,,1006.2960409000008,179,22,female,True
388,0.4853698961504132,25,down,up,0.5087218000007852,0.4707826047708348,,experiment,cRDM,1.0,,,,1007.4959334999984,179,22,female,True
389,0.4853698961504132,25,up,up,0.6024434999999357,1.1190287611240306,,experiment,cRDM,1.0,,,,1009.3792571999984,179,22,female,True
390,0.4853698961504132,25,up,up,0.5237568999982614,1.484289190394536,,experiment,cRDM,1.0,,,,1011.7289839000003,179,22,female,True
391,0.4853698961504132,25,down,up,0.4003275999966718,1.503426642076479,,experiment,cRDM,1.0,,,,1014.0289057000008,179,22,female,True
392,0.4853698961504132,25,up,up,0.506042000000889,1.475803017428253,,experiment,cRDM,1.0,,,,1016.1956762000008,179,22,female,True
393,0.4853698961504132,25,down,up,0.4167433999973582,0.486003181592296,,experiment,cRDM,1.0,,,,1017.4456833000004,179,22,female,True
394,0.4853698961504132,25,down,up,0.367254500000854,0.8442520119962393,,experiment,cRDM,1.0,,,,1018.9788759000004,179,22,female,True
395,0.4853698961504132,25,down,up,0.3169760999990103,0.3624404962218938,,experiment,cRDM,1.0,,,,1020.0121806999996,179,22,female,True
396,0.4853698961504132,25,up,up,1.4585984999976065,1.9704484861783709,,experiment,cRDM,1.0,,,,1022.6620831,179,22,female,True
397,0.4853698961504132,25,up,up,1.0851862999988953,1.4366015453263103,,experiment,cRDM,1.0,,,,1025.8284878999984,179,22,female,True
398,0.4853698961504132,25,down,up,0.4968278999986069,0.4400204371714206,,experiment,cRDM,1.0,,,,1027.6118811000017,179,22,female,True
399,0.4853698961504132,25,down,up,0.4168564999999944,0.5809622263813601,,experiment,cRDM,1.0,,,,1028.9451513999993,179,22,female,True
400,0.4853698961504132,25,up,up,0.4273690999980317,1.4137818376864772,,experiment,cRDM,1.0,,,,1031.0283046000004,179,22,female,True
401,0.4853698961504132,25,up,up,0.422303200000897,1.4771980233073585,,experiment,cRDM,1.0,,,,1033.1783596999994,179,22,female,True
402,0.4853698961504132,25,up,up,0.5296758999975282,0.8271931522051461,,experiment,cRDM,1.0,,,,1034.694964800001,179,22,female,True
403,0.4853698961504132,25,up,up,0.4871192000027804,1.6613451588960853,,experiment,cRDM,1.0,,,,1037.1615410000013,179,22,female,True
404,0.4853698961504132,25,up,up,0.748638299999584,1.6649367718538146,,experiment,cRDM,1.0,,,,1039.578101499999,179,22,female,True
405,0.4853698961504132,25,down,up,0.5919478999967396,1.667723278373135,,experiment,cRDM,1.0,,,,1042.2447021000007,179,22,female,True
406,0.4853698961504132,25,down,up,0.4593610000010812,0.7095150456144086,,experiment,cRDM,1.0,,,,1043.811291500002,179,22,female,True
407,0.4853698961504132,25,up,up,0.4654795999995258,1.4693232050974396,,experiment,cRDM,1.0,,,,1046.0111781999983,179,22,female,True
408,0.4853698961504132,25,down,down,0.4389392999983101,0.4791882270357771,,experiment,cRDM,1.0,,,,1047.2277065000017,179,22,female,True
409,0.4853698961504132,25,down,up,0.3171433999996225,0.6078741070598406,,experiment,cRDM,1.0,,,,1048.5444610999984,179,22,female,True
410,0.4853698961504132,25,down,up,0.3173080999986268,0.6502889212632306,,experiment,cRDM,1.0,,,,1049.8777082999986,179,22,female,True
411,0.4853698961504132,25,up,up,0.2671580000023823,1.0872017702628594,,experiment,cRDM,1.0,,,,1051.644357600002,179,22,female,True
412,0.4853698961504132,25,down,up,0.2838673000005656,0.9890974124929904,,experiment,cRDM,1.0,,,,1053.3109107000018,179,22,female,True
413,0.4853698961504132,25,down,up,0.3673472000009496,0.9363644120149766,,experiment,cRDM,1.0,,,,1054.9273839999987,179,22,female,True
414,0.4853698961504132,25,down,up,0.3337571999982174,1.382960974321389,,experiment,cRDM,1.0,,,,1056.994090600001,179,22,female,True
415,0.4853698961504132,25,up,down,0.64226570000028,1.4008598046281031,,experiment,cRDM,1.0,,,,1059.077378500002,179,22,female,True
416,0.4853698961504132,25,up,up,0.7176211999976658,1.0452716416376484,,experiment,cRDM,1.0,,,,1061.0440038999986,179,22,female,True
417,0.4853698961504132,25,down,up,0.5774253999989014,0.4622919004850933,,experiment,cRDM,1.0,,,,1062.4772435999985,179,22,female,True
418,0.4853698961504132,25,up,down,0.8414582000004884,0.548241463968937,,experiment,cRDM,1.0,,,,1063.8771779000017,179,22,female,True
419,0.4853698961504132,25,down,down,0.6752140000025975,1.8704618938183648,,experiment,cRDM,1.0,,,,1066.8604080000005,179,22,female,True
420,0.4853698961504132,25,up,down,0.5635483000005479,0.6843236947883541,,experiment,cRDM,1.0,,,,1068.4770223999983,179,22,female,True
421,0.4853698961504132,25,up,down,0.7523456999988412,0.8135295930164348,,experiment,cRDM,1.0,,,,1070.110271900001,179,22,female,True
422,149.0,25,M,down,1.019515500000125,0.9214032745587672,,experiment,emotion,1.0,,,,1074.9601014,179,22,female,True
423,113.0,25,M,up,0.5262879000001703,1.930844263280774,,experiment,emotion,1.0,,,,1078.193321499999,179,22,female,True
424,137.0,25,F,up,0.5900366999994731,1.7686863011513854,,experiment,emotion,1.0,,,,1080.7765451999985,179,22,female,True
425,149.0,25,F,up,0.316811200002121,1.2775374594564894,,experiment,emotion,1.0,,,,1082.909770300001,179,22,female,True
426,137.0,25,M,up,0.5925057000022207,0.4383404204989148,,experiment,emotion,1.0,,,,1084.043089400002,179,22,female,True
427,125.0,25,F,up,0.2835145999997621,0.3760417454246131,,experiment,emotion,1.0,,,,1085.2930285000002,179,22,female,True
428,113.0,25,M,up,0.2500857000013639,1.49734657279784,,experiment,emotion,1.0,,,,1087.4763080000012,179,22,female,True
429,125.0,25,M,up,0.5360486999998102,0.6472218612933576,,experiment,emotion,1.0,,,,1088.8095525999995,179,22,female,True
430,149.0,25,F,up,0.552095899998676,0.4466473912544023,,experiment,emotion,1.0,,,,1090.059512200001,179,22,female,True
431,125.0,25,F,up,0.4331243000015092,0.5214283748562706,,experiment,emotion,1.0,,,,1091.4094503999986,179,22,female,True
432,137.0,25,F,up,0.2668234999982815,1.984985217435837,,experiment,emotion,1.0,,,,1094.0926986999984,179,22,female,True
433,149.0,25,F,up,0.3001162000000477,1.2303151885452746,,experiment,emotion,1.0,,,,1096.0258270999984,179,22,female,True
434,137.0,25,F,up,0.366848999998183,1.5084137919936669,,experiment,emotion,1.0,,,,1098.2091997999996,179,22,female,True
435,113.0,25,F,up,0.3667892000012216,1.5499518410785764,,experiment,emotion,1.0,,,,1100.4424676000017,179,22,female,True
436,125.0,25,M,up,0.430575399997906,0.8846850847539256,,experiment,emotion,1.0,,,,1102.025987699999,179,22,female,True
437,113.0,25,M,up,0.4168231000003288,1.059702905051194,,experiment,emotion,1.0,,,,1103.7756585999996,179,22,female,True
438,149.0,25,M,up,0.4796042000016314,1.3895317412757655,,experiment,emotion,1.0,,,,1105.8589164000005,179,22,female,True
439,113.0,25,M,up,0.4772112999999081,1.4127496943272086,,experiment,emotion,1.0,,,,1108.025360399999,179,22,female,True
440,137.0,25,F,up,0.4001405999988492,0.9576189546553016,,experiment,emotion,1.0,,,,1109.725354000002,179,22,female,True
441,137.0,25,M,down,0.7022495999990497,1.860763628234809,,experiment,emotion,1.0,,,,1112.275310000001,179,22,female,True
442,125.0,25,M,up,0.4001834000009694,1.1261530358552363,,experiment,emotion,1.0,,,,1114.4085959000004,179,22,female,True
443,125.0,25,F,up,0.4446987000010267,1.042576583003169,,experiment,emotion,1.0,,,,1116.1418680999996,179,22,female,True
444,113.0,25,M,up,0.3836233000001812,1.7652333704121776,,experiment,emotion,1.0,,,,1118.6249518000004,179,22,female,True
445,149.0,25,F,up,0.5478376999999455,0.4601898092926011,,experiment,emotion,1.0,,,,1119.7917159999995,179,22,female,True
446,137.0,25,F,up,0.4685755999998946,1.8226120880128909,,experiment,emotion,1.0,,,,1122.4249751999996,179,22,female,True
447,113.0,25,M,up,0.4693766000018513,1.7370944456915007,,experiment,emotion,1.0,,,,1124.9081713999983,179,22,female,True
448,149.0,25,M,up,0.3833740000009129,1.0801811194774054,,experiment,emotion,1.0,,,,1126.724792500001,179,22,female,True
449,149.0,25,F,up,0.4168114999993122,0.5051199172460881,,experiment,emotion,1.0,,,,1127.9247381999994,179,22,female,True
450,125.0,25,M,down,0.7598418000015954,0.9431783746480142,,experiment,emotion,1.0,,,,1129.5747014000008,179,22,female,True
451,113.0,25,F,down,0.5133037000014156,0.381527929613511,,experiment,emotion,1.0,,,,1130.9912943000018,179,22,female,True
452,125.0,25,F,up,0.4226603999995859,0.7823840366201469,,experiment,emotion,1.0,,,,1132.5579036000015,179,22,female,True
453,137.0,25,F,up,0.4001642000002903,1.356916290942674,,experiment,emotion,1.0,,,,1134.624345799999,179,22,female,True
454,113.0,25,M,up,0.3168421000009402,1.6749300226551702,,experiment,emotion,1.0,,,,1136.9910744000008,179,22,female,True
455,149.0,25,M,up,0.4819270000007236,0.3418644893912302,,experiment,emotion,1.0,,,,1138.0076757999996,179,22,female,True
456,137.0,25,M,up,0.3834937000028731,1.5913993660579235,,experiment,emotion,1.0,,,,1140.3576039,179,22,female,True
457,149.0,25,F,up,0.4376587999977346,1.1031432880457857,,experiment,emotion,1.0,,,,1142.1409052000015,179,22,female,True
458,113.0,25,F,up,0.7543336999988242,0.3341965359219737,,experiment,emotion,1.0,,,,1143.1741599000015,179,22,female,True
459,137.0,25,M,up,0.3835123999997449,1.3748934351280309,,experiment,emotion,1.0,,,,1145.574072200001,179,22,female,True
460,125.0,25,F,up,0.4002163000004657,0.7839000669026785,,experiment,emotion,1.0,,,,1147.0407078999997,179,22,female,True
461,125.0,25,M,up,0.4996216999970784,1.6574719791705332,,experiment,emotion,1.0,,,,1149.3739443000013,179,22,female,True
462,137.0,25,M,up,0.4627586999995401,1.587259527509821,,experiment,emotion,1.0,,,,1151.723744700001,179,22,female,True
463,149.0,25,M,up,0.5629306999981054,1.265059568510698,,experiment,emotion,1.0,,,,1153.723597799999,179,22,female,True
464,125.0,25,F,up,0.4798987000031047,0.3694366534202161,,experiment,emotion,1.0,,,,1154.923594799999,179,22,female,True
465,113.0,25,F,up,0.3168393000014475,1.224219934009246,,experiment,emotion,1.0,,,,1156.906971100001,179,22,female,True
466,113.0,25,M,up,0.3500118999982078,0.6769366316215526,,experiment,emotion,1.0,,,,1158.2735885000002,179,22,female,True
467,125.0,25,F,down,0.6048573999978544,1.1242276304778154,,experiment,emotion,1.0,,,,1160.106648699999,179,22,female,True
468,149.0,25,F,up,0.1501887999984319,1.0384719505404365,,experiment,emotion,1.0,,,,1162.0234439999986,179,22,female,True
469,137.0,25,M,up,0.480151299998397,1.4168911559601465,,experiment,emotion,1.0,,,,1164.1233686999983,179,22,female,True
470,113.0,25,M,up,0.3001850000000559,0.5948672599289648,,experiment,emotion,1.0,,,,1165.4566357000003,179,22,female,True
471,149.0,25,F,up,0.4170076999980665,0.9686576040654996,,experiment,emotion,1.0,,,,1167.1231040999992,179,22,female,True
472,137.0,25,M,up,0.4186781999997038,1.8654304910900807,,experiment,emotion,1.0,,,,1169.6898096000004,179,22,female,True
473,137.0,25,F,down,0.8177300999996078,0.6688851671686613,,experiment,emotion,1.0,,,,1171.0397795999995,179,22,female,True
474,113.0,25,F,down,0.7958216999977594,1.6998065590635432,,experiment,emotion,1.0,,,,1173.8396643999986,179,22,female,True
475,125.0,25,F,down,0.6349590999998327,1.877468788245402,,experiment,emotion,1.0,,,,1176.7895374,179,22,female,True
476,149.0,25,M,down,0.6639359000000695,1.6808881634760937,,experiment,emotion,1.0,,,,1179.3727857000013,179,22,female,True
477,125.0,25,M,down,0.572503899998992,1.804778187405104,,experiment,emotion,1.0,,,,1182.1059944000008,179,22,female,True
478,125.0,25,F,down,0.5482511999980488,1.9427419415731173,,experiment,emotion,1.0,,,,1184.8892221999995,179,22,female,True
479,125.0,25,F,down,0.6382866999992984,1.6686974223835511,,experiment,emotion,1.0,,,,1187.3891637999986,179,22,female,True
480,149.0,25,M,up,0.4787641000002622,0.903984547025307,,experiment,emotion,1.0,,,,1189.2057036000006,179,22,female,True
481,137.0,25,M,up,0.7974708000001556,1.2582335999207928,,experiment,emotion,1.0,,,,1191.2389973999998,179,22,female,True
482,113.0,25,M,up,0.5179588000028161,0.7897869348502877,,experiment,emotion,1.0,,,,1193.1054820999998,179,22,female,True
483,113.0,25,M,down,0.6416104000018095,1.2505993972476577,,experiment,emotion,1.0,,,,1195.1388521000008,179,22,female,True
484,137.0,25,M,down,0.8893674999999348,0.8715868206970734,,experiment,emotion,1.0,,,,1196.9220902000015,179,22,female,True
485,149.0,25,F,down,0.5940990000017337,0.8811370080793408,,experiment,emotion,1.0,,,,1198.9553629000002,179,22,female,True
486,149.0,25,F,down,0.6585631999987527,0.9124870182992092,,experiment,emotion,1.0,,,,1200.721878799999,179,22,female,True
487,113.0,25,M,down,0.6356037999976252,0.620682732158362,,experiment,emotion,1.0,,,,1202.2719077000002,179,22,female,True
488,149.0,25,F,down,0.6676207000018621,1.5953624679504572,,experiment,emotion,1.0,,,,1204.7718305000017,179,22,female,True
489,125.0,25,F,up,0.8933528999987175,0.3167723167396812,,experiment,emotion,1.0,,,,1206.0550933999984,179,22,female,True
490,137.0,25,F,up,0.5145340000017313,1.9796130875113471,,experiment,emotion,1.0,,,,1209.2049554000005,179,22,female,True
491,125.0,25,M,up,0.6958507000017562,1.1364493654272452,,experiment,emotion,1.0,,,,1211.1215919999995,179,22,female,True
492,113.0,25,F,up,0.5223306000007142,1.4477920830237143,,experiment,emotion,1.0,,,,1213.5381272999985,179,22,female,True
493,137.0,25,F,up,0.4213271000007808,0.6895899045625133,,experiment,emotion,1.0,,,,1215.038109000001,179,22,female,True
494,125.0,25,F,up,0.3335318000026745,1.179753459810472,,experiment,emotion,1.0,,,,1216.9046457000004,179,22,female,True
495,137.0,25,M,up,0.3168207000016991,0.928656226439269,,experiment,emotion,1.0,,,,1218.521293400001,179,22,female,True
496,113.0,25,M,up,0.3500300999985484,0.3358406013024654,,experiment,emotion,1.0,,,,1219.554596500002,179,22,female,True
497,149.0,25,F,up,0.5146821999987878,1.936313937834441,,experiment,emotion,1.0,,,,1222.1877940000013,179,22,female,True
498,137.0,25,M,up,0.5746882999992522,1.7100769811580931,,experiment,emotion,1.0,,,,1224.6877329999988,179,22,female,True
499,149.0,25,F,up,0.3333628000000317,1.0523834041378577,,experiment,emotion,1.0,,,,1226.5876599000003,179,22,female,True
500,113.0,25,M,up,0.3168279000019538,0.77163200914724,,experiment,emotion,1.0,,,,1228.0376017999988,179,22,female,True
501,125.0,25,M,down,0.854264300000068,1.6673012733451162,,experiment,emotion,1.0,,,,1230.4041464000002,179,22,female,True
502,0.4853698961504132,25,up,up,0.5351519999967422,0.7791334765480036,,experiment,cRDM,2.0,,,,1254.6032344999985,179,22,female,True
503,0.4853698961504132,25,up,up,0.4698647000004712,1.0321684929922794,,experiment,cRDM,2.0,,,,1256.436539800001,179,22,female,True
504,0.4853698961504132,25,down,up,0.4897123000009742,0.8442369859051249,,experiment,cRDM,2.0,,,,1258.0196997999992,179,22,female,True
505,0.4853698961504132,25,down,up,0.3838475000011385,1.7900576428119737,,experiment,cRDM,2.0,,,,1260.5696802999992,179,22,female,True
506,0.4853698961504132,25,up,up,0.7814276999997674,1.0949792301164778,,experiment,cRDM,2.0,,,,1262.352948899999,179,22,female,True
507,0.4853698961504132,25,down,up,0.485847099997045,1.5680071949354115,,experiment,cRDM,2.0,,,,1264.9695170999985,179,22,female,True
508,0.4853698961504132,25,up,up,0.588329000001977,1.889390620320116,,experiment,cRDM,2.0,,,,1267.5860697999997,179,22,female,True
509,0.4853698961504132,25,up,up,0.3506127999971795,0.4843135034547052,,experiment,cRDM,2.0,,,,1268.9025647000017,179,22,female,True
510,0.4853698961504132,25,down,up,0.4533833999994385,1.0623052811481783,,experiment,cRDM,2.0,,,,1270.6359780999992,179,22,female,True
511,0.4853698961504132,25,down,up,0.6050558999995701,0.7740595464290497,,experiment,cRDM,2.0,,,,1272.119275600002,179,22,female,True
512,0.4853698961504132,25,down,up,0.7418529000024137,1.4656194905962874,,experiment,cRDM,2.0,,,,1274.452494699999,179,22,female,True
513,0.4853698961504132,25,down,up,0.5856595000004745,0.8758801248306554,,experiment,cRDM,2.0,,,,1276.3357426000002,179,22,female,True
514,0.4853698961504132,25,down,up,0.7323646000004373,1.3976557595245742,,experiment,cRDM,2.0,,,,1278.568986599999,179,22,female,True
515,0.4853698961504132,25,down,up,0.4867683999982546,0.7683175013918991,,experiment,cRDM,2.0,,,,1280.3355833999997,179,22,female,True
516,0.4853698961504132,25,up,up,2.1601383999986865,1.746435706305525,,experiment,cRDM,2.0,,,,1282.8521986000014,179,22,female,True
517,0.4853698961504132,25,up,down,0.8566190999990795,0.9070927283481328,,experiment,cRDM,2.0,,,,1286.1687149999998,179,22,female,True
518,0.4853698961504132,25,up,up,0.8453937999984191,1.212384021119504,,experiment,cRDM,2.0,,,,1288.501945600001,179,22,female,True
519,0.4853698961504132,25,up,up,0.6928168999984337,1.1586051680796523,,experiment,cRDM,2.0,,,,1290.7685175000006,179,22,female,True
520,0.4853698961504132,25,down,down,0.7332074000005377,1.2709069847505192,,experiment,cRDM,2.0,,,,1292.985123800001,179,22,female,True
521,0.4853698961504132,25,up,up,0.6453054000012344,1.8403569353224127,,experiment,cRDM,2.0,,,,1295.8350219999993,179,22,female,True
522,0.4853698961504132,25,up,down,0.5470668999987538,1.874632813540125,,experiment,cRDM,2.0,,,,1298.6182713000017,179,22,female,True
523,0.4853698961504132,25,down,up,0.6187982999981614,0.315415360155967,,experiment,cRDM,2.0,,,,1299.7515387999993,179,22,female,True
524,0.4853698961504132,25,up,up,0.7565557999987504,1.1414807817597306,,experiment,cRDM,2.0,,,,1301.784765200002,179,22,female,True
525,0.4853698961504132,25,down,down,0.5950706000003265,0.7812262692624732,,experiment,cRDM,2.0,,,,1303.601185800002,179,22,female,True
526,0.4853698961504132,25,down,up,0.7633774999994785,1.7026262638203755,,experiment,cRDM,2.0,,,,1306.1679396,179,22,female,True
527,0.4853698961504132,25,up,up,0.5854780999979994,1.6728796899633278,,experiment,cRDM,2.0,,,,1308.867839999999,179,22,female,True
528,0.4853698961504132,25,up,up,0.5188725000007253,0.9513999456738016,,experiment,cRDM,2.0,,,,1310.6844404000003,179,22,female,True
529,0.4853698961504132,25,down,down,0.6882899000011093,1.233613606267726,,experiment,cRDM,2.0,,,,1312.701017700001,179,22,female,True
530,0.4853698961504132,25,up,up,0.4259769999989657,0.7202214817281017,,experiment,cRDM,2.0,,,,1314.3842989000004,179,22,female,True
531,0.4853698961504132,25,down,up,0.5597711999980675,1.2276145171304826,,experiment,cRDM,2.0,,,,1316.300595699999,179,22,female,True
532,0.4853698961504132,25,down,up,0.5656640999986848,1.88714137066722,,experiment,cRDM,2.0,,,,1319.0006314999991,179,22,female,True
533,0.4853698961504132,25,down,up,0.6235481000003347,1.1755796196885444,,experiment,cRDM,2.0,,,,1321.0007164000017,179,22,female,True
534,0.4853698961504132,25,up,up,0.52936690000206,1.241755531206837,,experiment,cRDM,2.0,,,,1323.134000500002,179,22,female,True
535,0.4853698961504132,25,up,down,0.5630068999998912,0.542887048523333,,experiment,cRDM,2.0,,,,1324.4672451000006,179,22,female,True
536,0.4853698961504132,25,up,up,0.4387716000019281,0.8472600546716558,,experiment,cRDM,2.0,,,,1326.1505217000013,179,22,female,True
537,0.4853698961504132,25,down,down,0.416814099997282,0.999947896634042,,experiment,cRDM,2.0,,,,1327.8504532000006,179,22,female,True
538,0.4853698961504132,25,down,down,0.6128950999991503,0.8129429228253844,,experiment,cRDM,2.0,,,,1329.3503908999992,179,22,female,True
539,0.4853698961504132,25,up,up,0.4689649000029021,1.7389813241937295,,experiment,cRDM,2.0,,,,1331.9503270999994,179,22,female,True
540,0.4853698961504132,25,down,up,0.9743673999983002,1.8804153768603875,,experiment,cRDM,2.0,,,,1334.5668928999985,179,22,female,True
541,0.4853698961504132,25,up,down,0.5193025000007765,0.619838102387434,,experiment,cRDM,2.0,,,,1336.4170338000004,179,22,female,True
542,0.4853698961504132,25,up,down,0.9055393999988156,1.268016316759002,,experiment,cRDM,2.0,,,,1338.466732199999,179,22,female,True
543,0.4853698961504132,25,up,up,0.6530050000001211,1.3977718779699893,,experiment,cRDM,2.0,,,,1341.0333170000013,179,22,female,True
544,0.4853698961504132,25,down,down,0.7710484000017459,0.8361619927751605,,experiment,cRDM,2.0,,,,1342.7832132000003,179,22,female,True
545,0.4853698961504132,25,down,down,0.5461099999993166,0.5072707972937224,,experiment,cRDM,2.0,,,,1344.3331601999998,179,22,female,True
546,0.4853698961504132,25,up,up,0.6795326999999816,1.5183232282631434,,experiment,cRDM,2.0,,,,1346.6497320000017,179,22,female,True
547,0.4853698961504132,25,down,down,0.5779132999996364,1.0816722731849555,,experiment,cRDM,2.0,,,,1348.6663455999987,179,22,female,True
548,0.4853698961504132,25,down,down,0.6171035999977903,1.1028345068307197,,experiment,cRDM,2.0,,,,1350.6161791999984,179,22,female,True
549,0.4853698961504132,25,up,up,0.6272181999993336,0.4183450442961404,,experiment,cRDM,2.0,,,,1351.916078300001,179,22,female,True
550,0.4853698961504132,25,up,up,0.6471185000009427,1.5086332622697698,,experiment,cRDM,2.0,,,,1354.316136699999,179,22,female,True
551,0.4853698961504132,25,down,down,0.8025759000011021,1.762099290838621,,experiment,cRDM,2.0,,,,1356.9826629999989,179,22,female,True
552,0.4853698961504132,25,up,down,1.107238500000676,0.6692441440060763,,experiment,cRDM,2.0,,,,1358.7159914000003,179,22,female,True
553,0.4853698961504132,25,down,down,0.7520838999989792,1.2658823546065774,,experiment,cRDM,2.0,,,,1361.3491601999997,179,22,female,True
554,0.4853698961504132,25,down,down,0.7294661000014457,1.84501144696916,,experiment,cRDM,2.0,,,,1364.2157735,179,22,female,True
555,0.4853698961504132,25,down,down,0.6065183999999135,0.8871469167214092,,experiment,cRDM,2.0,,,,1366.1157152999986,179,22,female,True
556,0.4853698961504132,25,up,down,0.5586346999989473,1.621767966914535,,experiment,cRDM,2.0,,,,1368.6156190000002,179,22,female,True
557,0.4853698961504132,25,up,down,0.5817275000008522,0.4746360400343279,,experiment,cRDM,2.0,,,,1369.9155554999998,179,22,female,True
558,0.4853698961504132,25,down,down,0.5678819999993721,1.951163340781017,,experiment,cRDM,2.0,,,,1372.715411600002,179,22,female,True
559,0.4853698961504132,25,down,down,0.4937361999982386,0.7482835073301202,,experiment,cRDM,2.0,,,,1374.2985709999994,179,22,female,True
560,0.4853698961504132,25,up,up,0.6343062999985705,1.933043988820921,,experiment,cRDM,2.0,,,,1376.9819148999995,179,22,female,True
561,0.4853698961504132,25,up,up,1.17234880000251,0.5442375112422246,,experiment,cRDM,2.0,,,,1378.4318630999987,179,22,female,True
562,0.4853698961504132,25,up,down,0.5734150999996928,0.5968020497208534,,experiment,cRDM,2.0,,,,1380.4817822000005,179,22,female,True
563,0.4853698961504132,25,up,up,0.6440779000004113,1.1944206125588757,,experiment,cRDM,2.0,,,,1382.4982065000004,179,22,female,True
564,0.4853698961504132,25,up,up,0.6112244999967515,0.4671002708003445,,experiment,cRDM,2.0,,,,1383.8649931,179,22,female,True
565,0.4853698961504132,25,down,down,0.9696440000006988,1.5470952197008714,,experiment,cRDM,2.0,,,,1386.281571399999,179,22,female,True
566,0.4853698961504132,25,down,up,0.6794025999988662,1.050306570077717,,experiment,cRDM,2.0,,,,1388.5648064000015,179,22,female,True
567,0.4853698961504132,25,up,down,0.5346673000021838,1.0993836645253312,,experiment,cRDM,2.0,,,,1390.6145364000004,179,22,female,True
568,0.4853698961504132,25,down,down,0.6481984999991255,1.4165906344598378,,experiment,cRDM,2.0,,,,1392.848004800002,179,22,female,True
569,0.4853698961504132,25,down,down,0.5539716999992379,1.227941548036807,,experiment,cRDM,2.0,,,,1394.9812280000006,179,22,female,True
570,0.4853698961504132,25,down,down,0.5589175000022806,1.7240717866581414,,experiment,cRDM,2.0,,,,1397.5142769999984,179,22,female,True
571,0.4853698961504132,25,up,down,0.5705142000006163,1.9707541797767456,,experiment,cRDM,2.0,,,,1400.2976820000003,179,22,female,True
572,0.4853698961504132,25,down,down,0.4342040000010456,1.0651142373939813,,experiment,cRDM,2.0,,,,1402.1809581999987,179,22,female,True
573,0.4853698961504132,25,down,down,0.5402778999996372,0.5164330145844457,,experiment,cRDM,2.0,,,,1403.3809121000013,179,22,female,True
574,0.4853698961504132,25,down,down,0.4971712000005936,1.841010048224649,,experiment,cRDM,2.0,,,,1406.0140147999991,179,22,female,True
575,0.4853698961504132,25,up,up,0.5944595000000845,1.31335008224376,,experiment,cRDM,2.0,,,,1408.0807301999994,179,22,female,True
576,0.4853698961504132,25,up,up,0.5501699000014924,0.8362847982510013,,experiment,cRDM,2.0,,,,1409.7640022999983,179,22,female,True
577,0.4853698961504132,25,down,down,0.4880014000009396,1.320267044522401,,experiment,cRDM,2.0,,,,1411.8971827999994,179,22,female,True
578,0.4853698961504132,25,up,up,0.6156042000002344,1.4549833380353965,,experiment,cRDM,2.0,,,,1414.1136546000016,179,22,female,True
579,0.4853698961504132,25,down,down,0.4167906000002404,0.9762359150961732,,experiment,cRDM,2.0,,,,1415.9637571999992,179,22,female,True
580,0.4853698961504132,25,up,up,0.5607631999992009,0.4187482768714489,,experiment,cRDM,2.0,,,,1417.0804114999992,179,22,female,True
581,0.4853698961504132,25,up,down,0.3007102999981725,1.6874615092495555,,experiment,cRDM,2.0,,,,1419.5967803999993,179,22,female,True
582,149.0,25,M,up,0.4954084000019065,1.4290592701203657,,experiment,emotion,2.0,,,,1432.8297824,179,22,female,True
583,113.0,25,M,down,0.5953791000029014,0.3224469534339681,,experiment,emotion,2.0,,,,1433.929742299999,179,22,female,True
584,137.0,25,F,down,0.5774061000010988,0.6109017500293458,,experiment,emotion,2.0,,,,1435.4297092000015,179,22,female,True
585,149.0,25,F,down,0.4498581000007107,1.3567784130159373,,experiment,emotion,2.0,,,,1437.6462878999992,179,22,female,True
586,137.0,25,M,down,0.5475857999990694,0.777914723153428,,experiment,emotion,2.0,,,,1439.1295576000011,179,22,female,True
587,125.0,25,F,up,0.4950413000005937,1.8223490248062997,,experiment,emotion,2.0,,,,1441.7961044000003,179,22,female,True
588,113.0,25,M,up,0.4574097000004258,0.6480560633279691,,experiment,emotion,2.0,,,,1443.212765799999,179,22,female,True
589,125.0,25,M,down,0.6903920000004291,1.9678757411645065,,experiment,emotion,2.0,,,,1445.895743600002,179,22,female,True
590,149.0,25,F,down,0.5855866999991122,0.8986845784454702,,experiment,emotion,2.0,,,,1447.762547800001,179,22,female,True
591,125.0,25,F,down,0.6874763999985589,1.9760647811368837,,experiment,emotion,2.0,,,,1450.5956788000003,179,22,female,True
592,137.0,25,F,down,0.6354338000019197,1.5879543981503412,,experiment,emotion,2.0,,,,1453.1456751000003,179,22,female,True
593,149.0,25,F,down,0.6694490000008955,0.5044900003280989,,experiment,emotion,2.0,,,,1454.5456273000018,179,22,female,True
594,137.0,25,F,down,0.5018758999976853,0.67740865292902,,experiment,emotion,2.0,,,,1456.1622438999984,179,22,female,True
595,113.0,25,F,down,0.6896692000009352,1.2625943831870805,,experiment,emotion,2.0,,,,1458.195448999999,179,22,female,True
596,125.0,25,M,down,0.5063853999999992,1.7153112930801069,,experiment,emotion,2.0,,,,1460.8787306000013,179,22,female,True
597,113.0,25,M,down,0.4762816000002203,1.3593640142698131,,experiment,emotion,2.0,,,,1463.0118303000015,179,22,female,True
598,149.0,25,M,up,0.7522317000002658,1.4883095369709527,,experiment,emotion,2.0,,,,1465.261921500001,179,22,female,True
599,113.0,25,M,down,0.5559450000000652,0.5582210095479336,,experiment,emotion,2.0,,,,1466.845184599999,179,22,female,True
600,137.0,25,F,up,0.5440433000003395,1.6726791815666222,,experiment,emotion,2.0,,,,1469.345058700001,179,22,female,True
601,137.0,25,M,down,0.5097570000034466,1.0756663968386715,,experiment,emotion,2.0,,,,1471.2283462000014,179,22,female,True
602,125.0,25,M,down,0.6885479999982635,0.5612489505373324,,experiment,emotion,2.0,,,,1472.5615873999996,179,22,female,True
603,125.0,25,F,down,0.4905544000030204,0.8426952596087385,,experiment,emotion,2.0,,,,1474.3615395999989,179,22,female,True
604,113.0,25,M,down,0.4886511000004248,1.1429467105754465,,experiment,emotion,2.0,,,,1476.2614501999997,179,22,female,True
605,149.0,25,F,up,0.5430311000018264,1.0016427712178992,,experiment,emotion,2.0,,,,1478.028079300002,179,22,female,True
606,137.0,25,F,down,0.533114800000476,1.328524567089555,,experiment,emotion,2.0,,,,1480.1779782000012,179,22,female,True
607,113.0,25,M,down,0.6931396999971184,0.4517103685506697,,experiment,emotion,2.0,,,,1481.4279523000005,179,22,female,True
608,149.0,25,M,down,0.7394373999995878,0.3633436912804115,,experiment,emotion,2.0,,,,1482.744573,179,22,female,True
609,149.0,25,F,down,0.5866338999985601,1.905319597397144,,experiment,emotion,2.0,,,,1485.644443600002,179,22,female,True
610,125.0,25,M,down,0.6153870999987703,0.8618303318817016,,experiment,emotion,2.0,,,,1487.3776956000002,179,22,female,True
611,113.0,25,F,down,0.4911398000003828,1.6977138510018364,,experiment,emotion,2.0,,,,1489.960938600001,179,22,female,True
612,125.0,25,F,down,0.5939041000019643,1.906355447358948,,experiment,emotion,2.0,,,,1492.6441760000016,179,22,female,True
613,137.0,25,F,up,0.5550857999987784,0.3340713935997988,,experiment,emotion,2.0,,,,1493.8441310000017,179,22,female,True
614,113.0,25,M,down,0.5887124000000767,1.4169132044386996,,experiment,emotion,2.0,,,,1496.0773539000002,179,22,female,True
615,149.0,25,M,down,0.5517798000000766,1.974146011965745,,experiment,emotion,2.0,,,,1498.9272845999983,179,22,female,True
616,137.0,25,M,down,0.602600899997924,1.823700931793492,,experiment,emotion,2.0,,,,1501.5604988999985,179,22,female,True
617,149.0,25,F,up,0.7425165999993624,1.647716469423088,,experiment,emotion,2.0,,,,1504.093576700001,179,22,female,True
618,113.0,25,F,,,1.7175486669244533,,experiment,emotion,2.0,,,,1506.8103166,179,22,female,True
619,137.0,25,M,down,0.5979149999984656,0.7540217419697126,,experiment,emotion,2.0,,,,1510.260157699999,179,22,female,True
620,125.0,25,F,down,0.5942838000009942,0.8251052739476792,,experiment,emotion,2.0,,,,1511.9767690000008,179,22,female,True
621,125.0,25,M,down,0.383512199998222,0.6279497830725924,,experiment,emotion,2.0,,,,1513.4767012000011,179,22,female,True
622,137.0,25,M,down,0.4002054999982647,1.6355953662244074,,experiment,emotion,2.0,,,,1515.7931606999991,179,22,female,True
623,149.0,25,M,down,0.3335441999988688,0.6518293804137832,,experiment,emotion,2.0,,,,1517.1265601000014,179,22,female,True
624,125.0,25,F,up,0.7315306999989843,1.007949041316205,,experiment,emotion,2.0,,,,1518.8265116000002,179,22,female,True
625,113.0,25,F,down,0.6875917999968806,1.193783080282846,,experiment,emotion,2.0,,,,1521.0264444999991,179,22,female,True
626,113.0,25,M,down,1.956380499999796,0.778097764932626,,experiment,emotion,2.0,,,,1522.759694100001,179,22,female,True
627,125.0,25,F,down,1.1912836999981664,1.9928075092134951,,experiment,emotion,2.0,,,,1526.9927501999991,179,22,female,True
628,149.0,25,F,down,0.6703664999986358,0.5412644001591623,,experiment,emotion,2.0,,,,1528.9926632999995,179,22,female,True
629,137.0,25,M,down,1.3946482999999716,1.1458698058298291,,experiment,emotion,2.0,,,,1531.1093774,179,22,female,True
630,113.0,25,M,down,0.5137070000018866,0.3578069079968409,,experiment,emotion,2.0,,,,1533.1593017000014,179,22,female,True
631,149.0,25,F,down,0.4876666000018304,1.7422945698829748,,experiment,emotion,2.0,,,,1535.692336600001,179,22,female,True
632,137.0,25,M,down,0.6462206000032893,1.7874157594451137,,experiment,emotion,2.0,,,,1538.2257849999987,179,22,female,True
633,137.0,25,F,down,0.4750090999987151,0.8211437113903128,,experiment,emotion,2.0,,,,1539.9590323000011,179,22,female,True
634,113.0,25,F,down,0.460405300000275,1.9820372219375089,,experiment,emotion,2.0,,,,1542.6756067999995,179,22,female,True
635,125.0,25,F,down,0.5171270999999251,1.2452292750379912,,experiment,emotion,2.0,,,,1544.6588790999997,179,22,female,True
636,149.0,25,M,down,0.6072115999995731,1.8151863400464776,,experiment,emotion,2.0,,,,1547.2587983000012,179,22,female,True
637,125.0,25,M,down,0.5734527000022354,1.5673644707413368,,experiment,emotion,2.0,,,,1549.708546599999,179,22,female,True
638,125.0,25,F,down,0.7167120000012801,1.205555926587071,,experiment,emotion,2.0,,,,1551.775269400001,179,22,female,True
639,125.0,25,F,,,0.310409980417042,,experiment,emotion,2.0,,,,1553.058506100002,179,22,female,True
640,149.0,25,M,down,0.8625863999986905,1.006118495505856,,experiment,emotion,2.0,,,,1556.758394600001,179,22,female,True
641,137.0,25,M,down,0.4001706000017293,0.8659892982935053,,experiment,emotion,2.0,,,,1558.7583364999991,179,22,female,True
642,113.0,25,M,down,0.6290022000030149,0.5171152529892178,,experiment,emotion,2.0,,,,1559.9749470999996,179,22,female,True
643,113.0,25,M,down,0.8435157999992953,1.8825430533575187,,experiment,emotion,2.0,,,,1562.741503100002,179,22,female,True
644,137.0,25,M,down,0.4001852000001236,1.816497154993867,,experiment,emotion,2.0,,,,1565.6747264000005,179,22,female,True
645,149.0,25,F,down,0.2834987999995064,1.8877331954127128,,experiment,emotion,2.0,,,,1568.2412972999991,179,22,female,True
646,149.0,25,F,down,0.4168328000014298,1.6996632784722738,,experiment,emotion,2.0,,,,1570.6245573999986,179,22,female,True
647,113.0,25,M,,,1.329206301708481,,experiment,emotion,2.0,,,,1572.6411367,179,22,female,True
648,149.0,25,F,down,0.3668333999994502,0.8056046731170896,,experiment,emotion,2.0,,,,1576.1409925000007,179,22,female,True
649,125.0,25,F,down,0.5371970000014699,1.3390878892192626,,experiment,emotion,2.0,,,,1578.1907838000006,179,22,female,True
650,137.0,25,F,down,0.350184499999159,1.845191101518181,,experiment,emotion,2.0,,,,1580.8574793000007,179,22,female,True
651,125.0,25,M,down,0.5218286999988777,0.4892420670085339,,experiment,emotion,2.0,,,,1582.0241324000017,179,22,female,True
652,113.0,25,F,down,0.3667473000023165,1.9988406332391948,,experiment,emotion,2.0,,,,1584.824002100002,179,22,female,True
653,137.0,25,F,down,0.3834784999999101,0.3370703161245856,,experiment,emotion,2.0,,,,1585.840647699999,179,22,female,True
654,125.0,25,F,down,0.4002355000011448,1.9010293481592435,,experiment,emotion,2.0,,,,1588.440518800002,179,22,female,True
655,137.0,25,M,down,0.4591269999982614,0.6834252586714693,,experiment,emotion,2.0,,,,1589.8238066000013,179,22,female,True
656,113.0,25,M,down,0.216713300000265,0.7191924201428499,,experiment,emotion,2.0,,,,1591.2737487999984,179,22,female,True
657,149.0,25,F,down,0.333497299998271,1.5223194648735427,,experiment,emotion,2.0,,,,1593.5069995000013,179,22,female,True
658,137.0,25,M,down,0.2835067000014533,0.8531279452723766,,experiment,emotion,2.0,,,,1595.0402556000008,179,22,female,True
659,149.0,25,F,down,0.316870700000436,1.4964520707832631,,experiment,emotion,2.0,,,,1597.2401886000007,179,22,female,True
660,113.0,25,M,down,0.6527949000010267,1.512527826045076,,experiment,emotion,2.0,,,,1599.4400977000005,179,22,female,True
661,125.0,25,M,down,0.2001769999988027,1.074228732484686,,experiment,emotion,2.0,,,,1601.4566913999988,179,22,female,True
662,0.4853698961504132,25,up,up,0.9830935999998474,0.5370148643401762,,experiment,cRDM,3.0,,,,1645.4048365000017,179,22,female,True
663,0.4853698961504132,25,up,up,0.7322445999998308,1.4636674333719,,experiment,cRDM,3.0,,,,1648.1216120999998,179,22,female,True
664,0.4853698961504132,25,down,down,0.8892578999984835,1.1063587658454868,,experiment,cRDM,3.0,,,,1650.2215681000016,179,22,female,True
665,0.4853698961504132,25,down,up,0.6369703999989724,1.513847803954521,,experiment,cRDM,3.0,,,,1652.8879137000004,179,22,female,True
666,0.4853698961504132,25,up,down,0.5589364000006753,1.240195015756663,,experiment,cRDM,3.0,,,,1655.037992900001,179,22,female,True
667,0.4853698961504132,25,down,down,0.5269273999983852,0.3753484757728778,,experiment,cRDM,3.0,,,,1656.2379335000005,179,22,female,True
668,0.4853698961504132,25,up,up,0.6917251000013493,1.0605583860221297,,experiment,cRDM,3.0,,,,1658.0881393000018,179,22,female,True
669,0.4853698961504132,25,up,down,0.4320369999986724,1.2028840022555725,,experiment,cRDM,3.0,,,,1660.2378054,179,22,female,True
670,0.4853698961504132,25,down,up,0.4968334000004688,1.4915375945752571,,experiment,cRDM,3.0,,,,1662.4210257999985,179,22,female,True
671,0.4853698961504132,25,down,down,0.6149361000025237,1.9528740691471311,,experiment,cRDM,3.0,,,,1665.120913499999,179,22,female,True
672,0.4853698961504132,25,down,up,0.3837220999994315,0.799686094749718,,experiment,cRDM,3.0,,,,1666.8042776000002,179,22,female,True
673,0.4853698961504132,25,down,down,0.633692899999005,1.9251020998532573,,experiment,cRDM,3.0,,,,1669.4041521,179,22,female,True
674,0.4853698961504132,25,down,down,0.4851783999984036,0.6316413422295555,,experiment,cRDM,3.0,,,,1670.9207251000007,179,22,female,True
675,0.4853698961504132,25,down,down,0.5542681999977503,1.708624173783952,,experiment,cRDM,3.0,,,,1673.3705966000016,179,22,female,True
676,0.4853698961504132,25,up,down,0.451288399999612,1.1395184822012634,,experiment,cRDM,3.0,,,,1675.3205356,179,22,female,True
677,0.4853698961504132,25,up,down,0.3837980999996944,0.5594469690947894,,experiment,cRDM,3.0,,,,1676.6038541000016,179,22,female,True
678,0.4853698961504132,25,up,down,0.2671424000000115,0.5639081705358293,,experiment,cRDM,3.0,,,,1677.8538057000003,179,22,female,True
679,0.4853698961504132,25,up,down,0.2838590999999724,0.4407233303813285,,experiment,cRDM,3.0,,,,1678.9703885000015,179,22,female,True
680,0.4853698961504132,25,down,down,0.5421172999995179,1.4343102702545694,,experiment,cRDM,3.0,,,,1681.1036956999997,179,22,female,True
681,0.4853698961504132,25,up,down,0.5862234999985958,1.3040800135178068,,experiment,cRDM,3.0,,,,1683.2036020000014,179,22,female,True
682,0.4853698961504132,25,up,up,0.4286271000019042,1.625894519177691,,experiment,cRDM,3.0,,,,1685.6701482999997,179,22,female,True
683,0.4853698961504132,25,down,down,0.4333736000007775,1.0388215406099126,,experiment,cRDM,3.0,,,,1687.4034513000006,179,22,female,True
684,0.4853698961504132,25,up,up,0.3838608000005479,1.031316507536911,,experiment,cRDM,3.0,,,,1689.1200221,179,22,female,True
685,0.4853698961504132,25,down,down,0.4392527000018162,1.94823678646178,,experiment,cRDM,3.0,,,,1691.7365955999994,179,22,female,True
686,0.4853698961504132,25,down,up,0.4423906000010902,1.838585692904325,,experiment,cRDM,3.0,,,,1694.2864255999991,179,22,female,True
687,0.4853698961504132,25,up,down,0.5250493000021379,0.8866204803275883,,experiment,cRDM,3.0,,,,1695.8697495000015,179,22,female,True
688,0.4853698961504132,25,up,up,0.420596599997225,0.5178064083818504,,experiment,cRDM,3.0,,,,1697.1862494000015,179,22,female,True
689,0.4853698961504132,25,down,down,0.3337645999999949,0.3831265368273268,,experiment,cRDM,3.0,,,,1698.2530030000016,179,22,female,True
690,0.4853698961504132,25,up,up,0.3838217000011354,1.092624242293609,,experiment,cRDM,3.0,,,,1700.0196448999995,179,22,female,True
691,0.4853698961504132,25,down,down,0.2503727000002982,0.7411791453526462,,experiment,cRDM,3.0,,,,1701.4362126999986,179,22,female,True
692,0.4853698961504132,25,down,up,0.3338277000002563,1.996784240196462,,experiment,cRDM,3.0,,,,1704.1028073999987,179,22,female,True
693,0.4853698961504132,25,down,down,0.3005202999993344,1.2852207572548893,,experiment,cRDM,3.0,,,,1706.0527163000006,179,22,female,True
694,0.4853698961504132,25,up,up,0.3004868999996688,1.143950711554656,,experiment,cRDM,3.0,,,,1707.8692855000008,179,22,female,True
695,0.4853698961504132,25,up,down,0.234012500000972,1.540028973112218,,experiment,cRDM,3.0,,,,1710.0857178000006,179,22,female,True
696,0.4853698961504132,25,up,up,0.5032886000008148,0.8340046721985834,,experiment,cRDM,3.0,,,,1711.602520299999,179,22,female,True
697,0.4853698961504132,25,down,down,0.3672119000002567,1.8286401775006225,,experiment,cRDM,3.0,,,,1714.1856770000013,179,22,female,True
698,0.4853698961504132,25,down,down,0.4897893000015756,1.1654716863906411,,experiment,cRDM,3.0,,,,1716.0190105,179,22,female,True
699,0.4853698961504132,25,up,up,0.6203395999982604,0.4264632325344442,,experiment,cRDM,3.0,,,,1717.1854752,179,22,female,True
700,0.4853698961504132,25,down,down,0.4566647999999986,1.9431268448902956,,experiment,cRDM,3.0,,,,1720.0021844000005,179,22,female,True
701,0.4853698961504132,25,up,down,0.7213661999994656,1.3204953504723491,,experiment,cRDM,3.0,,,,1722.035412000001,179,22,female,True
702,0.4853698961504132,25,up,up,0.6404266999998072,1.3663512190386211,,experiment,cRDM,3.0,,,,1724.3853455999997,179,22,female,True
703,0.4853698961504132,25,up,up,0.5422383000004629,1.8246145027529368,,experiment,cRDM,3.0,,,,1727.1185528999997,179,22,female,True
704,0.4853698961504132,25,down,down,0.5049190999998245,0.9958782341011608,,experiment,cRDM,3.0,,,,1728.9019039000011,179,22,female,True
705,0.4853698961504132,25,down,down,1.245316600001388,1.1511094394067836,,experiment,cRDM,3.0,,,,1730.818457100002,179,22,female,True
706,0.4853698961504132,25,up,up,0.7364708000022802,1.9846234719209976,,experiment,cRDM,3.0,,,,1734.3182873000003,179,22,female,True
707,0.4853698961504132,25,down,down,0.4664157000006526,0.6941898463712604,,experiment,cRDM,3.0,,,,1736.0013456000015,179,22,female,True
708,0.4853698961504132,25,down,down,0.4903970999985176,0.9687877192245498,,experiment,cRDM,3.0,,,,1737.7013536000013,179,22,female,True
709,0.4853698961504132,25,up,up,0.4640051999995194,0.8732443256092572,,experiment,cRDM,3.0,,,,1739.3347699000003,179,22,female,True
710,0.4853698961504132,25,up,down,0.72204899999997,0.9673785408189816,,experiment,cRDM,3.0,,,,1741.0347029000004,179,22,female,True
711,0.4853698961504132,25,down,down,0.4927845999991405,1.4494813926091463,,experiment,cRDM,3.0,,,,1743.467953899999,179,22,female,True
712,0.4853698961504132,25,up,up,0.5671763999998802,1.9072096761117812,,experiment,cRDM,3.0,,,,1746.1345164000013,179,22,female,True
713,0.4853698961504132,25,down,down,0.8155377000002773,1.6202874529988809,,experiment,cRDM,3.0,,,,1748.5842644000004,179,22,female,True
714,0.4853698961504132,25,down,down,0.6045763999973133,0.3192135327740408,,experiment,cRDM,3.0,,,,1749.9842000999995,179,22,female,True
715,0.4853698961504132,25,down,down,0.4977801999993971,1.6050364573927915,,experiment,cRDM,3.0,,,,1752.450959400001,179,22,female,True
716,0.4853698961504132,25,up,down,0.4408294000022579,1.1807894005994577,,experiment,cRDM,3.0,,,,1754.4008934000012,179,22,female,True
717,0.4853698961504132,25,up,down,0.3671705000015208,0.3617146930714077,,experiment,cRDM,3.0,,,,1755.4674732999993,179,22,female,True
718,0.4853698961504132,25,down,down,0.489904199999728,1.945663021601329,,experiment,cRDM,3.0,,,,1758.1007494000005,179,22,female,True
719,0.4853698961504132,25,down,down,0.4460910000016156,1.2135936281436872,,experiment,cRDM,3.0,,,,1760.0506438000011,179,22,female,True
720,0.4853698961504132,25,up,up,0.5931270999972185,0.5765309816619976,,experiment,cRDM,3.0,,,,1761.350602300001,179,22,female,True
721,0.4853698961504132,25,up,down,0.7141159999991942,0.5783652217266189,,experiment,cRDM,3.0,,,,1762.800620099999,179,22,female,True
722,0.4853698961504132,25,up,up,0.588684700000158,1.8904379146983368,,experiment,cRDM,3.0,,,,1765.6670405000004,179,22,female,True
723,0.4853698961504132,25,up,up,0.7117160000016156,0.4540076580173706,,experiment,cRDM,3.0,,,,1766.9839782999989,179,22,female,True
724,0.4853698961504132,25,up,up,0.5994475000006787,1.899471596588346,,experiment,cRDM,3.0,,,,1769.8502700999998,179,22,female,True
725,0.4853698961504132,25,down,down,0.5678806000032637,1.4147962775664442,,experiment,cRDM,3.0,,,,1772.1168555000004,179,22,female,True
726,0.4853698961504132,25,down,down,0.7494045000021288,1.5314244788880396,,experiment,cRDM,3.0,,,,1774.483312700002,179,22,female,True
