,stimLvl,stimTime,rand,response,rt,precedingITI,trialNumber,trialType,stimuli,block,estIntens,estThres,estSlope,trialStart,subject,age,gender,headRest
0,150.0,100,F,,,1.915135649597945,,introTrial,emotion,,,,,228.2315626999989,211,25,male,True
1,0.9,100,down,,,0.5776939339741263,,introTrial,cRDM,,,,,232.748071,211,25,male,True
2,0.9,25,up,up,0.7081355000009353,0.951413290073038,,tutorial,cRDM,,,,,274.0797540000003,211,25,male,True
3,0.9,25,up,up,0.7753399000011996,0.4805080455058809,,tutorial,cRDM,,,,,275.54651360000025,211,25,male,True
4,0.9,25,up,up,0.6364417999993748,1.985100173301196,,tutorial,cRDM,,,,,278.59641009999905,211,25,male,True
5,0.9,25,down,down,0.9482325000008132,1.7252045068333268,,tutorial,cRDM,,,,,281.22964469999897,211,25,male,True
6,0.9,25,up,down,0.7309574999999313,0.709766407711916,,tutorial,cRDM,,,,,283.16288899999927,211,25,male,True
7,0.9,25,down,down,0.543058100000053,0.7840253886482018,,tutorial,cRDM,,,,,284.96281689999887,211,25,male,True
8,0.9,25,up,up,0.3838568999999552,0.7820112996831037,,tutorial,cRDM,,,,,286.5627576000006,211,25,male,True
9,0.9,25,down,down,0.6037560000004305,1.1934823996467163,,tutorial,cRDM,,,,,288.4460571999989,211,25,male,True
10,0.9,25,down,down,0.5975721000013436,1.0041580337161518,,tutorial,cRDM,,,,,290.32930599999963,211,25,male,True
11,0.9,25,down,down,0.4583570000013424,0.4553087022908791,,tutorial,cRDM,,,,,291.6795087999999,211,25,male,True
12,200.0,25,M,up,1.5208979999988514,1.717939479896126,,tutorial,emotion,,,,,299.5289701999991,211,25,male,True
13,200.0,25,M,up,0.8880220000010013,1.9046899902478367,,tutorial,emotion,,,,,303.22885959999985,211,25,male,True
14,200.0,25,F,up,0.7578008000000409,0.7675850478751391,,tutorial,emotion,,,,,305.1620734999997,211,25,male,True
15,0.0,25,F,down,0.6878843000013148,1.801432898040363,,tutorial,emotion,,,,,308.0119945999995,211,25,male,True
16,0.0,25,M,down,0.3668362000007619,1.74122046401332,,tutorial,emotion,,,,,310.7285463999997,211,25,male,True
17,200.0,25,F,up,0.7267157999995106,1.405545296144697,,tutorial,emotion,,,,,312.8451265999993,211,25,male,True
18,0.0,25,M,down,0.5898158999989391,1.5985855221292862,,tutorial,emotion,,,,,315.4450503999997,211,25,male,True
19,200.0,25,M,down,0.8122230999997555,0.9889697847309982,,tutorial,emotion,,,,,317.311653499999,211,25,male,True
20,0.0,25,F,down,0.5479254999991099,0.7320797355151527,,tutorial,emotion,,,,,319.14489890000004,211,25,male,True
21,0.0,25,F,down,0.5484372999999323,1.4970104817326602,,tutorial,emotion,,,,,321.4784201999992,211,25,male,True
22,0.29,25,up,up,0.61452780000036,1.1934228306804642,,psi_staircase_training,cRDM,,0.25,0.2569312402994632,0.105,334.29434480000054,211,25,male,True
23,0.25,25,up,down,0.9365522999996756,0.7425962330824596,,psi_staircase_training,cRDM,,0.2191026665318312,0.2260132002683492,0.1046863203387393,335.9442872999989,211,25,male,True
24,0.36,25,down,down,0.6597386000012193,0.6987824185714295,,psi_staircase_training,cRDM,,0.3202997408361979,0.3276103223604739,0.1107465658214764,337.86114389999966,211,25,male,True
25,0.33,25,down,down,0.569766200000231,1.6441737114657111,,psi_staircase_training,cRDM,,0.2990372097977385,0.3064139828071687,0.1117492876491608,340.4441155999993,211,25,male,True
26,0.31,25,up,up,0.4704863999995723,0.4444354431781711,,psi_staircase_training,cRDM,,0.2780189805609542,0.2853981109641391,0.1117849993448387,341.7274156000003,211,25,male,True
27,0.31,25,down,down,0.6262355999988358,1.8411656238090568,,psi_staircase_training,cRDM,,0.2582073586141265,0.2655339603556145,0.1109892529502702,344.3106702999994,211,25,male,True
28,0.29,25,up,up,0.8882690999998886,0.9011411954405426,,psi_staircase_training,cRDM,,0.2413824040928039,0.2485489846939696,0.1085651240775294,346.1106058000005,211,25,male,True
29,0.24,25,down,down,0.5490616000006412,1.2576592601929453,,psi_staircase_training,cRDM,,0.2254490558334334,0.2325152283915249,0.107044062324179,348.5438118999991,211,25,male,True
30,0.24,25,down,down,0.5616320000008272,0.3411175835153675,,psi_staircase_training,cRDM,,0.2047474993923183,0.2122731702078401,0.1140049113130558,349.7271421000005,211,25,male,True
31,0.23,25,up,up,0.7031511999994109,0.4191720052636244,,psi_staircase_training,cRDM,,0.1850396237580905,0.1928548615388246,0.1183915044816175,350.99374010000065,211,25,male,True
32,0.22,25,down,down,0.4656238999996276,1.7336182881271631,,psi_staircase_training,cRDM,,0.1668004946365475,0.1747693235574314,0.1207182265427456,353.7103096999999,211,25,male,True
33,0.19,25,down,down,0.5689229999989038,1.5130701452526356,,psi_staircase_training,cRDM,,0.1506096300720314,0.158598129293522,0.1210162080690623,355.97695249999924,211,25,male,True
34,0.16,25,down,down,0.5160727000002225,1.58713935844351,,psi_staircase_training,cRDM,,0.135507089673702,0.1434388787911001,0.120157117823674,358.4268080999991,211,25,male,True
35,0.14,25,up,down,0.4861267000014777,1.6452024295370329,,psi_staircase_training,cRDM,,0.1213518367539312,0.1291794776051846,0.118579396164529,360.8767453,211,25,male,True
36,0.22,25,up,up,0.4665543000010075,0.3876119262709931,,psi_staircase_training,cRDM,,0.1656458367987955,0.1740259527038727,0.1269487324081439,362.0433248999998,211,25,male,True
37,0.2,25,down,down,0.5562079999999696,1.9790144156497804,,psi_staircase_training,cRDM,,0.1541774145431908,0.1624864860949608,0.1258724954325137,364.7597079000007,211,25,male,True
38,0.19,25,down,down,0.5466892999993433,1.7654733431978744,,psi_staircase_training,cRDM,,0.1438925317028281,0.1520881337337472,0.1241535679138317,367.34315740000056,211,25,male,True
39,0.18,25,up,up,0.7012608999993972,1.0945354272157932,,psi_staircase_training,cRDM,,0.1349024005901203,0.1429495509621504,0.121904702846414,369.2595793,211,25,male,True
40,0.13,25,up,down,0.698860299999069,0.346488926091856,,psi_staircase_training,cRDM,,0.1268846000252863,0.1347767233595223,0.1195562286534707,370.59302489999936,211,25,male,True
41,0.19,25,up,up,0.636572299999898,1.6449626698463835,,psi_staircase_training,cRDM,,0.1528140460341809,0.159794565559447,0.1057465213274607,373.2262721999996,211,25,male,True
42,0.19,25,up,down,1.7653408000005584,1.1594026600394738,,psi_staircase_training,cRDM,,0.1465349445957989,0.1531893783823185,0.1008067124203823,375.3095233999993,211,25,male,True
43,0.22,25,down,down,0.4495559999995748,0.5874533265612144,,psi_staircase_training,cRDM,,0.1730779843987422,0.181711802543305,0.1307920178801611,377.9593427,211,25,male,True
44,0.22,25,down,up,0.6507801000007021,0.473307134631017,,psi_staircase_training,cRDM,,0.1650561034586816,0.1735496154460721,0.1286665474208217,379.1760928999993,211,25,male,True
45,0.24,25,down,down,0.4358993000005284,1.8137893980619293,,psi_staircase_training,cRDM,,0.1961920386407389,0.2055773265239453,0.1421758855789458,381.9259492000001,211,25,male,True
46,0.24,25,up,up,0.5443390999989788,0.3978646328268317,,psi_staircase_training,cRDM,,0.1870605467800701,0.1964786846085432,0.1426735229575358,383.0425622999992,211,25,male,True
47,0.24,25,up,up,0.4773709000000963,0.3749486325093046,,psi_staircase_training,cRDM,,0.1790574860135096,0.1884550632900828,0.1423620551889671,384.24251209999966,211,25,male,True
48,0.21,25,down,down,0.4400420999991183,0.9414164061212488,,psi_staircase_training,cRDM,,0.1720729420915901,0.1814104455730401,0.141452009047814,385.92580330000055,211,25,male,True
49,0.21,25,down,down,0.5591303000001062,1.7301603447906833,,psi_staircase_training,cRDM,,0.1647840154879171,0.174131535863844,0.1416037530178152,388.3757416999997,211,25,male,True
50,0.21,25,up,up,0.6095013000012841,0.9362821994355232,,psi_staircase_training,cRDM,,0.158246325471929,0.1675643883675813,0.1411575074260882,390.142323,211,25,male,True
51,0.21,25,up,up,0.6111307999999553,0.6367947222648161,,psi_staircase_training,cRDM,,0.1524077450836203,0.1616642140611084,0.1402244332391012,391.6587521999991,211,25,male,True
52,100.0,25,M,up,0.7898647000001802,0.9114581049293856,,psi_staircase_training,emotion,,100.0,100.0,25.00050000000001,405.9250646,211,25,male,True
53,55.0,25,M,down,0.654224100000647,1.6225017039574372,,psi_staircase_training,emotion,,54.7428094675419,54.7428094675419,25.00050000000011,408.691646199999,211,25,male,True
54,79.0,25,F,up,0.7466311000007408,0.376172983694385,,psi_staircase_training,emotion,,79.636070985635,79.636070985635,25.713269254886413,410.07521970000016,211,25,male,True
55,63.0,25,F,up,0.798318899998776,1.4156711334534735,,psi_staircase_training,emotion,,62.16401670338348,62.16401670338348,25.292325986283885,412.5914945000004,211,25,male,True
56,46.0,25,M,down,0.921440199999779,1.6827924610703504,,psi_staircase_training,emotion,,49.95706999829706,49.95706999829706,27.05499044974309,415.44139929999983,211,25,male,True
57,51.0,25,F,down,0.6878940000005969,0.5935863617964884,,psi_staircase_training,emotion,,58.26662899858864,58.26662899858864,23.997705832462845,417.30798180000056,211,25,male,True
58,67.0,25,M,down,0.5961913999999524,0.5190467832515607,,psi_staircase_training,emotion,,63.29425671754329,63.29425671754329,21.21474996822986,418.8746018999991,211,25,male,True
59,83.0,25,F,down,1.2543779999996332,0.9043569946082416,,psi_staircase_training,emotion,,71.29232787585137,71.29232787585137,26.36044441486173,420.72452650000014,211,25,male,True
60,98.0,25,F,up,0.8767119999993156,1.0100811729621073,,psi_staircase_training,emotion,,80.78650885710547,80.78650885710547,31.92472786580248,423.3411016999999,211,25,male,True
61,95.0,25,M,up,0.7574638000005507,1.7716468316027607,,psi_staircase_training,emotion,,76.63859547651717,76.63859547651717,30.19425812854417,426.32433259999925,211,25,male,True
62,93.0,25,F,up,0.5699194000007992,1.3095049967685433,,psi_staircase_training,emotion,,73.5983608381915,73.5983608381915,28.64575875724076,428.74091249999947,211,25,male,True
63,52.0,25,F,down,0.6946788999994169,0.8401514365355665,,psi_staircase_training,emotion,,71.29372358681222,71.29372358681222,27.259002476820584,430.5241659000003,211,25,male,True
64,92.0,25,F,up,0.7014687000009872,1.738174078084005,,psi_staircase_training,emotion,,73.41531210335218,73.41531210335218,25.68571554258429,433.30740969999897,211,25,male,True
65,53.0,25,M,up,0.6305585999998584,1.0063270916740787,,psi_staircase_training,emotion,,71.69240124628455,71.69240124628455,24.268687976016423,435.37428809999983,211,25,male,True
66,43.0,25,M,up,0.7372670000004291,1.7185559368609633,,psi_staircase_training,emotion,,65.88044851295274,65.88044851295274,29.842684770723828,438.0905616999989,211,25,male,True
67,35.0,25,F,down,0.8447166000005382,0.6060026529311908,,psi_staircase_training,emotion,,59.76831154579458,59.76831154579458,34.47429823422692,439.8071670999998,211,25,male,True
68,36.0,25,F,down,0.6741504000001441,1.518960060190481,,psi_staircase_training,emotion,,61.71307422754052,61.71307422754052,33.42977296445375,442.5237314999995,211,25,male,True
69,37.0,25,M,down,0.6779437999994116,1.5083487783490843,,psi_staircase_training,emotion,,63.33583469131303,63.33583469131303,32.437777741383364,445.0568853999994,211,25,male,True
70,90.0,25,M,up,0.5629814000003535,0.6238038545489142,,psi_staircase_training,emotion,,64.70564083088342,64.70564083088342,31.497764865146607,446.7069090999994,211,25,male,True
71,37.0,25,M,down,0.7129705999996077,0.5006451188987147,,psi_staircase_training,emotion,,63.403502080449,63.403502080449,30.538317714821808,448.1068572999993,211,25,male,True
72,90.0,25,M,up,0.8690171999987797,0.4459512045375617,,psi_staircase_training,emotion,,64.52733770410534,64.52733770410534,29.57949765350992,449.6068027999991,211,25,male,True
73,37.0,25,F,down,0.942512399999032,1.900685188980264,,psi_staircase_training,emotion,,63.45026919925218,63.45026919925218,28.611501593669743,452.7233581,211,25,male,True
74,89.0,25,F,up,0.8847784999998112,1.252090704460837,,psi_staircase_training,emotion,,64.37183175080702,64.37183175080702,27.669061137451205,455.2731007999992,211,25,male,True
75,38.0,25,F,up,0.8030605999992986,1.7789014999988395,,psi_staircase_training,emotion,,63.44331772510536,63.44331772510536,26.71881163956504,458.2898098000005,211,25,male,True
76,31.0,25,M,up,0.7138985000001412,0.5049208357215311,,psi_staircase_training,emotion,,59.70378614684212,59.70378614684212,31.012620668842537,459.97294130000046,211,25,male,True
77,25.0,25,M,down,0.8272242000002734,1.6721098891328443,,psi_staircase_training,emotion,,55.78942579149791,55.78942579149791,34.79373860796555,462.7396561000005,211,25,male,True
78,26.0,25,F,up,0.8206086000009236,1.1748572518342593,,psi_staircase_training,emotion,,56.760393073032105,56.760393073032105,34.07032475388034,465.10623900000064,211,25,male,True
79,22.0,25,F,down,0.6454051000000618,1.661257375716542,,psi_staircase_training,emotion,,53.02551426334057,53.02551426334057,37.07411981843752,467.9394756999991,211,25,male,True
80,22.0,25,M,down,0.6095112999992125,0.906393793574084,,psi_staircase_training,emotion,,54.00275158447153,54.00275158447153,36.48405147312269,469.8393691999991,211,25,male,True
81,86.0,25,M,up,0.5461977000013576,1.8597652759382148,,psi_staircase_training,emotion,,54.87346926229312,54.87346926229312,35.90770298100381,472.6726214999999,211,25,male,True
82,0.29,25,up,up,0.6620394000001397,0.3530049868695357,,psi_staircase,cRDM,,0.25,0.2569312402994632,0.105,486.0387993000004,211,25,male,True
83,0.25,25,up,up,0.6284119000010833,0.5475178877173505,,psi_staircase,cRDM,,0.2191026665318312,0.2260132002683492,0.1046863203387393,487.5054115999992,211,25,male,True
84,0.21,25,down,down,0.6742202999994333,1.9373077903760323,,psi_staircase,cRDM,,0.1900540959403307,0.1968497961554001,0.1029467298424999,490.3386525999995,211,25,male,True
85,0.18,25,down,down,0.6165502000003471,0.3776982393541484,,psi_staircase,cRDM,,0.1635257589279754,0.1701521334256793,0.1003816477568649,491.6552462,211,25,male,True
86,0.15,25,up,up,0.5860398999993777,1.099746181845611,,psi_staircase,cRDM,,0.1401895574244936,0.1466013351187503,0.0971307628663642,493.6218262999992,211,25,male,True
87,0.13,25,down,down,0.5154775999999401,1.823996160264098,,psi_staircase,cRDM,,0.1198760602145479,0.1260554767618333,0.0936107694196103,496.2884336999996,211,25,male,True
88,0.11,25,up,up,0.6605166999997891,1.1210812392294534,,psi_staircase,cRDM,,0.1025773523696548,0.1084910344569865,0.0895852101993795,498.1883791,211,25,male,True
89,0.09,25,down,down,0.3672060999997484,1.4026716788444655,,psi_staircase,cRDM,,0.087844325958594,0.0934818215320969,0.0854013148647635,500.5049330999991,211,25,male,True
90,0.08,25,down,up,0.3172751999991305,0.8733006596243809,,psi_staircase,cRDM,,0.0751852092118086,0.0805556301471181,0.0813554535472043,502.05477359999895,211,25,male,True
91,0.13,25,up,up,0.7477512000004936,1.50081868006301,,psi_staircase,cRDM,,0.1145374077699418,0.1210371210567565,0.0984628819128368,504.2381261999999,211,25,male,True
92,0.13,25,down,down,0.4767843999998149,1.6837113020986187,,psi_staircase,cRDM,,0.1023941484636293,0.108577482786431,0.0936701190325844,506.9380134999992,211,25,male,True
93,0.12,25,down,down,0.6045191000011982,1.2948349772557302,,psi_staircase,cRDM,,0.093157405715179,0.098965388034743,0.0879839851464166,508.9713093999999,211,25,male,True
94,0.11,25,down,down,1.2327999000008276,1.9149615401295732,,psi_staircase,cRDM,,0.0859226620933624,0.0913701323342403,0.0825226583669993,511.7550647999997,211,25,male,True
95,0.1,25,up,up,0.735072699999364,1.0924184228696534,,psi_staircase,cRDM,,0.0799399398670652,0.0850863037356118,0.0779612569830018,514.3377617999995,211,25,male,True
96,0.07,25,up,down,0.5505214000004344,1.9664146498810533,,psi_staircase,cRDM,,0.07451104613556,0.0794623136190137,0.0750057801058921,517.3043189,211,25,male,True
97,0.11,25,down,down,0.6268728999984887,0.954437628879925,,psi_staircase,cRDM,,0.0896428834226063,0.0937565772721719,0.0623175413840191,519.0709492999995,211,25,male,True
98,0.11,25,down,down,0.5468516000000818,1.2027237954644985,,psi_staircase,cRDM,,0.0859119927864195,0.0896752369977975,0.057008648542352,521.1540518999991,211,25,male,True
99,0.1,25,up,up,0.4280483000002277,0.6605115915818685,,psi_staircase,cRDM,,0.0833352303876474,0.0867599212806624,0.0518799707167014,522.6207899000001,211,25,male,True
100,0.1,25,up,up,0.6943933000002289,0.35640309277705,,psi_staircase,cRDM,,0.0807852424824082,0.084005249156358,0.0487792496230305,523.6874372000002,211,25,male,True
101,0.09,25,up,up,0.6020864000001893,0.6082335066456679,,psi_staircase,cRDM,,0.0788986150209506,0.0819057290999718,0.0455541814531625,525.2540207999991,211,25,male,True
102,0.09,25,up,up,0.6002895000001445,1.1088005835151618,,psi_staircase,cRDM,,0.0763222752704727,0.079307518874592,0.0452228699179277,527.2206079999996,211,25,male,True
103,0.09,25,down,down,0.5022710000012012,0.6335848753598825,,psi_staircase,cRDM,,0.0741563580751663,0.0770852082337602,0.0443685766710726,528.7205560999992,211,25,male,True
104,0.08,25,down,down,0.6246460000002116,1.7977370681027585,,psi_staircase,cRDM,,0.0723779621293843,0.0752231807218678,0.0431016584771849,531.2872066999989,211,25,male,True
105,0.07,25,down,down,0.6741936999987956,0.9813018633803644,,psi_staircase,cRDM,,0.0693790003432613,0.0723750282307711,0.0453862389120877,533.1707114000001,211,25,male,True
106,0.06,25,up,up,0.7495288999998593,1.9108894591012315,,psi_staircase,cRDM,,0.0650858019919721,0.0684910102817523,0.0515848325810609,536.0203053999994,211,25,male,True
107,0.06,25,up,up,0.647897800001374,0.8062086290029813,,psi_staircase,cRDM,,0.0597536244995402,0.0637529141165627,0.0605844541012201,537.8368955000005,211,25,male,True
108,0.06,25,down,down,0.5997480999994877,0.7633708501739567,,psi_staircase,cRDM,,0.0540389335893365,0.0585960769622725,0.0690352712479668,539.5201682999996,211,25,male,True
109,0.06,25,down,down,0.890086400000655,0.6634804728656062,,psi_staircase,cRDM,,0.0483451557638891,0.0533654614655764,0.0760516265347178,541.0367872999996,211,25,male,True
110,0.05,25,up,down,0.5945171000003029,1.312376558060064,,psi_staircase,cRDM,,0.0430458583539386,0.04839330345641,0.0810073971613672,543.5033449000002,211,25,male,True
111,0.06,25,up,down,0.9215170000006764,1.23177283074614,,psi_staircase,cRDM,,0.0562709115492016,0.060921033176378,0.0704437805873402,545.6033000999996,211,25,male,True
112,0.08,25,down,down,1.027242699999988,0.4480906250905048,,psi_staircase,cRDM,,0.0665612815348517,0.0701170557739258,0.0538657266191866,547.2365625999992,211,25,male,True
113,0.08,25,up,down,0.5440526000002137,0.6026982483782983,,psi_staircase,cRDM,,0.0643331406571527,0.0679146216125039,0.0542551526226835,549.1198112999991,211,25,male,True
114,0.11,25,down,down,0.8514442000014242,1.0609951360433143,,psi_staircase,cRDM,,0.0714942359657607,0.0751529559618755,0.0554252317037404,550.986422,211,25,male,True
115,0.11,25,up,up,0.59289119999994,0.9499925921405928,,psi_staircase,cRDM,,0.0715656352407462,0.0748837133532921,0.0502649146133767,553.0529375999995,211,25,male,True
116,0.09,25,down,down,0.6386281000013696,1.3838541290802755,,psi_staircase,cRDM,,0.0718202016922563,0.074829383505454,0.0455855051526966,555.2862600999997,211,25,male,True
117,0.09,25,up,up,0.8246935000006488,1.5534711885182115,,psi_staircase,cRDM,,0.0709148821756656,0.0737966542505169,0.0436554000130135,557.7361467999999,211,25,male,True
118,0.08,25,down,down,0.5811567999990075,1.2755446729868074,,psi_staircase,cRDM,,0.0702392820755963,0.0729842261832768,0.0415826199718941,560.1027537999998,211,25,male,True
119,0.07,25,up,up,0.5464741999985563,0.5221609656335252,,psi_staircase,cRDM,,0.0683005551024014,0.0711389292949011,0.0429979740040972,561.4693666999992,211,25,male,True
120,0.06,25,up,down,0.5855279999996128,0.9864233982194772,,psi_staircase,cRDM,,0.0649626628695668,0.0681864821792218,0.0488370064936267,563.2693242000005,211,25,male,True
121,0.08,25,down,up,0.4002352000006794,0.8758942608725957,,psi_staircase,cRDM,,0.0720260601682799,0.0742328232289383,0.0334298208340977,564.9859084,211,25,male,True
122,0.09,25,down,down,0.6653530000003229,0.831210615967769,,psi_staircase,cRDM,,0.0768474110313236,0.0789444982929336,0.0317683636630094,566.5025000999995,211,25,male,True
123,0.09,25,down,down,0.7180726999995386,1.403113889952879,,psi_staircase,cRDM,,0.0762023330778179,0.0781934063642357,0.0301623787433919,568.8357357999994,211,25,male,True
124,0.09,25,up,up,0.5128457999999227,0.9134784919740442,,psi_staircase,cRDM,,0.0757002280894964,0.0775856993495246,0.0285626343553969,570.7190191999998,211,25,male,True
125,0.09,25,up,up,0.5422063999994862,0.5303708209440788,,psi_staircase,cRDM,,0.0753165867142569,0.0770991979314841,0.0270044277390513,572.0356221000002,211,25,male,True
126,0.08,25,down,up,0.5673915999996098,1.793738479135564,,psi_staircase,cRDM,,0.075029150220705,0.0767133158825897,0.0255130953274824,574.6355203000003,211,25,male,True
127,0.09,25,down,down,0.6900583999995433,1.693080949021642,,psi_staircase,cRDM,,0.0784165974478457,0.0799580501540681,0.0233511647498188,577.168795399999,211,25,male,True
128,0.09,25,down,down,0.6584573000000091,1.264245566551438,,psi_staircase,cRDM,,0.0780281188798551,0.0794962685388719,0.0222407112632795,579.3853634999996,211,25,male,True
129,0.09,25,up,up,0.5040030000000115,0.641298070650173,,psi_staircase,cRDM,,0.0777197537742447,0.0791179402608555,0.0211808528850892,580.9518472,211,25,male,True
130,0.09,25,up,up,0.5629734000012832,1.188203035282139,,psi_staircase,cRDM,,0.0774778089020759,0.0788100831623051,0.0201823614937862,582.9018976999996,211,25,male,True
131,0.09,25,up,up,0.5033435000004829,0.7381555175481332,,psi_staircase,cRDM,,0.0772899245845004,0.0785607588230884,0.0192516186550432,584.4685076999995,211,25,male,True
132,100.0,25,M,up,0.902909099999306,1.3018534167993585,,psi_staircase,emotion,,100.0,100.0,25.00050000000001,591.2349204000002,211,25,male,True
133,55.0,25,M,down,0.6143053999985568,0.7177616530727805,,psi_staircase,emotion,,54.7428094675419,54.7428094675419,25.00050000000011,593.2015375999999,211,25,male,True
134,79.0,25,F,up,0.7987929000009899,1.857432194353421,,psi_staircase,emotion,,79.636070985635,79.636070985635,25.713269254886413,596.0180737999999,211,25,male,True
135,63.0,25,F,up,0.982265599999664,0.5765151724798079,,psi_staircase,emotion,,62.16401670338348,62.16401670338348,25.292325986283885,597.7347119999995,211,25,male,True
136,46.0,25,M,down,0.874236399999063,0.548148838037848,,psi_staircase,emotion,,49.95706999829706,49.95706999829706,27.05499044974309,599.6346257000005,211,25,male,True
137,51.0,25,F,up,1.079291199999716,1.5808549405164989,,psi_staircase,emotion,,58.26662899858864,58.26662899858864,23.997705832462845,602.4345503000004,211,25,male,True
138,36.0,25,M,down,0.5957873999996082,1.24130657314515,,psi_staircase,emotion,,48.45406469212927,48.45406469212927,29.429280106919936,605.1010846999998,211,25,male,True
139,38.0,25,F,down,1.2384579999998095,1.391471156420937,,psi_staircase,emotion,,53.27788207757897,53.27788207757897,27.18830157749732,607.4343353000004,211,25,male,True
140,69.0,25,F,down,0.9682566000010412,1.7807620710185674,,psi_staircase,emotion,,56.61448539950966,56.61448539950966,25.170909835576165,610.8175572,211,25,male,True
141,82.0,25,M,down,0.9176907000000938,0.4921057354881063,,psi_staircase,emotion,,64.40506866454986,64.40506866454986,30.51236194361615,612.6341460999993,211,25,male,True
142,93.0,25,F,up,0.5527887999996892,0.5198573453840889,,psi_staircase,emotion,,72.68267003619403,72.68267003619403,34.7106485401392,614.4340749000003,211,25,male,True
143,91.0,25,F,up,0.4424780999997892,0.343790901840252,,psi_staircase,emotion,,69.41373210258779,69.41373210258779,33.51017088061924,615.6673781999998,211,25,male,True
144,89.0,25,F,up,1.0161738000006153,0.4444110223495165,,psi_staircase,emotion,,66.82039240659736,66.82039240659736,32.397683330915875,616.9006719999998,211,25,male,True
145,42.0,25,M,down,0.7678980000000593,1.1287859967204257,,psi_staircase,emotion,,64.68693660309701,64.68693660309701,31.36633787088545,619.3839245999989,211,25,male,True
146,90.0,25,M,up,0.9250530999997864,1.6785531715934086,,psi_staircase,emotion,,66.64445722632536,66.64445722632536,30.19444134618392,622.1838198000005,211,25,male,True
147,42.0,25,F,down,0.922087000000829,1.5542940175834044,,psi_staircase,emotion,,65.03543827995712,65.03543827995712,29.099649783523628,624.9836974999998,211,25,male,True
148,90.0,25,F,up,0.8758820000002743,1.7209122033792603,,psi_staircase,emotion,,66.56732337684198,66.56732337684198,27.906225751245938,627.9669457,211,25,male,True
149,43.0,25,M,,,0.4344366767934189,,psi_staircase,emotion,,65.30482999981129,65.30482999981129,26.80269628764613,629.6335146000001,211,25,male,True
150,43.0,25,F,down,1.44306399999914,0.4344366767934189,,psi_staircase,emotion,,65.30482999981129,65.30482999981129,26.80269628764613,632.7498832000001,211,25,male,True
151,89.0,25,M,up,0.7246156000001065,1.3104226486203343,,psi_staircase,emotion,,66.55349618068882,66.55349618068882,25.6331997273438,635.8502258999997,211,25,male,True
152,44.0,25,M,down,0.8073217000001023,1.8424466712588032,,psi_staircase,emotion,,65.51453829253873,65.51453829253873,24.56440846772302,638.7665281999998,211,25,male,True
153,87.0,25,M,up,0.5614765999998781,1.7366247016828358,,psi_staircase,emotion,,66.54172845852055,66.54172845852055,23.464702562636997,641.6663912000004,211,25,male,True
154,46.0,25,F,down,0.9559461999997438,0.9711099301610044,,psi_staircase,emotion,,65.63255040041632,65.63255040041632,22.46404232903606,643.5499242999995,211,25,male,True
155,85.0,25,F,up,0.6243068000003404,1.7531350169320223,,psi_staircase,emotion,,66.53112068960071,66.53112068960071,21.45653594556027,646.5995698999996,211,25,male,True
156,48.0,25,F,up,0.7259855000011157,0.3975127791992323,,psi_staircase,emotion,,65.71477420799856,65.71477420799856,20.550472879504383,647.9828610000004,211,25,male,True
157,38.0,25,M,up,0.6797468000004301,1.3595756358880708,,psi_staircase,emotion,,62.35471285681538,62.35471285681538,24.28493634540084,650.4160888999995,211,25,male,True
158,31.0,25,M,down,0.6246035999993182,1.7004082847153987,,psi_staircase,emotion,,58.75414709759925,58.75414709759925,29.08996285862847,653.1492703999993,211,25,male,True
159,32.0,25,F,down,0.7692059999990306,0.8662017194414537,,psi_staircase,emotion,,59.567789397779045,59.567789397779045,28.16603372564113,654.9826066000005,211,25,male,True
160,86.0,25,F,up,0.5767818000003899,0.445606523909294,,psi_staircase,emotion,,60.27398045507461,60.27398045507461,27.3025850103824,656.5490351999997,211,25,male,True
161,33.0,25,M,down,0.7560788999999204,1.582825653507317,,psi_staircase,emotion,,59.59083485195848,59.59083485195848,26.47848265231855,659.0657749999991,211,25,male,True
162,85.0,25,M,up,1.3590956000007282,0.6961783314294581,,psi_staircase,emotion,,60.206779314596886,60.206779314596886,25.66344205323674,660.8657105999991,211,25,male,True
163,34.0,25,F,down,0.8169479999996838,1.856992428524692,,psi_staircase,emotion,,59.59528704225298,59.59528704225298,24.88519878227535,664.4489192000001,211,25,male,True
164,83.0,25,M,up,0.7026857000000746,1.1599658449777115,,psi_staircase,emotion,,60.13591537879411,60.13591537879411,24.13387538268605,666.7821729000007,211,25,male,True
165,35.0,25,F,down,0.7691935000002559,1.217971746358442,,psi_staircase,emotion,,59.555319210883816,59.555319210883816,23.405333361326708,669.0486292999994,211,25,male,True
166,81.0,25,M,up,0.6133526000012353,1.9864181118606417,,psi_staircase,emotion,,60.03437651953143,60.03437651953143,22.724845989885708,672.148513099999,211,25,male,True
167,80.0,25,F,up,0.4882457000003342,0.5971387386439839,,psi_staircase,emotion,,59.47445712372877,59.47445712372877,22.05291848411209,673.6985724999995,211,25,male,True
168,37.0,25,M,down,0.653974200000448,0.6463938056302002,,psi_staircase,emotion,,58.957550074073886,58.957550074073886,21.43102302616548,675.1818698000006,211,25,male,True
169,78.0,25,F,up,0.9058646000012232,1.7845695453467676,,psi_staircase,emotion,,59.40874830039834,59.40874830039834,20.827020478185837,677.9649735999992,211,25,male,True
170,77.0,25,M,down,0.6527863999999681,0.488841478725769,,psi_staircase,emotion,,58.894083599866825,58.894083599866825,20.25836811194548,679.7150048999993,211,25,male,True
171,38.0,25,M,down,0.8648905999998533,0.4580978766987458,,psi_staircase,emotion,,60.97963085693828,60.97963085693828,22.52707339835625,681.1649596999996,211,25,male,True
172,39.0,25,F,up,0.583729800000583,1.4167658684503273,,psi_staircase,emotion,,61.41007689816865,61.41007689816865,21.945581354706576,683.7981820000005,211,25,male,True
173,32.0,25,F,down,1.0290520999988075,1.3733603547644124,,psi_staircase,emotion,,59.29316215384544,59.29316215384544,24.775578028411694,686.1147820000006,211,25,male,True
174,85.0,25,F,up,0.6217988999997033,1.1562199231393258,,psi_staircase,emotion,,59.66096477818129,59.66096477818129,24.20081017675536,688.6480226999993,211,25,male,True
175,33.0,25,M,down,0.8355572000000393,1.1240914029629654,,psi_staircase,emotion,,59.2821887763989,59.2821887763989,23.64889029102009,690.7312715999997,211,25,male,True
176,84.0,25,M,up,1.242015600000741,1.3191215504150635,,psi_staircase,emotion,,59.62154521429511,59.62154521429511,23.128863038236947,693.2478525000006,211,25,male,True
177,35.0,25,F,down,0.6608433000001241,1.8997781641674127,,psi_staircase,emotion,,59.26484273371401,59.26484273371401,22.62761526456855,696.7310302000005,211,25,male,True
178,83.0,25,F,up,0.6385327000007237,0.7822599839167277,,psi_staircase,emotion,,59.5991362000187,59.5991362000187,22.152513739435367,698.5143005999998,211,25,male,True
179,82.0,25,F,up,0.8195819000011397,0.7539007564539768,,psi_staircase,emotion,,59.25987124847142,59.25987124847142,21.69867884295272,700.2642655999989,211,25,male,True
180,36.0,25,M,down,0.7305640000013227,0.6832716168914228,,psi_staircase,emotion,,58.935102230974536,58.935102230974536,21.27494713580738,702.1142213000003,211,25,male,True
181,80.0,25,M,up,0.8580216999998811,0.3561358774378734,,psi_staircase,emotion,,59.24957779576256,59.24957779576256,20.861844658791,703.5308055000005,211,25,male,True
182,38.0,25,M,down,0.7294898999989528,1.5677902899965754,,psi_staircase,emotion,,58.91524621432894,58.91524621432894,20.47249971817859,706.2973698000005,211,25,male,True
183,0.0771451617883469,25,down,up,0.6305019999999786,0.432297712243908,,experiment,cRDM,0.0,,,,714.7803738999992,211,25,male,True
184,0.0771451617883469,25,down,down,0.9421344000002136,0.8325469629091156,,experiment,cRDM,0.0,,,,716.513655499999,211,25,male,True
185,0.0771451617883469,25,down,up,0.7078867000000173,1.219142043379984,,experiment,cRDM,0.0,,,,718.9469219999992,211,25,male,True
186,0.0771451617883469,25,up,up,0.6373659000000771,1.03820261740946,,experiment,cRDM,0.0,,,,720.9635242000004,211,25,male,True
187,0.0771451617883469,25,up,up,0.6570948999997199,1.0341217696636098,,experiment,cRDM,0.0,,,,722.8967646000001,211,25,male,True
188,0.0771451617883469,25,up,down,2.121829000001526,0.5599080825035923,,experiment,cRDM,0.0,,,,724.3800362000002,211,25,male,True
189,0.0771451617883469,25,up,up,0.4686488000006648,1.464238994256803,,experiment,cRDM,0.0,,,,728.2132521000003,211,25,male,True
190,0.0771451617883469,25,up,up,0.711397200000647,1.4465990133925402,,experiment,cRDM,0.0,,,,730.3964655999989,211,25,male,True
191,0.0771451617883469,25,down,down,0.6364625000005617,1.3342318401249906,,experiment,cRDM,0.0,,,,732.6963914999997,211,25,male,True
192,0.0771451617883469,25,down,down,0.6082428999998228,1.5897769494023164,,experiment,cRDM,0.0,,,,735.1796350999994,211,25,male,True
193,0.0771451617883469,25,up,up,0.5715895000012097,0.5380182378286975,,experiment,cRDM,0.0,,,,736.5962688999989,211,25,male,True
194,0.0771451617883469,25,down,down,0.6304263000001811,1.8982015367880605,,experiment,cRDM,0.0,,,,739.3294786000006,211,25,male,True
195,0.0771451617883469,25,down,down,0.5661532000012812,0.4372393514538063,,experiment,cRDM,0.0,,,,740.6627602999997,211,25,male,True
196,0.0771451617883469,25,up,up,0.4989249999998719,0.3621624682511186,,experiment,cRDM,0.0,,,,741.845937099999,211,25,male,True
197,0.0771451617883469,25,down,down,0.612824300000284,0.4882736029580106,,experiment,cRDM,0.0,,,,743.0960403999998,211,25,male,True
198,0.0771451617883469,25,down,up,0.6645726999995532,1.6402816792033226,,experiment,cRDM,0.0,,,,745.6292357999992,211,25,male,True
199,0.0771451617883469,25,up,down,0.4836893000010605,1.0617614369770163,,experiment,cRDM,0.0,,,,747.6292013000002,211,25,male,True
200,0.0771451617883469,25,up,up,1.0137118000002374,1.5161335447729605,,experiment,cRDM,0.0,,,,749.8791142999999,211,25,male,True
201,0.0771451617883469,25,down,down,0.7424928000000364,1.7136069794613455,,experiment,cRDM,0.0,,,,752.8623606000001,211,25,male,True
202,0.0771451617883469,25,up,up,0.5640604999989591,1.072294417998604,,experiment,cRDM,0.0,,,,754.9458450999991,211,25,male,True
203,0.0771451617883469,25,down,down,0.6390109999993001,0.5474584678533743,,experiment,cRDM,0.0,,,,756.3288541000002,211,25,male,True
204,0.0771451617883469,25,down,up,0.6580175999988569,0.9370802976099416,,experiment,cRDM,0.0,,,,758.1788068999995,211,25,male,True
205,0.0771451617883469,25,up,up,0.699471199999607,0.6855863620787287,,experiment,cRDM,0.0,,,,759.7953923999994,211,25,male,True
206,0.0771451617883469,25,down,down,0.5751751000007062,1.0824207763711906,,experiment,cRDM,0.0,,,,761.8286523000006,211,25,male,True
207,0.0771451617883469,25,up,up,0.6539296999999351,1.6524039173620773,,experiment,cRDM,0.0,,,,764.3119251999997,211,25,male,True
208,0.0771451617883469,25,up,down,0.6487399000016012,1.5609457544739231,,experiment,cRDM,0.0,,,,766.7951403000006,211,25,male,True
209,0.0771451617883469,25,down,down,0.8184400000009191,1.6057582560353856,,experiment,cRDM,0.0,,,,769.3283788999997,211,25,male,True
210,0.0771451617883469,25,up,up,0.5952462000004743,0.4573512903093183,,experiment,cRDM,0.0,,,,770.8616124,211,25,male,True
211,0.0771451617883469,25,down,down,0.6012558999991597,0.7793673811952444,,experiment,cRDM,0.0,,,,772.5116079,211,25,male,True
212,0.0771451617883469,25,up,up,0.5209472999995342,0.9209668505141272,,experiment,cRDM,0.0,,,,774.2948620999996,211,25,male,True
213,0.0771451617883469,25,up,up,0.787119900000107,1.7759624178987534,,experiment,cRDM,0.0,,,,776.8447412999994,211,25,male,True
214,0.0771451617883469,25,down,down,0.4005945999997493,1.5455024973693885,,experiment,cRDM,0.0,,,,779.4446090000001,211,25,male,True
215,0.0771451617883469,25,down,up,0.3671820999988995,1.4554748386301193,,experiment,cRDM,0.0,,,,781.577935199999,211,25,male,True
216,0.0771451617883469,25,down,up,0.5933664000003773,0.3883501875883757,,experiment,cRDM,0.0,,,,782.6444477999994,211,25,male,True
217,0.0771451617883469,25,down,down,0.919437000000471,0.8408130535898841,,experiment,cRDM,0.0,,,,784.3444246999989,211,25,male,True
218,0.0771451617883469,25,up,up,0.6389250000011089,1.9177014159533388,,experiment,cRDM,0.0,,,,787.4279707000005,211,25,male,True
219,0.0771451617883469,25,up,up,1.1431823000002623,0.7446906664896104,,experiment,cRDM,0.0,,,,789.0776593999999,211,25,male,True
220,0.0771451617883469,25,up,,,0.8413631384494562,,experiment,cRDM,0.0,,,,791.3273805999997,211,25,male,True
221,0.0771451617883469,25,down,down,1.472028000000137,0.3484673315916812,,experiment,cRDM,0.0,,,,794.3608148999992,211,25,male,True
222,0.0771451617883469,25,up,down,1.3490793999990274,0.474580734864373,,experiment,cRDM,0.0,,,,796.5607457000006,211,25,male,True
223,0.0771451617883469,25,down,down,0.7321934000010515,1.5715126377201036,,experiment,cRDM,0.0,,,,799.7606519000001,211,25,male,True
224,0.0771451617883469,25,down,up,0.6038060999999288,1.3695229705035628,,experiment,cRDM,0.0,,,,802.1270167999992,211,25,male,True
225,0.0771451617883469,25,up,up,0.6694360999990749,1.7205136113265134,,experiment,cRDM,0.0,,,,804.7104012999989,211,25,male,True
226,0.0771451617883469,25,down,down,0.6141392999998061,1.890652242222815,,experiment,cRDM,0.0,,,,807.5436914999991,211,25,male,True
227,0.0771451617883469,25,up,up,0.4168198000006669,1.363451671068697,,experiment,cRDM,0.0,,,,809.7768992000001,211,25,male,True
228,0.0771451617883469,25,up,up,0.648358599999483,0.5526513098413739,,experiment,cRDM,0.0,,,,810.9935129999994,211,25,male,True
229,0.0771451617883469,25,up,up,0.5517428000002838,1.6491644241957908,,experiment,cRDM,0.0,,,,813.5600883000006,211,25,male,True
230,0.0771451617883469,25,up,up,0.6448040999985096,1.1324441695420278,,experiment,cRDM,0.0,,,,815.5100134999993,211,25,male,True
231,0.0771451617883469,25,down,down,0.6062944999994215,1.9637825091143304,,experiment,cRDM,0.0,,,,818.376575799999,211,25,male,True
232,0.0771451617883469,25,down,up,1.2166836000014882,1.4595014355261382,,experiment,cRDM,0.0,,,,820.6931624999997,211,25,male,True
233,0.0771451617883469,25,down,down,0.6150918999992427,1.9967602677513752,,experiment,cRDM,0.0,,,,824.1597284999989,211,25,male,True
234,0.0771451617883469,25,down,down,0.8548791999983223,1.6541528848478224,,experiment,cRDM,0.0,,,,826.6929500999995,211,25,male,True
235,0.0771451617883469,25,up,up,0.598659499999485,1.8177053234846068,,experiment,cRDM,0.0,,,,829.6261787000003,211,25,male,True
236,0.0771451617883469,25,up,up,0.5994675000001735,1.8101565107947069,,experiment,cRDM,0.0,,,,832.3093936999994,211,25,male,True
237,0.0771451617883469,25,up,up,0.671776500001215,1.293539147361063,,experiment,cRDM,0.0,,,,834.4760077999999,211,25,male,True
238,0.0771451617883469,25,up,up,0.6445490999994945,0.8515032241857337,,experiment,cRDM,0.0,,,,836.2592943999989,211,25,male,True
239,0.0771451617883469,25,down,up,0.8886232000004384,0.3270712561052078,,experiment,cRDM,0.0,,,,837.5092002000001,211,25,male,True
240,0.0771451617883469,25,down,up,0.6093591000008018,1.0416269761814372,,experiment,cRDM,0.0,,,,839.6924600999992,211,25,male,True
241,0.0771451617883469,25,down,down,0.6563936999991711,0.4417713519534325,,experiment,cRDM,0.0,,,,840.9924327999997,211,25,male,True
242,0.0771451617883469,25,up,up,0.6548274999986461,1.482467004905416,,experiment,cRDM,0.0,,,,843.4089858999996,211,25,male,True
243,0.0771451617883469,25,up,,,0.5608746787215764,,experiment,cRDM,0.0,,,,844.8922846000005,211,25,male,True
244,0.0771451617883469,25,down,down,0.7066828000006353,1.410740181045231,,experiment,cRDM,0.0,,,,848.9921293999996,211,25,male,True
245,0.0771451617883469,25,up,up,0.5540674000003492,0.8006984461388622,,experiment,cRDM,0.0,,,,850.7587452999996,211,25,male,True
246,0.0771451617883469,25,down,down,0.5735998000000109,1.1618811916621348,,experiment,cRDM,0.0,,,,852.7253113999996,211,25,male,True
247,0.0771451617883469,25,up,up,0.6276569999990897,1.3684155026071672,,experiment,cRDM,0.0,,,,854.9252154000005,211,25,male,True
248,0.0771451617883469,25,up,up,0.7867163000009896,1.9535955666855511,,experiment,cRDM,0.0,,,,857.7751277999996,211,25,male,True
249,0.0771451617883469,25,down,down,0.5872213000002375,0.4099183095015765,,experiment,cRDM,0.0,,,,859.2416350000003,211,25,male,True
250,0.0771451617883469,25,up,up,0.6263302000006661,1.9422664941771923,,experiment,cRDM,0.0,,,,862.0415219000006,211,25,male,True
251,0.0771451617883469,25,down,down,0.7489402000010159,0.5314930367175468,,experiment,cRDM,0.0,,,,863.4748944000003,211,25,male,True
252,0.0771451617883469,25,down,down,0.7824567000006937,1.9533011929427195,,experiment,cRDM,0.0,,,,866.4413676000004,211,25,male,True
253,0.0771451617883469,25,down,down,1.1729216000003362,0.5599526386199963,,experiment,cRDM,0.0,,,,868.0581012000002,211,25,male,True
254,0.0771451617883469,25,down,down,0.9661345000004076,0.5237163034636364,,experiment,cRDM,0.0,,,,870.0246905999993,211,25,male,True
255,0.0771451617883469,25,up,up,0.482626999999411,1.3772551567515143,,experiment,cRDM,0.0,,,,872.6412344,211,25,male,True
256,0.0771451617883469,25,down,up,0.5329192000008334,0.8818078330447507,,experiment,cRDM,0.0,,,,874.2579067999995,211,25,male,True
257,0.0771451617883469,25,down,down,0.667046599999594,1.359321351206359,,experiment,cRDM,0.0,,,,876.4077734000002,211,25,male,True
258,0.0771451617883469,25,down,down,0.9534942999998748,0.7845036168495739,,experiment,cRDM,0.0,,,,878.1243634999992,211,25,male,True
259,0.0771451617883469,25,up,up,0.7438402000007045,1.3476055351782157,,experiment,cRDM,0.0,,,,880.6909667,211,25,male,True
260,0.0771451617883469,25,up,up,0.8706034000006184,1.476005802526261,,experiment,cRDM,0.0,,,,883.1741916999999,211,25,male,True
261,0.0771451617883469,25,up,down,0.6067437000001519,1.22403037903597,,experiment,cRDM,0.0,,,,885.5240813,211,25,male,True
262,0.0771451617883469,25,up,down,0.6492242000003898,1.956061771663844,,experiment,cRDM,0.0,,,,888.3406028999998,211,25,male,True
263,67.0,25,M,down,0.965517299999192,1.5727950141711768,,experiment,emotion,0.0,,,,907.2233085999997,211,25,male,True
264,61.0,25,M,down,0.8575947999997879,1.38194143663382,,experiment,emotion,0.0,,,,909.8732239,211,25,male,True
265,67.0,25,F,down,0.729674399999567,0.857882468353123,,experiment,emotion,0.0,,,,911.8731564999998,211,25,male,True
266,51.0,25,F,down,0.5574629999991885,1.2182682104863691,,experiment,emotion,0.0,,,,914.1063746,211,25,male,True
267,56.0,25,M,down,0.7109108000004198,1.3795224645001205,,experiment,emotion,0.0,,,,916.3229169000006,211,25,male,True
268,61.0,25,F,down,0.5795564000000013,0.8524070663127372,,experiment,emotion,0.0,,,,918.1562720000002,211,25,male,True
269,56.0,25,M,down,0.7873773999999685,1.895680486914596,,experiment,emotion,0.0,,,,920.8894717999992,211,25,male,True
270,51.0,25,M,,,1.3131641019424418,,experiment,emotion,0.0,,,,923.2560680000006,211,25,male,True
271,51.0,25,F,down,1.0242682000007337,1.427251483228631,,experiment,emotion,0.0,,,,927.372583299999,211,25,male,True
272,67.0,25,F,down,0.8580238000013196,0.5809447607351853,,experiment,emotion,0.0,,,,929.2558262999992,211,25,male,True
273,61.0,25,F,down,0.7077833000003011,1.3904774435801552,,experiment,emotion,0.0,,,,931.7890685999992,211,25,male,True
274,56.0,25,F,down,0.7218235000000277,1.8615585281606095,,experiment,emotion,0.0,,,,934.6389963999992,211,25,male,True
275,67.0,25,F,up,0.9592656000004354,0.4221903219323517,,experiment,emotion,0.0,,,,936.0555814,211,25,male,True
276,51.0,25,F,down,0.6368526000005659,1.9280644939597813,,experiment,emotion,0.0,,,,939.2219894999998,211,25,male,True
277,56.0,25,M,down,0.6907993999993778,0.4862758282098838,,experiment,emotion,0.0,,,,940.6220486999993,211,25,male,True
278,61.0,25,M,down,0.6241618000003655,0.5591299445699804,,experiment,emotion,0.0,,,,942.1386879,211,25,male,True
279,51.0,25,M,down,0.862554999999702,0.3996139984743762,,experiment,emotion,0.0,,,,943.4222592000006,211,25,male,True
280,61.0,25,M,up,1.003598499999498,1.7060346471500578,,experiment,emotion,0.0,,,,946.2552201,211,25,male,True
281,61.0,25,F,down,0.5734238999993977,1.0818229856454094,,experiment,emotion,0.0,,,,948.5884580000002,211,25,male,True
282,67.0,25,M,up,1.3626028999988191,1.7787813214012385,,experiment,emotion,0.0,,,,951.2382039000004,211,25,male,True
283,51.0,25,M,down,1.3989244999993389,1.3338969763597173,,experiment,emotion,0.0,,,,954.2048966000002,211,25,male,True
284,56.0,25,F,up,0.9733753000000434,0.786035042103836,,experiment,emotion,0.0,,,,956.6714997999989,211,25,male,True
285,67.0,25,M,up,0.9224154999992606,1.5028193019160423,,experiment,emotion,0.0,,,,959.4213643000004,211,25,male,True
286,56.0,25,F,up,0.7008811000014248,0.4159211037767978,,experiment,emotion,0.0,,,,961.0379436000004,211,25,male,True
287,56.0,25,F,up,1.1478984999994282,1.0761903240186368,,experiment,emotion,0.0,,,,963.0879258999994,211,25,male,True
288,61.0,25,M,up,0.8240097000016249,0.9658040342956308,,experiment,emotion,0.0,,,,965.4878444999996,211,25,male,True
289,67.0,25,M,up,1.037414100001115,1.8782170880873368,,experiment,emotion,0.0,,,,968.4543890999994,211,25,male,True
290,51.0,25,F,up,0.7991698999994696,0.414774782947335,,experiment,emotion,0.0,,,,970.1876536,211,25,male,True
291,61.0,25,M,down,1.498899700000038,1.8646658393567943,,experiment,emotion,0.0,,,,973.1209063999996,211,25,male,True
292,51.0,25,F,down,1.1210895000003802,1.6328284153744397,,experiment,emotion,0.0,,,,976.5207365000006,211,25,male,True
293,56.0,25,F,down,0.657184600000619,1.8436981231704364,,experiment,emotion,0.0,,,,979.7706517000006,211,25,male,True
294,67.0,25,F,down,1.058947800000169,1.7857766324865487,,experiment,emotion,0.0,,,,982.5038523999992,211,25,male,True
295,61.0,25,M,down,1.0690616000010775,1.266237543959654,,experiment,emotion,0.0,,,,985.1037627000004,211,25,male,True
296,51.0,25,M,down,0.7251353000010567,1.3070503712679773,,experiment,emotion,0.0,,,,987.7536877999992,211,25,male,True
297,56.0,25,M,down,0.6705703000006906,0.959957180843288,,experiment,emotion,0.0,,,,989.7202574000004,211,25,male,True
298,56.0,25,F,down,0.7285812000009173,0.4721306355019359,,experiment,emotion,0.0,,,,991.1202460000004,211,25,male,True
299,67.0,25,F,down,0.9253274999991844,0.9688952344790032,,experiment,emotion,0.0,,,,993.1034903999988,211,25,male,True
300,61.0,25,M,up,0.9044314000002488,1.5625354776688694,,experiment,emotion,0.0,,,,995.8533915999996,211,25,male,True
301,67.0,25,F,up,0.7823533999999199,0.3226150277646898,,experiment,emotion,0.0,,,,997.3365054000004,211,25,male,True
302,51.0,25,M,up,0.7049252999986493,1.622654108201251,,experiment,emotion,0.0,,,,1000.0198817,211,25,male,True
303,56.0,25,M,up,0.8506363000014971,0.5228426528625352,,experiment,emotion,0.0,,,,1001.5031617000004,211,25,male,True
304,51.0,25,M,up,1.073740900001212,1.7759250474077346,,experiment,emotion,0.0,,,,1004.4030805000002,211,25,male,True
305,51.0,25,F,down,0.8995453999996244,1.960117371482615,,experiment,emotion,0.0,,,,1007.686270799999,211,25,male,True
306,67.0,25,F,down,1.3363021000004665,0.4465018679131377,,experiment,emotion,0.0,,,,1009.3195357000004,211,25,male,True
307,61.0,25,M,up,0.8337234999999055,0.8487924618378782,,experiment,emotion,0.0,,,,1011.7861009999996,211,25,male,True
308,56.0,25,F,up,0.7197591999993165,1.0771730367955197,,experiment,emotion,0.0,,,,1013.9860403000002,211,25,male,True
309,61.0,25,F,down,0.7775375000001077,1.2449197787833084,,experiment,emotion,0.0,,,,1016.2192878000004,211,25,male,True
310,67.0,25,M,down,0.8952401999995345,0.3287399252745698,,experiment,emotion,0.0,,,,1017.6025804,211,25,male,True
311,56.0,25,M,down,0.6473671000003378,0.8997078560548497,,experiment,emotion,0.0,,,,1019.6525342000004,211,25,male,True
312,67.0,25,F,up,0.6547300999991421,1.0633472773871249,,experiment,emotion,0.0,,,,1021.6190745000004,211,25,male,True
313,61.0,25,M,down,0.534089100001438,0.5542440070956542,,experiment,emotion,0.0,,,,1023.0857290999992,211,25,male,True
314,51.0,25,F,down,0.5881890000000567,0.5765295917123375,,experiment,emotion,0.0,,,,1024.4856696000006,211,25,male,True
315,61.0,25,F,down,0.6013598999998067,1.2793313066914371,,experiment,emotion,0.0,,,,1026.635490499999,211,25,male,True
316,56.0,25,F,down,0.4446716000002197,1.8258630433190293,,experiment,emotion,0.0,,,,1029.3521545999993,211,25,male,True
317,67.0,25,M,down,0.5824816000003921,0.4719846072386373,,experiment,emotion,0.0,,,,1030.5353403999998,211,25,male,True
318,51.0,25,M,down,0.5492037999993045,1.4190451368961643,,experiment,emotion,0.0,,,,1032.8187018999995,211,25,male,True
319,61.0,25,F,down,0.504685600000812,0.6017952602341861,,experiment,emotion,0.0,,,,1034.2351589999998,211,25,male,True
320,61.0,25,F,down,0.5348985999989964,0.7803665775045283,,experiment,emotion,0.0,,,,1035.801920599999,211,25,male,True
321,51.0,25,M,down,0.3502802999992127,0.6227905058755314,,experiment,emotion,0.0,,,,1037.2350616999993,211,25,male,True
322,67.0,25,M,down,0.4198749000006501,0.9315851580144154,,experiment,emotion,0.0,,,,1038.8349282999989,211,25,male,True
323,67.0,25,M,down,0.4894199000009394,1.054386516874481,,experiment,emotion,0.0,,,,1040.5684062,211,25,male,True
324,56.0,25,M,down,0.6160935000007157,0.613618606197736,,experiment,emotion,0.0,,,,1041.951723,211,25,male,True
325,56.0,25,M,down,0.4561907999996037,0.9761248885019403,,experiment,emotion,0.0,,,,1043.8016351999995,211,25,male,True
326,51.0,25,F,down,0.578292699998201,1.879586372661505,,experiment,emotion,0.0,,,,1046.4015244999991,211,25,male,True
327,56.0,25,F,down,0.5160074000013992,0.9776443282362332,,experiment,emotion,0.0,,,,1048.2348153000005,211,25,male,True
328,67.0,25,M,down,0.5374164000004384,0.6817042162872256,,experiment,emotion,0.0,,,,1049.7014022999992,211,25,male,True
329,61.0,25,F,down,0.7215746999991097,0.6913423519587087,,experiment,emotion,0.0,,,,1051.2013518999993,211,25,male,True
330,51.0,25,F,down,0.6305587000006199,0.4044424603143111,,experiment,emotion,0.0,,,,1052.6013184999993,211,25,male,True
331,51.0,25,F,down,0.5949455999998463,0.4298758777909064,,experiment,emotion,0.0,,,,1053.9179026000002,211,25,male,True
332,61.0,25,M,down,0.5599655000005441,0.5374544840251653,,experiment,emotion,0.0,,,,1055.3178358999994,211,25,male,True
333,56.0,25,F,down,0.4443479000001389,0.7443238890509812,,experiment,emotion,0.0,,,,1056.8844735000002,211,25,male,True
334,67.0,25,F,up,0.794121199998699,1.5089229246730032,,experiment,emotion,0.0,,,,1059.1176997000002,211,25,male,True
335,51.0,25,F,down,1.0162030999999845,1.5221220562459767,,experiment,emotion,0.0,,,,1061.7175996999997,211,25,male,True
336,56.0,25,M,down,1.094982800001162,1.196400498631587,,experiment,emotion,0.0,,,,1064.2008692999989,211,25,male,True
337,51.0,25,M,down,0.5610710000000836,1.6259232606482326,,experiment,emotion,0.0,,,,1067.2007446999996,211,25,male,True
338,61.0,25,F,down,0.6437877999996999,0.8467070818204636,,experiment,emotion,0.0,,,,1068.8840679999994,211,25,male,True
339,67.0,25,M,down,0.5775670999992144,1.7844819961797604,,experiment,emotion,0.0,,,,1071.5672582999996,211,25,male,True
340,56.0,25,F,down,0.5806068000001687,0.8450251237429289,,experiment,emotion,0.0,,,,1073.267210599999,211,25,male,True
341,67.0,25,M,down,0.6910485999997036,0.5690585000839525,,experiment,emotion,0.0,,,,1074.6838064000003,211,25,male,True
342,61.0,25,M,down,0.8181205999990198,1.0386782163439023,,experiment,emotion,0.0,,,,1076.6837598999991,211,25,male,True
343,0.0771451617883469,25,up,up,0.8104041000005964,0.9154313223448668,,experiment,cRDM,1.0,,,,1085.083408999999,211,25,male,True
344,0.0771451617883469,25,up,up,0.4761483999991469,0.995085509640051,,experiment,cRDM,1.0,,,,1087.1666956999998,211,25,male,True
345,0.0771451617883469,25,down,down,0.7465422999994189,1.4808894320932255,,experiment,cRDM,1.0,,,,1089.3832762999991,211,25,male,True
346,0.0771451617883469,25,down,up,0.5498035000000527,1.553326259103288,,experiment,cRDM,1.0,,,,1091.9330119000006,211,25,male,True
347,0.0771451617883469,25,up,up,0.6249724000008428,0.4104727474636007,,experiment,cRDM,1.0,,,,1093.14984,211,25,male,True
348,0.0771451617883469,25,down,down,0.6764429000013479,1.7755292883307046,,experiment,cRDM,1.0,,,,1095.8163769999992,211,25,male,True
349,0.0771451617883469,25,up,up,0.57653609999943,0.7559661606257952,,experiment,cRDM,1.0,,,,1097.5163042000004,211,25,male,True
350,0.0771451617883469,25,up,down,1.1599856999982876,1.670790158650984,,experiment,cRDM,1.0,,,,1100.0327837000004,211,25,male,True
351,0.0771451617883469,25,down,down,0.652722900000299,1.9085123672834627,,experiment,cRDM,1.0,,,,1103.366096899999,211,25,male,True
352,0.0771451617883469,25,down,up,0.8908255000005738,1.8752080499628268,,experiment,cRDM,1.0,,,,1106.1659837999996,211,25,male,True
353,0.0771451617883469,25,down,down,0.5972657999991497,1.2483722573474043,,experiment,cRDM,1.0,,,,1108.5825499999992,211,25,male,True
354,0.0771451617883469,25,down,down,0.6096715000003314,1.8013349982138362,,experiment,cRDM,1.0,,,,1111.2491725,211,25,male,True
355,0.0771451617883469,25,down,down,0.6744314000006852,1.5659599332536802,,experiment,cRDM,1.0,,,,1113.6823772999996,211,25,male,True
356,0.0771451617883469,25,down,down,0.6941798000007111,0.9480758382417518,,experiment,cRDM,1.0,,,,1115.565632599999,211,25,male,True
357,0.0771451617883469,25,up,up,0.6978756000007706,0.5266149690763857,,experiment,cRDM,1.0,,,,1117.0489371999993,211,25,male,True
358,0.0771451617883469,25,up,up,0.8379343000015069,0.4478523409817456,,experiment,cRDM,1.0,,,,1118.4488863999995,211,25,male,True
359,0.0771451617883469,25,up,up,1.1727919000004476,1.973562356792785,,experiment,cRDM,1.0,,,,1121.5320321999989,211,25,male,True
360,0.0771451617883469,25,up,down,0.5748084000006202,0.7174732407105412,,experiment,cRDM,1.0,,,,1123.682023899999,211,25,male,True
361,0.0771451617883469,25,down,down,0.6235880000003817,0.9146203269781176,,experiment,cRDM,1.0,,,,1125.4152462999991,211,25,male,True
362,0.0771451617883469,25,up,up,0.5783221000001504,1.7909591117829426,,experiment,cRDM,1.0,,,,1128.0984833000002,211,25,male,True
363,0.0771451617883469,25,up,up,0.6277410000002419,0.6728903988508261,,experiment,cRDM,1.0,,,,1129.6150708999994,211,25,male,True
364,0.0771451617883469,25,down,down,0.5342717999992601,1.6238018213615633,,experiment,cRDM,1.0,,,,1132.1315300000006,211,25,male,True
365,0.0771451617883469,25,up,up,0.5298705000004702,1.5549238549178073,,experiment,cRDM,1.0,,,,1134.4649418999998,211,25,male,True
366,0.0771451617883469,25,down,down,0.5969431000012264,1.3623692055754892,,experiment,cRDM,1.0,,,,1136.6148692999996,211,25,male,True
367,0.0771451617883469,25,down,up,0.7400947999994969,0.9427325374123052,,experiment,cRDM,1.0,,,,1138.4147763,211,25,male,True
368,0.0771451617883469,25,up,up,0.782436499999676,0.7675963454592146,,experiment,cRDM,1.0,,,,1140.1814080000004,211,25,male,True
369,0.0771451617883469,25,up,down,1.1758503999990353,1.4627825675645412,,experiment,cRDM,1.0,,,,1142.6979642000006,211,25,male,True
370,0.0771451617883469,25,down,down,0.7162382999995316,0.7335357927935457,,experiment,cRDM,1.0,,,,1144.8645770000005,211,25,male,True
371,0.0771451617883469,25,up,up,0.8870012000006682,0.9649013294098904,,experiment,cRDM,1.0,,,,1146.7978119,211,25,male,True
372,0.0771451617883469,25,down,down,0.9898769999999786,1.8954880938221876,,experiment,cRDM,1.0,,,,1149.8309203999995,211,25,male,True
373,0.0771451617883469,25,down,up,0.5761668999984977,0.7671281167665298,,experiment,cRDM,1.0,,,,1151.8476470000005,211,25,male,True
374,0.0771451617883469,25,down,down,0.529938100000436,1.4899349134432678,,experiment,cRDM,1.0,,,,1154.180881799999,211,25,male,True
375,0.0771451617883469,25,up,up,0.616002099999605,0.5070624262514801,,experiment,cRDM,1.0,,,,1155.4808305000006,211,25,male,True
376,0.0771451617883469,25,up,up,0.6637009999994916,0.5152787069299318,,experiment,cRDM,1.0,,,,1156.8641146999998,211,25,male,True
377,0.0771451617883469,25,up,up,0.6588609000009455,0.8356140971250028,,experiment,cRDM,1.0,,,,1158.6139795999989,211,25,male,True
378,0.0771451617883469,25,down,down,0.7967989000007947,1.97151591259017,,experiment,cRDM,1.0,,,,1161.5139233999998,211,25,male,True
379,0.0771451617883469,25,down,down,0.7413570999997319,1.665170632968406,,experiment,cRDM,1.0,,,,1164.2304590999993,211,25,male,True
380,0.0771451617883469,25,up,up,0.6796899999990273,1.4981569669747627,,experiment,cRDM,1.0,,,,1166.7471468000003,211,25,male,True
381,0.0771451617883469,25,down,down,0.6081652000011672,1.0703840870659245,,experiment,cRDM,1.0,,,,1168.763648799999,211,25,male,True
382,0.0771451617883469,25,up,up,0.5089144000012311,1.8704365359582589,,experiment,cRDM,1.0,,,,1171.4969029000004,211,25,male,True
383,0.0771451617883469,25,up,up,0.8427610999988246,1.4634945213430466,,experiment,cRDM,1.0,,,,1173.7300541000004,211,25,male,True
384,0.0771451617883469,25,up,down,0.6594210999992356,1.0167893595384148,,experiment,cRDM,1.0,,,,1175.8634131,211,25,male,True
385,0.0771451617883469,25,down,down,0.6361125000003085,0.5685556103738949,,experiment,cRDM,1.0,,,,1177.3467256000004,211,25,male,True
386,0.0771451617883469,25,down,down,0.612534500000038,1.1167980449083332,,experiment,cRDM,1.0,,,,1179.3632789000003,211,25,male,True
387,0.0771451617883469,25,up,up,0.6686248999994859,0.3700235920895623,,experiment,cRDM,1.0,,,,1180.613186999999,211,25,male,True
388,0.0771451617883469,25,down,up,0.8732789000005141,0.8204931537729754,,experiment,cRDM,1.0,,,,1182.3465039000002,211,25,male,True
389,0.0771451617883469,25,down,down,0.4167958999987604,1.4024507891929645,,experiment,cRDM,1.0,,,,1184.896412,211,25,male,True
390,0.0771451617883469,25,up,up,0.5748376999999891,1.7964883880720768,,experiment,cRDM,1.0,,,,1187.3630051,211,25,male,True
391,0.0771451617883469,25,up,up,0.5216512000006333,1.7348231274559276,,experiment,cRDM,1.0,,,,1189.9462270000004,211,25,male,True
392,0.0771451617883469,25,down,up,0.816981100000703,0.6283473534962996,,experiment,cRDM,1.0,,,,1191.3628312,211,25,male,True
393,0.0771451617883469,25,up,up,0.617061000000831,0.3605683891857968,,experiment,cRDM,1.0,,,,1192.8127774999994,211,25,male,True
394,0.0771451617883469,25,down,down,0.6414925999997649,1.895389918832949,,experiment,cRDM,1.0,,,,1195.5793630999997,211,25,male,True
395,0.0771451617883469,25,down,up,0.6138528999999835,0.6065004432813439,,experiment,cRDM,1.0,,,,1197.0959605999997,211,25,male,True
396,0.0771451617883469,25,down,up,1.1972706999986258,1.7842500650079796,,experiment,cRDM,1.0,,,,1199.7625344999997,211,25,male,True
397,0.0771451617883469,25,up,up,0.586721600000601,1.4555462318257535,,experiment,cRDM,1.0,,,,1202.6791071999996,211,25,male,True
398,0.0771451617883469,25,up,up,0.6254265999996278,0.7389402391855032,,experiment,cRDM,1.0,,,,1204.2623851999997,211,25,male,True
399,0.0771451617883469,25,down,down,0.6898440000004484,0.8266716452761591,,experiment,cRDM,1.0,,,,1205.978960999999,211,25,male,True
400,0.0771451617883469,25,down,up,0.6426244999984192,1.7376527318370951,,experiment,cRDM,1.0,,,,1208.6622269,211,25,male,True
401,0.0771451617883469,25,up,up,0.6226336999989144,0.6260846461644501,,experiment,cRDM,1.0,,,,1210.2121793000006,211,25,male,True
402,0.0771451617883469,25,up,up,0.7954004999992321,0.4905426149190132,,experiment,cRDM,1.0,,,,1211.595406299999,211,25,male,True
403,0.0771451617883469,25,up,up,0.5587519000000611,0.9079887021978126,,experiment,cRDM,1.0,,,,1213.5620199000005,211,25,male,True
404,0.0771451617883469,25,up,up,0.6021934000000329,0.7582576027363458,,experiment,cRDM,1.0,,,,1215.1286760000005,211,25,male,True
405,0.0771451617883469,25,up,up,0.6652184000013222,0.3323498065966715,,experiment,cRDM,1.0,,,,1216.3286306999998,211,25,male,True
406,0.0771451617883469,25,down,down,0.6822617999987415,1.2791795727128863,,experiment,cRDM,1.0,,,,1218.5285478999997,211,25,male,True
407,0.0771451617883469,25,down,down,0.8263741999999183,1.0051794060926094,,experiment,cRDM,1.0,,,,1220.4784359000005,211,25,male,True
408,0.0771451617883469,25,up,up,0.5641539000007469,1.8472981366742387,,experiment,cRDM,1.0,,,,1223.411655599999,211,25,male,True
409,0.0771451617883469,25,down,down,0.6612019999993208,0.6265756786124002,,experiment,cRDM,1.0,,,,1224.8616051999998,211,25,male,True
410,0.0771451617883469,25,down,up,0.6278250999985175,0.53752553057828,,experiment,cRDM,1.0,,,,1226.3280460000003,211,25,male,True
411,0.0771451617883469,25,down,up,0.8243206999995891,1.784977722821023,,experiment,cRDM,1.0,,,,1229.011450599999,211,25,male,True
412,0.0771451617883469,25,up,up,0.6789260000005015,1.7196689959955254,,experiment,cRDM,1.0,,,,1231.8279177000004,211,25,male,True
413,0.0771451617883469,25,down,up,0.8742003000006662,1.4217033471364289,,experiment,cRDM,1.0,,,,1234.194607899999,211,25,male,True
414,0.0771451617883469,25,down,down,0.8119209000014962,1.3987768324563443,,experiment,cRDM,1.0,,,,1236.727888899999,211,25,male,True
415,0.0771451617883469,25,down,up,0.5880353999982617,1.629188066506722,,experiment,cRDM,1.0,,,,1239.4277714,211,25,male,True
416,0.0771451617883469,25,up,up,0.6348204999994778,0.4460530109769149,,experiment,cRDM,1.0,,,,1240.7109951999992,211,25,male,True
417,0.0771451617883469,25,up,up,0.6472167000010813,1.4141846153596414,,experiment,cRDM,1.0,,,,1243.0276305999996,211,25,male,True
418,0.0771451617883469,25,down,down,0.6112400000001799,1.9719910907336424,,experiment,cRDM,1.0,,,,1245.9275669,211,25,male,True
419,0.0771451617883469,25,up,up,0.6830593000013323,0.5020126431522313,,experiment,cRDM,1.0,,,,1247.3107701999998,211,25,male,True
420,0.0771451617883469,25,down,down,0.5182487000001856,1.7460576818375138,,experiment,cRDM,1.0,,,,1250.0105602000003,211,25,male,True
421,0.0771451617883469,25,up,up,0.5998693999990792,0.8187034333791277,,experiment,cRDM,1.0,,,,1251.593937399999,211,25,male,True
422,0.0771451617883469,25,up,up,0.6279513999998017,1.78530111028441,,experiment,cRDM,1.0,,,,1254.2438512999995,211,25,male,True
423,67.0,25,M,down,0.9893030000002908,1.6427766457783826,,experiment,emotion,1.0,,,,1263.2935027999993,211,25,male,True
424,61.0,25,M,down,0.7170479000014893,1.5225441930804011,,experiment,emotion,1.0,,,,1266.0767644999996,211,25,male,True
425,67.0,25,F,down,0.6951781999996456,1.0614667041167851,,experiment,emotion,1.0,,,,1268.1266784,211,25,male,True
426,51.0,25,F,down,0.5975063999994745,0.5951870345462638,,experiment,emotion,1.0,,,,1269.693299999999,211,25,male,True
427,56.0,25,M,down,0.6011510000007547,0.938637230248563,,experiment,emotion,1.0,,,,1271.5098839999991,211,25,male,True
428,61.0,25,F,down,0.6309865000002901,0.8344589789347525,,experiment,emotion,1.0,,,,1273.2098241000003,211,25,male,True
429,56.0,25,M,down,0.7137406999991072,1.5772591808042011,,experiment,emotion,1.0,,,,1275.6930938999994,211,25,male,True
430,51.0,25,M,down,0.6845998999997391,0.333813371094703,,experiment,emotion,1.0,,,,1277.026208199999,211,25,male,True
431,51.0,25,F,down,0.613192999999228,0.3812134586761885,,experiment,emotion,1.0,,,,1278.3596115,211,25,male,True
432,67.0,25,F,down,0.6179391000005126,1.993535691321308,,experiment,emotion,1.0,,,,1281.2428708999996,211,25,male,True
433,61.0,25,F,down,0.7940083000012237,1.2587556973898422,,experiment,emotion,1.0,,,,1283.3927970999994,211,25,male,True
434,56.0,25,F,down,0.7694742000003316,1.5463763099446692,,experiment,emotion,1.0,,,,1286.0093414000005,211,25,male,True
435,67.0,25,F,down,0.783933499998966,1.183951075190074,,experiment,emotion,1.0,,,,1288.2258492,211,25,male,True
436,51.0,25,F,down,0.6800383000008878,1.7335494577771136,,experiment,emotion,1.0,,,,1291.0257923999998,211,25,male,True
437,56.0,25,M,down,0.7857576000005793,1.3263947427850915,,experiment,emotion,1.0,,,,1293.309075199999,211,25,male,True
438,61.0,25,M,down,0.8554874000001291,0.8822486059432848,,experiment,emotion,1.0,,,,1295.242363899999,211,25,male,True
439,51.0,25,M,down,0.8505224999989878,0.5277897468788406,,experiment,emotion,1.0,,,,1296.8922843,211,25,male,True
440,61.0,25,M,down,0.9359603000011704,0.6454209704328837,,experiment,emotion,1.0,,,,1298.6588747000003,211,25,male,True
441,61.0,25,F,down,0.9209585999997216,0.8378836603857152,,experiment,emotion,1.0,,,,1300.7088487,211,25,male,True
442,67.0,25,M,up,0.5964229000001069,0.8172429536865975,,experiment,emotion,1.0,,,,1302.725413799999,211,25,male,True
443,51.0,25,M,down,0.5651243000011164,0.980082701204288,,experiment,emotion,1.0,,,,1304.5586705000003,211,25,male,True
444,56.0,25,F,down,0.5995277000001806,0.9208405373317284,,experiment,emotion,1.0,,,,1306.3252598,211,25,male,True
445,67.0,25,M,up,1.004562399999486,0.381933367566142,,experiment,emotion,1.0,,,,1307.5752357,211,25,male,True
446,56.0,25,F,down,0.4365092999996705,1.4513799994411445,,experiment,emotion,1.0,,,,1310.3082990000005,211,25,male,True
447,56.0,25,F,down,0.608061999999336,0.7370792650527038,,experiment,emotion,1.0,,,,1311.7417681000006,211,25,male,True
448,61.0,25,M,up,1.0164466000005632,0.6195814742032566,,experiment,emotion,1.0,,,,1313.2583624,211,25,male,True
449,67.0,25,M,down,0.5148587999992742,0.7326431536308533,,experiment,emotion,1.0,,,,1315.274947599999,211,25,male,True
450,51.0,25,F,down,0.6046812999993563,0.7463387274578406,,experiment,emotion,1.0,,,,1316.8080838999997,211,25,male,True
451,61.0,25,M,down,0.5523779000013747,1.8980237772972408,,experiment,emotion,1.0,,,,1319.5914463999998,211,25,male,True
452,51.0,25,F,down,0.6991983999996592,1.9022683394635136,,experiment,emotion,1.0,,,,1322.3247023999993,211,25,male,True
453,56.0,25,F,down,0.7048785000006319,0.8489749906061961,,experiment,emotion,1.0,,,,1324.157944999999,211,25,male,True
454,67.0,25,F,up,1.285614499998701,1.256279885949453,,experiment,emotion,1.0,,,,1326.3912153,211,25,male,True
455,61.0,25,M,down,0.6499550999997155,0.4173600101190499,,experiment,emotion,1.0,,,,1328.3578073999995,211,25,male,True
456,51.0,25,M,down,0.634793900000659,1.7062764409779916,,experiment,emotion,1.0,,,,1330.9910154999998,211,25,male,True
457,56.0,25,M,down,0.5078229000009742,0.3067075474698365,,experiment,emotion,1.0,,,,1332.190987,211,25,male,True
458,56.0,25,F,down,0.6338379999997414,0.9136359108466314,,experiment,emotion,1.0,,,,1333.8909277999992,211,25,male,True
459,67.0,25,F,down,0.6866978999987623,0.7435265883549678,,experiment,emotion,1.0,,,,1335.5242118999995,211,25,male,True
460,61.0,25,M,down,0.8130547000000661,1.9347212203118096,,experiment,emotion,1.0,,,,1338.4238987999995,211,25,male,True
461,67.0,25,F,down,0.6634710999987874,0.9590957191906896,,experiment,emotion,1.0,,,,1340.4573485,211,25,male,True
462,51.0,25,M,down,0.8014867000001686,0.3594607462767563,,experiment,emotion,1.0,,,,1341.7573178999992,211,25,male,True
463,56.0,25,M,down,0.7152829999995447,1.9682795684140904,,experiment,emotion,1.0,,,,1344.7905511999998,211,25,male,True
464,51.0,25,M,down,0.6443615999996837,1.9684406465078188,,experiment,emotion,1.0,,,,1347.7404342999998,211,25,male,True
465,51.0,25,F,down,0.6464078999997582,0.3359973289778945,,experiment,emotion,1.0,,,,1348.9903947000005,211,25,male,True
466,67.0,25,F,down,0.6584935999999288,0.9270098058488964,,experiment,emotion,1.0,,,,1350.8403087000006,211,25,male,True
467,61.0,25,M,down,0.7305415999999241,0.6594552329310945,,experiment,emotion,1.0,,,,1352.4402566999995,211,25,male,True
468,56.0,25,F,down,0.6692959000010887,1.4343959539277826,,experiment,emotion,1.0,,,,1354.8735091,211,25,male,True
469,61.0,25,F,up,1.5243759000004502,1.9211825173415131,,experiment,emotion,1.0,,,,1357.7234147999989,211,25,male,True
470,67.0,25,M,down,0.6412974999984726,0.901218506083399,,experiment,emotion,1.0,,,,1360.4065045999996,211,25,male,True
471,56.0,25,M,down,0.716557499999908,0.9104861442985536,,experiment,emotion,1.0,,,,1362.2232461000003,211,25,male,True
472,67.0,25,F,up,0.8530157000004692,1.4166369981614382,,experiment,emotion,1.0,,,,1364.6397913,211,25,male,True
473,61.0,25,M,down,0.6951356999998097,1.6865997688116523,,experiment,emotion,1.0,,,,1367.4396983000006,211,25,male,True
474,51.0,25,F,down,0.6701578000011068,1.2273580535408988,,experiment,emotion,1.0,,,,1369.639586899999,211,25,male,True
475,61.0,25,F,down,0.6982513000002655,0.8549789324857853,,experiment,emotion,1.0,,,,1371.4395516000004,211,25,male,True
476,56.0,25,F,down,0.696858200000861,0.69791006210654,,experiment,emotion,1.0,,,,1373.1059377,211,25,male,True
477,67.0,25,M,down,0.7369106000005559,1.8326456712457608,,experiment,emotion,1.0,,,,1375.9059636000002,211,25,male,True
478,51.0,25,M,down,0.8571984999998676,1.8543462499760708,,experiment,emotion,1.0,,,,1378.7726060999994,211,25,male,True
479,61.0,25,F,up,1.2632450999990397,0.5402526113701172,,experiment,emotion,1.0,,,,1380.4225573000003,211,25,male,True
480,61.0,25,F,down,0.656690300000264,0.875284724052336,,experiment,emotion,1.0,,,,1382.8391118,211,25,male,True
481,51.0,25,M,down,0.7880771000000095,0.7456735945050225,,experiment,emotion,1.0,,,,1384.5057541000006,211,25,male,True
482,67.0,25,M,down,0.749782700000651,0.7764646379859788,,experiment,emotion,1.0,,,,1386.339014199999,211,25,male,True
483,67.0,25,M,up,0.871846000000005,0.7897987962805055,,experiment,emotion,1.0,,,,1388.1389529999997,211,25,male,True
484,56.0,25,M,down,0.7336198000011791,0.9292482486211052,,experiment,emotion,1.0,,,,1390.2221912000005,211,25,male,True
485,56.0,25,M,down,0.7763416999987385,1.7262421132120631,,experiment,emotion,1.0,,,,1392.955419599999,211,25,male,True
486,51.0,25,F,down,1.41047350000008,0.410826789438392,,experiment,emotion,1.0,,,,1394.4053573,211,25,male,True
487,56.0,25,F,down,0.7748181000006298,0.4410307312574472,,experiment,emotion,1.0,,,,1396.521978499999,211,25,male,True
488,67.0,25,M,down,0.7085432999992918,0.389159460883721,,experiment,emotion,1.0,,,,1397.9552566999992,211,25,male,True
489,61.0,25,F,down,0.6539859000004071,1.6934958211755513,,experiment,emotion,1.0,,,,1400.6551328999994,211,25,male,True
490,51.0,25,F,down,0.655945000000429,1.67473908385167,,experiment,emotion,1.0,,,,1403.2550434999994,211,25,male,True
491,51.0,25,F,down,0.7682979999990494,0.7318564308074702,,experiment,emotion,1.0,,,,1404.921504599999,211,25,male,True
492,61.0,25,M,down,1.0065046999989136,0.9513903047285388,,experiment,emotion,1.0,,,,1406.9212924999993,211,25,male,True
493,56.0,25,F,down,0.7456025999999838,0.5181031530566356,,experiment,emotion,1.0,,,,1408.738190800001,211,25,male,True
494,67.0,25,F,up,0.6957258000002184,1.3103720990387375,,experiment,emotion,1.0,,,,1411.0881004000005,211,25,male,True
495,51.0,25,F,down,0.5105321999999433,1.01571213543537,,experiment,emotion,1.0,,,,1413.0713219999998,211,25,male,True
496,56.0,25,M,down,0.6638555999998061,1.027076401750231,,experiment,emotion,1.0,,,,1414.8879393000009,211,25,male,True
497,51.0,25,M,down,0.7324102000002313,1.6769101987722068,,experiment,emotion,1.0,,,,1417.5044380999989,211,25,male,True
498,61.0,25,F,down,0.7997376000002987,1.8495824271603891,,experiment,emotion,1.0,,,,1420.371062099999,211,25,male,True
499,67.0,25,M,down,0.7731926000014937,1.8363557866353224,,experiment,emotion,1.0,,,,1423.287609699999,211,25,male,True
500,56.0,25,F,down,0.7108662999999069,0.401730557246249,,experiment,emotion,1.0,,,,1424.7209328999998,211,25,male,True
501,67.0,25,M,,,0.4009585851897579,,experiment,emotion,1.0,,,,1426.1041043999994,211,25,male,True
502,61.0,25,M,down,1.1759446000014575,0.8238748996900827,,experiment,emotion,1.0,,,,1429.6038960000003,211,25,male,True
503,0.0771451617883469,25,up,up,0.765680099999372,1.0088123054667368,,experiment,cRDM,2.0,,,,1436.0871391,211,25,male,True
504,0.0771451617883469,25,up,up,0.548734299998614,1.4286555627714326,,experiment,cRDM,2.0,,,,1438.5370605999997,211,25,male,True
505,0.0771451617883469,25,down,up,0.6404954999998154,1.8205094193005773,,experiment,cRDM,2.0,,,,1441.1703032000005,211,25,male,True
506,0.0771451617883469,25,down,down,0.6314132999996218,1.1343068516051222,,experiment,cRDM,2.0,,,,1443.203442599999,211,25,male,True
507,0.0771451617883469,25,up,up,0.8894337999990967,1.860683355510592,,experiment,cRDM,2.0,,,,1445.9534521999994,211,25,male,True
508,0.0771451617883469,25,down,down,0.5530827999991743,0.494317061714204,,experiment,cRDM,2.0,,,,1447.586720199999,211,25,male,True
509,0.0771451617883469,25,up,up,0.6137904000006529,1.7034555498289137,,experiment,cRDM,2.0,,,,1450.1200026999995,211,25,male,True
510,0.0771451617883469,25,up,up,0.6952125000007072,0.4220693166128851,,experiment,cRDM,2.0,,,,1451.436588999999,211,25,male,True
511,0.0771451617883469,25,down,up,0.8503172000000632,1.6922457376256077,,experiment,cRDM,2.0,,,,1454.0864827999994,211,25,male,True
512,0.0771451617883469,25,down,down,0.8414170000014565,1.9485792644806683,,experiment,cRDM,2.0,,,,1457.1363894000006,211,25,male,True
513,0.0771451617883469,25,down,down,1.1277995000000374,0.8223979616429129,,experiment,cRDM,2.0,,,,1459.0529803999998,211,25,male,True
514,0.0771451617883469,25,down,up,0.6098966999998083,0.4640762809029563,,experiment,cRDM,2.0,,,,1460.9029007999998,211,25,male,True
515,0.0771451617883469,25,down,down,0.7046334000006027,1.1548990872555254,,experiment,cRDM,2.0,,,,1462.9361921,211,25,male,True
516,0.0771451617883469,25,down,up,0.5976872999999614,0.8271080329591951,,experiment,cRDM,2.0,,,,1464.7361175999995,211,25,male,True
517,0.0771451617883469,25,up,up,0.7163978999997198,1.0210619771905003,,experiment,cRDM,2.0,,,,1466.619403499999,211,25,male,True
518,0.0771451617883469,25,up,up,0.6467876999995497,0.6356490288252834,,experiment,cRDM,2.0,,,,1468.2360169999993,211,25,male,True
519,0.0771451617883469,25,up,up,0.7068333999995957,0.9942937970667258,,experiment,cRDM,2.0,,,,1470.135942999999,211,25,male,True
520,0.0771451617883469,25,up,up,0.7129780000013852,1.4667886684928544,,experiment,cRDM,2.0,,,,1472.585821999999,211,25,male,True
521,0.0771451617883469,25,down,down,0.8264165000000503,1.504519317010196,,experiment,cRDM,2.0,,,,1475.0523823999993,211,25,male,True
522,0.0771451617883469,25,up,up,0.7538963000006333,1.933169989529476,,experiment,cRDM,2.0,,,,1478.0689175999996,211,25,male,True
523,0.0771451617883469,25,up,up,0.6458808000006684,0.5798012851910813,,experiment,cRDM,2.0,,,,1479.6689401000003,211,25,male,True
524,0.0771451617883469,25,down,down,0.8193013000000064,1.0585245240296353,,experiment,cRDM,2.0,,,,1481.6354912000006,211,25,male,True
525,0.0771451617883469,25,up,up,0.5450581999994029,0.5395871704451113,,experiment,cRDM,2.0,,,,1483.2687652999994,211,25,male,True
526,0.0771451617883469,25,down,down,0.609543799999301,1.514498973915035,,experiment,cRDM,2.0,,,,1485.5853134999998,211,25,male,True
527,0.0771451617883469,25,down,up,0.4989179000003787,1.6353098527703702,,experiment,cRDM,2.0,,,,1488.1018597000002,211,25,male,True
528,0.0771451617883469,25,up,down,0.6713235000006534,1.9620139908712435,,experiment,cRDM,2.0,,,,1490.8184956000005,211,25,male,True
529,0.0771451617883469,25,up,down,0.8550618000008399,1.595378966413988,,experiment,cRDM,2.0,,,,1493.3517307000002,211,25,male,True
530,0.0771451617883469,25,down,down,0.6704521999999997,0.703105272822421,,experiment,cRDM,2.0,,,,1495.1683259,211,25,male,True
531,0.0771451617883469,25,up,up,0.5973906999988685,1.7038367225707711,,experiment,cRDM,2.0,,,,1497.8014096000006,211,25,male,True
532,0.0771451617883469,25,down,down,0.656570200000715,0.8483796406548205,,experiment,cRDM,2.0,,,,1499.5182181,211,25,male,True
533,0.0771451617883469,25,down,up,0.5427349999990838,1.236249457533752,,experiment,cRDM,2.0,,,,1501.6680529999994,211,25,male,True
534,0.0771451617883469,25,down,down,0.6914678000011918,1.1817683391606169,,experiment,cRDM,2.0,,,,1503.6513360999998,211,25,male,True
535,0.0771451617883469,25,up,up,0.5947760999988532,0.7170743983683823,,experiment,cRDM,2.0,,,,1505.3179691000005,211,25,male,True
536,0.0771451617883469,25,up,up,0.6056088999994245,0.4699397936835712,,experiment,cRDM,2.0,,,,1506.6512249999996,211,25,male,True
537,0.0771451617883469,25,up,up,0.5413527999990038,1.856808426179832,,experiment,cRDM,2.0,,,,1509.384446099999,211,25,male,True
538,0.0771451617883469,25,down,down,0.6628952999999456,1.7026912124696398,,experiment,cRDM,2.0,,,,1511.9009038000004,211,25,male,True
539,0.0771451617883469,25,down,down,0.8712536000002729,1.4329760125701363,,experiment,cRDM,2.0,,,,1514.2676059999994,211,25,male,True
540,0.0771451617883469,25,up,up,0.6236349000009795,1.2444724027293963,,experiment,cRDM,2.0,,,,1516.6341823999992,211,25,male,True
541,0.0771451617883469,25,down,down,1.0229988999999478,1.0811414178883845,,experiment,cRDM,2.0,,,,1518.6007826000005,211,25,male,True
542,0.0771451617883469,25,up,up,0.6512447000004613,0.3198687699453321,,experiment,cRDM,2.0,,,,1520.200569499999,211,25,male,True
543,0.0771451617883469,25,up,up,0.4502783000007184,0.490754329072786,,experiment,cRDM,2.0,,,,1521.6005394999993,211,25,male,True
544,0.0771451617883469,25,up,up,0.4944673999998485,1.6196263907257444,,experiment,cRDM,2.0,,,,1523.9172842999997,211,25,male,True
545,0.0771451617883469,25,down,down,0.6562745000010182,0.769633456478663,,experiment,cRDM,2.0,,,,1525.4505267999994,211,25,male,True
546,0.0771451617883469,25,down,up,0.5885398000009445,1.425269257079251,,experiment,cRDM,2.0,,,,1527.800314799999,211,25,male,True
547,0.0771451617883469,25,up,up,0.6197740000006888,1.50477832774957,,experiment,cRDM,2.0,,,,1530.1670304,211,25,male,True
548,0.0771451617883469,25,down,down,0.4945468999994773,1.7990402549371016,,experiment,cRDM,2.0,,,,1532.850268799999,211,25,male,True
549,0.0771451617883469,25,down,down,0.500271499999144,1.5836072976960975,,experiment,cRDM,2.0,,,,1535.1835179999998,211,25,male,True
550,0.0771451617883469,25,up,up,0.8197089999994205,1.0557486697502807,,experiment,cRDM,2.0,,,,1537.000093999999,211,25,male,True
551,0.0771451617883469,25,up,down,0.5141191000002436,1.6363235570229355,,experiment,cRDM,2.0,,,,1539.7166856000003,211,25,male,True
552,0.0771451617883469,25,down,down,0.5545753999995213,0.8733632354988439,,experiment,cRDM,2.0,,,,1541.3832547000002,211,25,male,True
553,0.0771451617883469,25,up,up,1.3078949000009743,0.3438299619749545,,experiment,cRDM,2.0,,,,1542.5498917000004,211,25,male,True
554,0.0771451617883469,25,down,down,0.6162768000012875,1.2144769797039456,,experiment,cRDM,2.0,,,,1545.3165205999994,211,25,male,True
555,0.0771451617883469,25,down,up,0.5015297999998438,1.6363578228386109,,experiment,cRDM,2.0,,,,1547.8163289000004,211,25,male,True
556,0.0771451617883469,25,down,up,0.9987730000011652,0.4539776016409879,,experiment,cRDM,2.0,,,,1549.0330006000004,211,25,male,True
557,0.0771451617883469,25,up,up,0.6445070000008855,0.7166473992094374,,experiment,cRDM,2.0,,,,1551.0162806999997,211,25,male,True
558,0.0771451617883469,25,up,down,0.8053039999995235,1.7352143399720688,,experiment,cRDM,2.0,,,,1553.6494924,211,25,male,True
559,0.0771451617883469,25,down,down,1.1537055999997392,0.8688116844721792,,experiment,cRDM,2.0,,,,1555.5661132000005,211,25,male,True
560,0.0771451617883469,25,down,down,0.8187553999996453,0.5330603234572022,,experiment,cRDM,2.0,,,,1557.5160362999995,211,25,male,True
561,0.0771451617883469,25,up,up,0.8153330000004644,1.4019103762516725,,experiment,cRDM,2.0,,,,1559.9825755000002,211,25,male,True
562,0.0771451617883469,25,up,up,0.6757696999993641,0.833209133297576,,experiment,cRDM,2.0,,,,1561.8990259000002,211,25,male,True
563,0.0771451617883469,25,up,up,0.5030648000010842,0.809190659498362,,experiment,cRDM,2.0,,,,1563.665783999999,211,25,male,True
564,0.0771451617883469,25,up,down,0.7019963999991887,1.1684315329372132,,experiment,cRDM,2.0,,,,1565.5990390000006,211,25,male,True
565,0.0771451617883469,25,up,down,0.6961467999990418,1.966243497429924,,experiment,cRDM,2.0,,,,1568.5156439000002,211,25,male,True
566,0.0771451617883469,25,down,down,0.7652152000009664,0.4295560214675482,,experiment,cRDM,2.0,,,,1569.9155876999994,211,25,male,True
567,0.0771451617883469,25,down,up,0.6303102000001672,1.1372996957793529,,experiment,cRDM,2.0,,,,1572.0654792000005,211,25,male,True
568,0.0771451617883469,25,up,up,0.7447042000003421,0.679791393347425,,experiment,cRDM,2.0,,,,1573.6320813999992,211,25,male,True
569,0.0771451617883469,25,down,up,0.6217624000000797,0.648776260374426,,experiment,cRDM,2.0,,,,1575.2820238000004,211,25,male,True
570,0.0771451617883469,25,down,down,0.6545189999997092,1.4602511493824768,,experiment,cRDM,2.0,,,,1577.6153018999994,211,25,male,True
571,0.0771451617883469,25,down,down,0.5999697000006563,1.5539403655762691,,experiment,cRDM,2.0,,,,1580.0818701999997,211,25,male,True
572,0.0771451617883469,25,up,up,0.5770540000012261,0.6366358494345499,,experiment,cRDM,2.0,,,,1581.5817736999998,211,25,male,True
573,0.0771451617883469,25,down,down,0.5985457000006136,0.8790556463996766,,experiment,cRDM,2.0,,,,1583.2982575000003,211,25,male,True
574,0.0771451617883469,25,down,up,0.5735743000004732,1.6244804800660382,,experiment,cRDM,2.0,,,,1585.798244199999,211,25,male,True
575,0.0771451617883469,25,down,down,0.6256361000014294,1.814190422094802,,experiment,cRDM,2.0,,,,1588.4482193000003,211,25,male,True
576,0.0771451617883469,25,up,up,0.3505158999996638,1.3294673575084472,,experiment,cRDM,2.0,,,,1590.6647911,211,25,male,True
577,0.0771451617883469,25,up,up,0.8183996999996452,0.5903272773933481,,experiment,cRDM,2.0,,,,1591.9314144,211,25,male,True
578,0.0771451617883469,25,down,down,0.3837738999991416,0.7417917399795059,,experiment,cRDM,2.0,,,,1593.7480582999997,211,25,male,True
579,0.0771451617883469,25,up,up,0.4631828000001405,1.8406332520227204,,experiment,cRDM,2.0,,,,1596.2645950000006,211,25,male,True
580,0.0771451617883469,25,down,down,0.2173911999998381,1.9366588974913328,,experiment,cRDM,2.0,,,,1598.9143053999996,211,25,male,True
581,0.0771451617883469,25,up,down,0.8627018000006501,0.4950628194073788,,experiment,cRDM,2.0,,,,1600.0811195999995,211,25,male,True
582,0.0771451617883469,25,up,up,0.4858015999998315,1.94240855266591,,experiment,cRDM,2.0,,,,1603.1309961999996,211,25,male,True
583,67.0,25,M,down,1.177445199999056,1.970843937355172,,experiment,emotion,2.0,,,,1612.3473546000005,211,25,male,True
584,61.0,25,M,down,1.5469319999992877,1.4751992985817626,,experiment,emotion,2.0,,,,1615.3139087,211,25,male,True
585,67.0,25,F,down,0.6970295000010083,1.893618244006486,,experiment,emotion,2.0,,,,1619.0137522999994,211,25,male,True
586,51.0,25,F,down,0.7177869000006467,1.65032421149882,,experiment,emotion,2.0,,,,1621.6469875000005,211,25,male,True
587,56.0,25,M,down,0.7566061999987141,1.1381785805484534,,experiment,emotion,2.0,,,,1623.7971835999997,211,25,male,True
588,61.0,25,F,down,0.7119999000005919,1.909584297330836,,experiment,emotion,2.0,,,,1626.7467935999994,211,25,male,True
589,56.0,25,M,down,0.68707379999978,0.7134187380278041,,experiment,emotion,2.0,,,,1628.446737599999,211,25,male,True
590,51.0,25,M,down,0.631916899999851,1.8739607857082576,,experiment,emotion,2.0,,,,1631.2799491999997,211,25,male,True
591,51.0,25,F,down,0.7335230000007869,0.583396937223057,,experiment,emotion,2.0,,,,1632.7632711999995,211,25,male,True
592,67.0,25,F,down,0.5639791000012337,0.8946480922086784,,experiment,emotion,2.0,,,,1634.6798039000005,211,25,male,True
593,61.0,25,F,down,0.6456779999989521,1.4998817091993415,,experiment,emotion,2.0,,,,1637.013098699999,211,25,male,True
594,56.0,25,F,down,0.7688242000003811,1.3343098966196558,,experiment,emotion,2.0,,,,1639.2630178999989,211,25,male,True
595,67.0,25,F,down,0.6556034000004729,1.282359275787542,,experiment,emotion,2.0,,,,1641.596186499999,211,25,male,True
596,51.0,25,F,down,0.7389625999985583,0.5894795100745018,,experiment,emotion,2.0,,,,1643.1128534,211,25,male,True
597,56.0,25,M,down,1.3539820999994845,0.7452926860868216,,experiment,emotion,2.0,,,,1644.8628062999996,211,25,male,True
598,61.0,25,M,down,0.8410877000005712,0.7697691267588327,,experiment,emotion,2.0,,,,1647.2627094,211,25,male,True
599,51.0,25,M,down,0.737241200000426,1.4829101365369362,,experiment,emotion,2.0,,,,1649.8626146000006,211,25,male,True
600,61.0,25,M,down,0.680121199999121,1.8346574329875684,,experiment,emotion,2.0,,,,1652.6957034999996,211,25,male,True
601,61.0,25,F,down,0.6003505999997287,0.8249758238128311,,experiment,emotion,2.0,,,,1654.4624492000005,211,25,male,True
602,67.0,25,M,down,1.179263699999865,0.3257858294492648,,experiment,emotion,2.0,,,,1655.6955605000005,211,25,male,True
603,51.0,25,M,down,0.9155057999996644,1.9951607988280589,,experiment,emotion,2.0,,,,1659.1622773,211,25,male,True
604,56.0,25,F,down,0.745618499999182,1.434851692923541,,experiment,emotion,2.0,,,,1661.8621949999997,211,25,male,True
605,67.0,25,M,down,1.0503258999997342,0.3198273346687266,,experiment,emotion,2.0,,,,1663.1954690000002,211,25,male,True
606,56.0,25,F,down,1.0461073000005854,1.3249351072755395,,experiment,emotion,2.0,,,,1665.828687900001,211,25,male,True
607,56.0,25,F,down,0.8308199000002787,0.4229228994376592,,experiment,emotion,2.0,,,,1667.5619681999997,211,25,male,True
608,61.0,25,M,down,0.7605851000007533,1.4278208268682016,,experiment,emotion,2.0,,,,1670.0952135999996,211,25,male,True
609,67.0,25,M,down,0.6833110999996279,1.6807499084813322,,experiment,emotion,2.0,,,,1672.8284556,211,25,male,True
610,51.0,25,F,down,0.4991489999993064,0.9540784842632832,,experiment,emotion,2.0,,,,1674.761680199999,211,25,male,True
611,61.0,25,M,down,0.366860899999665,1.5829973371849486,,experiment,emotion,2.0,,,,1677.1115998999994,211,25,male,True
612,51.0,25,F,down,0.5946984000001976,0.4784314181380555,,experiment,emotion,2.0,,,,1678.2780678999989,211,25,male,True
613,56.0,25,F,down,0.614777700000559,1.5400069779429812,,experiment,emotion,2.0,,,,1680.6780417999998,211,25,male,True
614,67.0,25,F,up,0.6424220999997488,1.003998776549215,,experiment,emotion,2.0,,,,1682.5614136000004,211,25,male,True
615,61.0,25,M,down,0.5518346999997448,0.8147120231571183,,experiment,emotion,2.0,,,,1684.277993399999,211,25,male,True
616,51.0,25,M,down,0.7858618999998725,0.4174703948846608,,experiment,emotion,2.0,,,,1685.5279675000002,211,25,male,True
617,56.0,25,M,down,0.6209030999998504,0.353541473889039,,experiment,emotion,2.0,,,,1686.9279293,211,25,male,True
618,56.0,25,F,down,0.6232627000008506,1.1195443973017871,,experiment,emotion,2.0,,,,1688.9445056999994,211,25,male,True
619,67.0,25,F,down,0.9690119000006234,1.9827264535411024,,experiment,emotion,2.0,,,,1691.8277675999998,211,25,male,True
620,61.0,25,M,up,1.3007627000006323,1.232973721081677,,experiment,emotion,2.0,,,,1694.3110232,211,25,male,True
621,67.0,25,F,down,1.2969998999997188,1.9440752607301484,,experiment,emotion,2.0,,,,1697.8108401999998,211,25,male,True
622,51.0,25,M,down,0.8055483999996795,1.784196017967412,,experiment,emotion,2.0,,,,1701.1773856,211,25,male,True
623,56.0,25,M,down,1.7814811999996891,1.2208577302144783,,experiment,emotion,2.0,,,,1703.4773134999996,211,25,male,True
624,51.0,25,M,down,1.0292172999998002,1.0216990413764673,,experiment,emotion,2.0,,,,1706.560514499999,211,25,male,True
625,51.0,25,F,down,0.914067100000466,1.5476807855252923,,experiment,emotion,2.0,,,,1709.3937258999997,211,25,male,True
626,67.0,25,F,up,0.7984484999997221,0.7475650466353922,,experiment,emotion,2.0,,,,1711.360339499999,211,25,male,True
627,61.0,25,M,up,1.007890299999417,1.6404202451516594,,experiment,emotion,2.0,,,,1714.0769067,211,25,male,True
628,56.0,25,F,up,0.9036634999993112,1.6841791320213704,,experiment,emotion,2.0,,,,1717.0601052999991,211,25,male,True
629,61.0,25,F,up,0.8735376999993605,1.3547026840325966,,experiment,emotion,2.0,,,,1719.5933007999993,211,25,male,True
630,67.0,25,M,up,1.111550999999963,1.8014400820676404,,experiment,emotion,2.0,,,,1722.543266499999,211,25,male,True
631,56.0,25,M,down,0.9059553000006416,1.540544461109045,,experiment,emotion,2.0,,,,1725.4598308000004,211,25,male,True
632,67.0,25,F,down,0.82704559999911,1.2880201276321983,,experiment,emotion,2.0,,,,1727.909740699999,211,25,male,True
633,61.0,25,M,down,0.8427945000003092,0.5338704618484591,,experiment,emotion,2.0,,,,1729.5430152999998,211,25,male,True
634,51.0,25,F,down,1.4612230000002455,1.988988448517288,,experiment,emotion,2.0,,,,1732.6595746999992,211,25,male,True
635,61.0,25,F,down,0.8540063000000373,1.8634793268708996,,experiment,emotion,2.0,,,,1736.242782199999,211,25,male,True
636,56.0,25,F,down,0.8689116000005015,0.8909823066880103,,experiment,emotion,2.0,,,,1738.2758553999993,211,25,male,True
637,67.0,25,M,up,0.8592070000013337,1.2329363215264275,,experiment,emotion,2.0,,,,1740.6425968000003,211,25,male,True
638,51.0,25,M,down,0.9046075999995082,1.63468557999903,,experiment,emotion,2.0,,,,1743.409162,211,25,male,True
639,61.0,25,F,up,0.7725044999988313,1.200786225231693,,experiment,emotion,2.0,,,,1745.7922684000005,211,25,male,True
640,61.0,25,F,down,2.191179199999169,1.927870399472536,,experiment,emotion,2.0,,,,1748.7756246999998,211,25,male,True
641,51.0,25,M,down,0.9329741000001376,1.4525860506055694,,experiment,emotion,2.0,,,,1752.7088301000003,211,25,male,True
642,67.0,25,M,down,0.8456996999993862,1.00159283173956,,experiment,emotion,2.0,,,,1754.942061899999,211,25,male,True
643,67.0,25,M,up,0.63753270000052,1.5238495652863666,,experiment,emotion,2.0,,,,1757.5752964999992,211,25,male,True
644,56.0,25,M,up,0.6610947999997734,1.4002133779096115,,experiment,emotion,2.0,,,,1759.8917296,211,25,male,True
645,56.0,25,M,up,0.7896233999999822,0.7577190481029588,,experiment,emotion,2.0,,,,1761.5751526999993,211,25,male,True
646,51.0,25,F,down,0.9441502000008768,0.8707816062498852,,experiment,emotion,2.0,,,,1763.4916281000003,211,25,male,True
647,56.0,25,F,up,0.8524619999989227,1.5360543176842336,,experiment,emotion,2.0,,,,1766.2583252000004,211,25,male,True
648,67.0,25,M,down,0.717189299999518,0.8382514655540967,,experiment,emotion,2.0,,,,1768.2415839999994,211,25,male,True
649,61.0,25,F,down,1.55325989999983,1.4559389325221173,,experiment,emotion,2.0,,,,1770.6915253999996,211,25,male,True
650,51.0,25,F,up,0.8571658000000753,1.9732793835421565,,experiment,emotion,2.0,,,,1774.4746854999994,211,25,male,True
651,51.0,25,F,down,1.803214699999444,0.9774598091095964,,experiment,emotion,2.0,,,,1776.5746015999994,211,25,male,True
652,61.0,25,M,up,0.6979480999998486,0.7726475852234568,,experiment,emotion,2.0,,,,1779.4078381,211,25,male,True
653,56.0,25,F,up,0.750318000000334,0.6469211447465025,,experiment,emotion,2.0,,,,1781.024451199999,211,25,male,True
654,67.0,25,F,up,0.6020935000015015,1.364386021308443,,experiment,emotion,2.0,,,,1783.4076929999992,211,25,male,True
655,51.0,25,F,up,0.8345042000000831,0.8041916722755471,,experiment,emotion,2.0,,,,1785.0743036999993,211,25,male,True
656,56.0,25,M,up,0.7722599000007904,0.3387500465562857,,experiment,emotion,2.0,,,,1786.5075684999993,211,25,male,True
657,51.0,25,M,down,0.7985892000015156,0.3744755788550139,,experiment,emotion,2.0,,,,1787.9241796000006,211,25,male,True
658,61.0,25,F,down,0.6073703999991267,0.618982982879808,,experiment,emotion,2.0,,,,1789.6074649000002,211,25,male,True
659,67.0,25,M,up,0.8714216999997006,1.5586431967573573,,experiment,emotion,2.0,,,,1792.0573705000006,211,25,male,True
660,56.0,25,F,down,0.9415124000006472,1.2001749357663525,,experiment,emotion,2.0,,,,1794.4072770999992,211,25,male,True
661,67.0,25,M,down,0.8552448999998887,1.7190622016316883,,experiment,emotion,2.0,,,,1797.3405304999997,211,25,male,True
662,61.0,25,M,down,1.016668500000378,1.4885624667575623,,experiment,emotion,2.0,,,,1799.9570903000003,211,25,male,True
663,0.0771451617883469,25,up,up,0.664000800001304,1.6242082323735814,,experiment,cRDM,3.0,,,,1808.5067808000003,211,25,male,True
664,0.0771451617883469,25,up,up,0.6935451999997895,1.957376895052007,,experiment,cRDM,3.0,,,,1811.3732148,211,25,male,True
665,0.0771451617883469,25,down,down,0.806262300000526,1.9713905540255168,,experiment,cRDM,3.0,,,,1814.3065657000009,211,25,male,True
666,0.0771451617883469,25,down,down,0.9030249000006734,1.85827617051398,,experiment,cRDM,3.0,,,,1817.2397769999989,211,25,male,True
667,0.0771451617883469,25,up,up,1.2083913999995275,0.8964285395393206,,experiment,cRDM,3.0,,,,1819.306389199999,211,25,male,True
668,0.0771451617883469,25,down,down,0.6871508999993239,0.9171589823314608,,experiment,cRDM,3.0,,,,1821.6896302999996,211,25,male,True
669,0.0771451617883469,25,up,up,0.6388870000009774,0.4946422069144344,,experiment,cRDM,3.0,,,,1823.122894799999,211,25,male,True
670,0.0771451617883469,25,up,up,0.6882963000007294,0.8101911802986137,,experiment,cRDM,3.0,,,,1824.839498899999,211,25,male,True
671,0.0771451617883469,25,down,down,0.6177507000011246,1.1624287436926592,,experiment,cRDM,3.0,,,,1826.9561042999997,211,25,male,True
672,0.0771451617883469,25,down,down,0.8307953000003181,1.3780993602783151,,experiment,cRDM,3.0,,,,1829.2060134999992,211,25,male,True
673,0.0771451617883469,25,down,down,0.9561888000007456,0.8275657989154981,,experiment,cRDM,3.0,,,,1831.1225923,211,25,male,True
674,0.0771451617883469,25,down,down,0.7293251000010059,1.1388042404850705,,experiment,cRDM,3.0,,,,1833.4725075999995,211,25,male,True
675,0.0771451617883469,25,down,up,0.9788591000015004,0.3527612722589489,,experiment,cRDM,3.0,,,,1834.8058322,211,25,male,True
676,0.0771451617883469,25,down,down,0.6607897000012599,0.6460296348114903,,experiment,cRDM,3.0,,,,1836.6890026,211,25,male,True
677,0.0771451617883469,25,up,up,0.8338808999997127,1.6824314771433058,,experiment,cRDM,3.0,,,,1839.2889172,211,25,male,True
678,0.0771451617883469,25,up,down,0.928242500000124,1.359744612013651,,experiment,cRDM,3.0,,,,1841.7555360000008,211,25,male,True
679,0.0771451617883469,25,up,down,0.7106729999995878,0.5727355455818177,,experiment,cRDM,3.0,,,,1843.5221433000008,211,25,male,True
680,0.0771451617883469,25,up,up,0.5751103999991756,1.4357314912416574,,experiment,cRDM,3.0,,,,1845.9387112000004,211,25,male,True
681,0.0771451617883469,25,down,down,0.6565069999996922,1.5718472079504078,,experiment,cRDM,3.0,,,,1848.3552793,211,25,male,True
682,0.0771451617883469,25,up,up,0.5735870000007708,1.6411808119060292,,experiment,cRDM,3.0,,,,1850.9052268,211,25,male,True
683,0.0771451617883469,25,up,up,0.593301099999735,0.5927046902620035,,experiment,cRDM,3.0,,,,1852.3384855000004,211,25,male,True
684,0.0771451617883469,25,down,down,0.5353817000013805,0.835879813580503,,experiment,cRDM,3.0,,,,1854.0384218,211,25,male,True
685,0.0771451617883469,25,up,up,0.6597610999997414,1.479161261637432,,experiment,cRDM,3.0,,,,1856.3050258999992,211,25,male,True
686,0.0771451617883469,25,down,down,0.5598558000001503,0.8245114941633069,,experiment,cRDM,3.0,,,,1858.054929100001,211,25,male,True
687,0.0771451617883469,25,down,down,0.6559476000002178,1.1719410361954907,,experiment,cRDM,3.0,,,,1860.0548394,211,25,male,True
688,0.0771451617883469,25,up,up,0.5209599999998318,1.1252318351837451,,experiment,cRDM,3.0,,,,1862.1047978999995,211,25,male,True
689,0.0771451617883469,25,up,down,0.6281314999996539,1.47059162864658,,experiment,cRDM,3.0,,,,1864.3546752,211,25,male,True
690,0.0771451617883469,25,down,down,0.668221399999311,1.6256082520468254,,experiment,cRDM,3.0,,,,1866.8546179000004,211,25,male,True
691,0.0771451617883469,25,up,up,0.4782403999997768,1.7621788944256769,,experiment,cRDM,3.0,,,,1869.5545064,211,25,male,True
692,0.0771451617883469,25,down,down,0.5380435999995825,1.8865132996778664,,experiment,cRDM,3.0,,,,1872.1877662000009,211,25,male,True
693,0.0771451617883469,25,down,down,0.7464383999995334,1.904671792121329,,experiment,cRDM,3.0,,,,1874.9043239,211,25,male,True
694,0.0771451617883469,25,down,down,0.6022279999997409,0.670458364141348,,experiment,cRDM,3.0,,,,1876.5876126000005,211,25,male,True
695,0.0771451617883469,25,up,up,0.5595816999993986,0.8019547832917904,,experiment,cRDM,3.0,,,,1878.2541776,211,25,male,True
696,0.0771451617883469,25,up,up,0.5630037999999331,0.6483864301206346,,experiment,cRDM,3.0,,,,1879.7208181999997,211,25,male,True
697,0.0771451617883469,25,up,up,0.5060460000004241,0.5703163034843048,,experiment,cRDM,3.0,,,,1881.1207584999995,211,25,male,True
698,0.0771451617883469,25,down,up,0.6373439999988477,1.4781421219510296,,experiment,cRDM,3.0,,,,1883.3704388999995,211,25,male,True
699,0.0771451617883469,25,down,down,0.5912239999997837,0.34998150966164,,experiment,cRDM,3.0,,,,1884.6206196000005,211,25,male,True
700,0.0771451617883469,25,up,up,0.4002792999999656,0.8236518753047211,,experiment,cRDM,3.0,,,,1886.3038892999996,211,25,male,True
701,0.0771451617883469,25,down,down,0.5249748999995063,1.1757290564149196,,experiment,cRDM,3.0,,,,1888.1538144999995,211,25,male,True
702,0.0771451617883469,25,up,up,0.4296984000011434,0.901260385709188,,experiment,cRDM,3.0,,,,1889.8370842999996,211,25,male,True
703,0.0771451617883469,25,up,up,0.4210528000003251,0.6565842091481195,,experiment,cRDM,3.0,,,,1891.2037304000005,211,25,male,True
704,0.0771451617883469,25,up,up,0.4601440999995247,0.7686537345796135,,experiment,cRDM,3.0,,,,1892.6536357000005,211,25,male,True
705,0.0771451617883469,25,down,up,0.6106115999991744,0.8999789210011555,,experiment,cRDM,3.0,,,,1894.2701873000003,211,25,male,True
706,0.0771451617883469,25,down,up,0.4367169000015565,1.3218305552934688,,experiment,cRDM,3.0,,,,1896.4700988999996,211,25,male,True
707,0.0771451617883469,25,up,up,0.4876980999997613,1.7531597113932955,,experiment,cRDM,3.0,,,,1898.9200836,211,25,male,True
708,0.0771451617883469,25,down,up,0.4947369000001345,0.4003701880796381,,experiment,cRDM,3.0,,,,1900.070049599999,211,25,male,True
709,0.0771451617883469,25,down,up,0.6224426000007952,1.2264779528548335,,experiment,cRDM,3.0,,,,1902.0533354,211,25,male,True
710,0.0771451617883469,25,up,up,0.6449721999997564,1.8403311886652085,,experiment,cRDM,3.0,,,,1904.7698660000003,211,25,male,True
711,0.0771451617883469,25,up,up,0.9149957000008726,0.7400315864377349,,experiment,cRDM,3.0,,,,1906.4198091,211,25,male,True
712,0.0771451617883469,25,down,down,0.6307096000000456,1.5907237895124124,,experiment,cRDM,3.0,,,,1909.2030823999996,211,25,male,True
713,0.0771451617883469,25,up,up,1.0506058000009943,1.894331981338401,,experiment,cRDM,3.0,,,,1911.9862371999989,211,25,male,True
714,0.0771451617883469,25,down,down,0.6358861999997316,1.2994847846104298,,experiment,cRDM,3.0,,,,1914.6028886000004,211,25,male,True
715,0.0771451617883469,25,down,down,0.668310000000929,0.8309631561001585,,experiment,cRDM,3.0,,,,1916.3194642,211,25,male,True
716,0.0771451617883469,25,down,down,0.5948415000002569,1.0422736699822193,,experiment,cRDM,3.0,,,,1918.2859185,211,25,male,True
717,0.0771451617883469,25,up,up,0.5798537999999098,0.5910921469991439,,experiment,cRDM,3.0,,,,1919.7359959999997,211,25,male,True
718,0.0771451617883469,25,up,up,0.6145781999985047,1.2460024767357696,,experiment,cRDM,3.0,,,,1921.8192404,211,25,male,True
719,0.0771451617883469,25,down,down,0.6866227999998955,1.0603524793149686,,experiment,cRDM,3.0,,,,1923.7691761999995,211,25,male,True
720,0.0771451617883469,25,down,down,0.6533674000002065,1.8717058301382257,,experiment,cRDM,3.0,,,,1926.6024103,211,25,male,True
721,0.0771451617883469,25,up,up,0.5804669999997714,1.5242284579705605,,experiment,cRDM,3.0,,,,1929.052295399999,211,25,male,True
722,0.0771451617883469,25,up,up,0.5682011999997485,0.9368165530583712,,experiment,cRDM,3.0,,,,1930.8355785999995,211,25,male,True
723,0.0771451617883469,25,up,up,0.6895631999996112,1.129292826633464,,experiment,cRDM,3.0,,,,1932.8022157,211,25,male,True
724,0.0771451617883469,25,up,up,0.5747432999996818,1.1936189620403983,,experiment,cRDM,3.0,,,,1934.9521073,211,25,male,True
725,0.0771451617883469,25,up,up,0.5764137000005576,0.6312681206714097,,experiment,cRDM,3.0,,,,1936.4353642000003,211,25,male,True
726,0.0771451617883469,25,down,down,0.6501309000013862,0.4952261099311436,,experiment,cRDM,3.0,,,,1937.7686391000009,211,25,male,True
727,0.0771451617883469,25,down,down,0.7653127000012319,1.9806533740660297,,experiment,cRDM,3.0,,,,1940.6685387,211,25,male,True
728,0.0771451617883469,25,up,up,0.4916324999994685,0.4354240632828657,,experiment,cRDM,3.0,,,,1942.1351705,211,25,male,True
729,0.0771451617883469,25,down,up,0.5483289000003424,0.7725998931918097,,experiment,cRDM,3.0,,,,1943.6684349000009,211,25,male,True
730,0.0771451617883469,25,down,up,0.5428504000010435,1.6062222105791777,,experiment,cRDM,3.0,,,,1946.0849259999995,211,25,male,True
731,0.0771451617883469,25,down,up,0.5870107999999163,1.1821894641973725,,experiment,cRDM,3.0,,,,1948.0847689,211,25,male,True
732,0.0771451617883469,25,up,up,0.5255958999987342,1.72367760452121,,experiment,cRDM,3.0,,,,1950.668192699999,211,25,male,True
733,0.0771451617883469,25,down,down,0.6160337000001164,1.1267673426589735,,experiment,cRDM,3.0,,,,1952.5848066,211,25,male,True
734,0.0771451617883469,25,down,down,0.9230673000001844,0.4740668914979393,,experiment,cRDM,3.0,,,,1953.934728799999,211,25,male,True
735,0.0771451617883469,25,down,down,0.914485399998739,1.8209539783905275,,experiment,cRDM,3.0,,,,1956.951287,211,25,male,True
736,0.0771451617883469,25,up,up,0.3839276999988215,1.8556167457404456,,experiment,cRDM,3.0,,,,1959.9844209000005,211,25,male,True
737,0.0771451617883469,25,up,up,0.485336499999903,1.2600924334679666,,experiment,cRDM,3.0,,,,1961.934439999999,211,25,male,True
738,0.0771451617883469,25,down,down,0.6395984000009776,1.4448875040021287,,experiment,cRDM,3.0,,,,1964.1343672999992,211,25,male,True
739,0.0771451617883469,25,up,up,0.4952855000010459,0.938183405710514,,experiment,cRDM,3.0,,,,1965.9674916000004,211,25,male,True
740,0.0771451617883469,25,down,down,0.4332396000008884,1.192372335974326,,experiment,cRDM,3.0,,,,1967.9175471,211,25,male,True
741,0.0771451617883469,25,up,up,0.3671433999988949,1.7736492138671425,,experiment,cRDM,3.0,,,,1970.400839100001,211,25,male,True
742,0.0771451617883469,25,up,up,0.5493862999992416,1.8385537679831447,,experiment,cRDM,3.0,,,,1972.9173771999997,211,25,male,True
