,stimLvl,stimTime,rand,response,rt,precedingITI,trialNumber,trialType,stimuli,block,estIntens,estThres,estSlope,trialStart,subject,age,gender,headRest
0,150.0,100,F,,,1.3363721457403963,,introTrial,emotion,,,,,278.7741966000176,123,28,female,True
1,0.9,100,down,,,1.7961196053972444,,introTrial,cRDM,,,,,284.5074842000031,123,28,female,True
2,0.9,25,up,up,1.1718229000107383,1.128835603372627,,tutorial,cRDM,,,,,313.18972910000593,123,28,female,True
3,0.9,25,up,up,1.1849166000029072,0.3987785669299831,,tutorial,cRDM,,,,,315.0396566000127,123,28,female,True
4,0.9,25,down,down,0.731669900007546,0.9921570379894846,,tutorial,cRDM,,,,,317.5229094999959,123,28,female,True
5,0.9,25,up,up,0.8833656000206247,0.5728768233552769,,tutorial,cRDM,,,,,319.106205899996,123,28,female,True
6,0.9,25,up,up,0.6756915999867488,0.8958981553101866,,tutorial,cRDM,,,,,321.1558854000177,123,28,female,True
7,0.9,25,down,down,0.7466228000121191,0.3637942333890331,,tutorial,cRDM,,,,,322.4559535000008,123,28,female,True
8,0.9,25,down,down,0.8269253000034951,0.7480683219736095,,tutorial,cRDM,,,,,324.2226495000068,123,28,female,True
9,0.9,25,up,up,0.7159838000079617,1.5183565748483767,,tutorial,cRDM,,,,,326.8225711999985,123,28,female,True
10,0.9,25,down,down,0.7690724999993108,1.750170472720852,,tutorial,cRDM,,,,,329.5724939000211,123,28,female,True
11,0.9,25,down,down,0.7491902000037953,1.5572366893055964,,tutorial,cRDM,,,,,332.17240320000565,123,28,female,True
12,200.0,25,M,up,0.7958402000076603,1.2008960442331829,,tutorial,emotion,,,,,340.7387066000083,123,28,female,True
13,200.0,25,M,up,0.9162243999890052,0.3459388854612004,,tutorial,emotion,,,,,342.15531510001165,123,28,female,True
14,200.0,25,F,up,0.7763966999773402,1.8901014183381035,,tutorial,emotion,,,,,345.2551508000179,123,28,female,True
15,0.0,25,F,down,0.6928910000133328,1.9451993190797063,,tutorial,emotion,,,,,348.27171400000225,123,28,female,True
16,0.0,25,M,down,0.5115189999924041,1.1978579738214268,,tutorial,emotion,,,,,350.4383460000099,123,28,female,True
17,200.0,25,F,up,0.7329270000045653,1.0477906998284714,,tutorial,emotion,,,,,352.2716270000092,123,28,female,True
18,0.0,25,M,down,0.6017432000080589,0.3412673485489955,,tutorial,emotion,,,,,353.65479790000245,123,28,female,True
19,200.0,25,M,up,0.7550495000032242,1.4758111505045304,,tutorial,emotion,,,,,356.02148700002,123,28,female,True
20,0.0,25,F,down,0.6505029999825638,0.8765317816824336,,tutorial,emotion,,,,,357.93806780001614,123,28,female,True
21,0.0,25,F,down,0.6871622999897227,1.0347705661500612,,tutorial,emotion,,,,,359.92137270001695,123,28,female,True
22,0.29,25,up,up,0.888320099998964,0.8833648286788405,,psi_staircase_training,cRDM,,0.25,0.2569312402994632,0.105,368.4541759999993,123,28,female,True
23,0.25,25,up,up,0.6918935000139754,1.2153309143480402,,psi_staircase_training,cRDM,,0.2191026665318312,0.2260132002683492,0.1046863203387393,370.8376299999945,123,28,female,True
24,0.21,25,down,down,0.7207947999995667,1.6678827549854136,,psi_staircase_training,cRDM,,0.1900540959403307,0.1968497961554001,0.1029467298424999,373.4547399000148,123,28,female,True
25,0.18,25,down,down,0.9273115000105464,0.4147857669616784,,psi_staircase_training,cRDM,,0.1635257589279754,0.1701521334256793,0.1003816477568649,374.8541762999957,123,28,female,True
26,0.15,25,up,up,0.6901744999922812,1.4805426472958918,,psi_staircase_training,cRDM,,0.1401895574244936,0.1466013351187503,0.0971307628663642,377.5373718000192,123,28,female,True
27,0.13,25,down,down,0.7858978000003844,0.8534699121123344,,psi_staircase_training,cRDM,,0.1198760602145479,0.1260554767618333,0.0936107694196103,379.3705931000004,123,28,female,True
28,0.11,25,up,up,0.7696181999926921,0.8847707460435337,,psi_staircase_training,cRDM,,0.1025773523696548,0.1084910344569865,0.0895852101993795,381.30390030000126,123,28,female,True
29,0.09,25,down,down,0.7090237000084016,0.8795658827060797,,psi_staircase_training,cRDM,,0.087844325958594,0.0934818215320969,0.0854013148647635,383.2205236000009,123,28,female,True
30,0.08,25,down,up,0.8108936999924481,1.25501338116737,,psi_staircase_training,cRDM,,0.0751852092118086,0.0805556301471181,0.0813554535472043,385.4536406999978,123,28,female,True
31,0.13,25,up,up,0.6981913999770768,1.041472913736983,,psi_staircase_training,cRDM,,0.1145374077699418,0.1210371210567565,0.0984628819128368,387.57034160001785,123,28,female,True
32,0.13,25,down,down,0.7772410000034142,1.2113939574078934,,psi_staircase_training,cRDM,,0.1023941484636293,0.108577482786431,0.0936701190325844,389.770291199995,123,28,female,True
33,0.12,25,down,down,0.8023893999925349,0.9563052797871784,,psi_staircase_training,cRDM,,0.093157405715179,0.098965388034743,0.0879839851464166,391.7701562000148,123,28,female,True
34,0.11,25,down,down,0.6641089000040665,0.8496339967772335,,psi_staircase_training,cRDM,,0.0859226620933624,0.0913701323342403,0.0825226583669993,393.703462400008,123,28,female,True
35,0.1,25,up,up,0.6657099000003655,1.8160983014867271,,psi_staircase_training,cRDM,,0.0799399398670652,0.0850863037356118,0.0779612569830018,396.4698623000004,123,28,female,True
36,0.07,25,up,down,0.7059245999844279,1.5668977045805947,,psi_staircase_training,cRDM,,0.07451104613556,0.0794623136190137,0.0750057801058921,398.9866133000178,123,28,female,True
37,0.11,25,down,down,0.6720767999941017,1.92130005022549,,psi_staircase_training,cRDM,,0.0896428834226063,0.0937565772721719,0.0623175413840191,401.8865064000129,123,28,female,True
38,0.11,25,down,down,0.6908100000000559,1.698656230745539,,psi_staircase_training,cRDM,,0.0859119927864195,0.0896752369977975,0.057008648542352,404.5197326000198,123,28,female,True
39,0.1,25,up,up,0.9049875999917276,1.487490684130931,,psi_staircase_training,cRDM,,0.0833352303876474,0.0867599212806624,0.0518799707167014,406.9695103999984,123,28,female,True
40,0.1,25,up,down,0.9229733000101988,0.3663746650541444,,psi_staircase_training,cRDM,,0.0807852424824082,0.084005249156358,0.0487792496230305,408.5195859000087,123,28,female,True
41,0.13,25,up,up,0.8142966000013985,1.5430059169122965,,psi_staircase_training,cRDM,,0.0917571175698061,0.0962152229178758,0.0675349636317705,411.2692486000015,123,28,female,True
42,0.12,25,up,up,0.67044079999323,0.671019944856734,,psi_staircase_training,cRDM,,0.0894751772405859,0.0935041363531938,0.0610339114713106,413.0360746000079,123,28,female,True
43,0.12,25,down,down,0.6355635999934748,1.949518925028148,,psi_staircase_training,cRDM,,0.0878324113933511,0.0914816237978211,0.0552812030624623,415.9359732000157,123,28,female,True
44,0.1,25,down,up,0.8969539999961853,0.3995286894062559,,psi_staircase_training,cRDM,,0.0868551042008627,0.0901573182671901,0.0500245932883357,417.2525722999999,123,28,female,True
45,0.13,25,down,down,0.7406951000157278,1.3001317091177549,,psi_staircase_training,cRDM,,0.0961417312795656,0.099592509311251,0.0522751596644293,419.7358390000009,123,28,female,True
46,0.13,25,up,up,0.5808216999867,1.4803664634678575,,psi_staircase_training,cRDM,,0.0951018723530009,0.0981857314293031,0.0467167763663893,422.2357418000174,123,28,female,True
47,0.11,25,up,up,0.6506139999837615,0.8595264243194709,,psi_staircase_training,cRDM,,0.0945723363337756,0.0973341024260172,0.0418374529170232,423.9689197000116,123,28,female,True
48,0.11,25,down,down,0.6483231000020169,1.802085994980524,,psi_staircase_training,cRDM,,0.0932192521617813,0.0958381741039651,0.039673534901191,426.7022326000151,123,28,female,True
49,0.1,25,down,down,0.6650786999962293,0.5067841524567462,,psi_staircase_training,cRDM,,0.0921854900925983,0.0946599575912226,0.0374852228648996,428.135515300004,123,28,female,True
50,0.1,25,up,up,0.5697459999937564,0.8379096422535928,,psi_staircase_training,cRDM,,0.0900869561236028,0.0926344918754101,0.0385921195028367,429.9187887000153,123,28,female,True
51,0.1,25,up,down,0.589174799999455,1.2297642080069413,,psi_staircase_training,cRDM,,0.0881510835327507,0.090749050301669,0.0393560890909436,431.98537559999386,123,28,female,True
52,100.0,25,M,up,1.2007021000026723,0.5769822375655129,,psi_staircase_training,emotion,,100.0,100.0,25.00050000000001,437.40185379999457,123,28,female,True
53,55.0,25,M,down,1.318083900026977,0.7149612185165786,,psi_staircase_training,emotion,,54.7428094675419,54.7428094675419,25.00050000000011,439.6684189999942,123,28,female,True
54,79.0,25,F,up,0.9955584999988788,1.5514538568430882,,psi_staircase_training,emotion,,79.636070985635,79.636070985635,25.713269254886413,442.8849738000136,123,28,female,True
55,63.0,25,F,down,0.9110532000195236,1.7711657611582532,,psi_staircase_training,emotion,,62.16401670338348,62.16401670338348,25.292325986283885,446.0015448000049,123,28,female,True
56,73.0,25,M,down,0.9264374000194948,1.498195921066637,,psi_staircase_training,emotion,,73.53930944190891,73.53930944190891,23.64975108561003,448.7680901999993,123,28,female,True
57,87.0,25,F,down,1.0175249000021722,0.4054339863703231,,psi_staircase_training,emotion,,82.48355301883353,82.48355301883353,24.57617413513036,450.46803550000186,123,28,female,True
58,106.0,25,M,down,0.8445721000025515,1.0399809298788842,,psi_staircase_training,emotion,,93.47321971198342,93.47321971198342,30.11570117720217,452.86795840002014,123,28,female,True
59,122.0,25,F,up,1.1786682000092696,1.2541914406296355,,psi_staircase_training,emotion,,106.38438652375147,106.38438652375147,35.11755585279654,455.3178558000072,123,28,female,True
60,117.0,25,F,up,0.6790610999742057,0.737520745036529,,psi_staircase_training,emotion,,99.83666875700578,99.83666875700578,33.624951265145846,457.5844270999951,123,28,female,True
61,113.0,25,M,up,1.257832800009055,0.6516520874135827,,psi_staircase_training,emotion,,95.38058249628054,95.38058249628054,32.2167824305347,459.2677105000184,123,28,female,True
62,74.0,25,F,up,0.7868965000088792,0.8226883672516154,,psi_staircase_training,emotion,,91.93529307222585,91.93529307222585,30.97015401731504,461.71762260000105,123,28,female,True
63,63.0,25,F,down,0.8023490000050515,0.7334704557451321,,psi_staircase_training,emotion,,84.72792118176237,84.72792118176237,33.9515798176358,463.5842039000127,123,28,female,True
64,108.0,25,F,up,1.0367174000130035,0.6583828425176741,,psi_staircase_training,emotion,,87.35604541180885,87.35604541180885,32.92174047397776,465.40081640001154,123,28,female,True
65,62.0,25,M,down,0.8072976999974344,0.4763202707922341,,psi_staircase_training,emotion,,85.00557424497923,85.00557424497923,31.92506492630164,467.267210799997,123,28,female,True
66,109.0,25,M,up,0.8689358999836259,1.3836768118160936,,psi_staircase_training,emotion,,86.9912321228733,86.9912321228733,30.81695167592828,469.8006259000104,123,28,female,True
67,62.0,25,F,down,1.200880699994741,0.3939479677350871,,psi_staircase_training,emotion,,85.1987428348433,85.1987428348433,29.73697316241648,471.4005979000067,123,28,female,True
68,109.0,25,F,up,0.9624127999995836,1.473868786126863,,psi_staircase_training,emotion,,86.75508720893711,86.75508720893711,28.59221451798745,474.4171386999951,123,28,female,True
69,62.0,25,M,down,0.8090730999829248,0.5866916111889481,,psi_staircase_training,emotion,,85.32943759939606,85.32943759939606,27.480452953477908,476.300476400007,123,28,female,True
70,107.0,25,M,up,0.9516227999993134,1.2003184028261242,,psi_staircase_training,emotion,,86.5510707383219,86.5510707383219,26.34907931626513,478.6669289999991,123,28,female,True
71,63.0,25,M,down,0.8283364000089932,1.727993379886644,,psi_staircase_training,emotion,,85.31236645244864,85.31236645244864,25.24434681460781,481.7002153999929,123,28,female,True
72,105.0,25,M,up,1.6194223999918904,1.060328262342377,,psi_staircase_training,emotion,,86.3137219432268,86.3137219432268,24.160773088325968,483.9501056000008,123,28,female,True
73,64.0,25,F,down,0.6017156000016257,1.2843703671584403,,psi_staircase_training,emotion,,85.21562658999291,85.21562658999291,23.10031629871592,487.2000029000046,123,28,female,True
74,102.0,25,F,up,0.9835798999993132,0.6943006921914945,,psi_staircase_training,emotion,,86.0426523806583,86.0426523806583,22.098179058584066,488.8499249000161,123,28,female,True
75,98.0,25,F,up,1.020405400020536,1.372162364962857,,psi_staircase_training,emotion,,84.99355555358349,84.99355555358349,21.106102506041296,491.5831859000027,123,28,female,True
76,94.0,25,M,up,1.0534177999943497,1.0254004458502093,,psi_staircase_training,emotion,,83.90488859988706,83.90488859988706,20.209311338502797,493.9831107000064,123,28,female,True
77,65.0,25,M,down,0.6279121999978088,1.760734638458942,,psi_staircase_training,emotion,,82.73831567194293,82.73831567194293,19.41103142932564,497.1496379000018,123,28,female,True
78,91.0,25,F,up,0.8336772000184283,1.3265026895108605,,psi_staircase_training,emotion,,83.41712713581455,83.41712713581455,18.474310666722545,499.449827000004,123,28,female,True
79,89.0,25,F,up,0.601770100009162,1.8967732243746545,,psi_staircase_training,emotion,,82.20639078659751,82.20639078659751,17.701781900857537,502.5327830000024,123,28,female,True
80,88.0,25,M,up,0.7738455999933649,0.8412917234496717,,psi_staircase_training,emotion,,81.01296518286553,81.01296518286553,16.92007709983338,504.33271000001696,123,28,female,True
81,86.0,25,M,up,1.0252685000014026,1.731995005306668,,psi_staircase_training,emotion,,79.90237214101279,79.90237214101279,16.079389436664425,507.1992740000133,123,28,female,True
82,0.29,25,up,up,0.8154090000025462,0.5653254962619084,,psi_staircase,cRDM,,0.25,0.2569312402994632,0.105,530.7651163999981,123,28,female,True
83,0.25,25,up,up,0.7465216000273358,1.3863441919784818,,psi_staircase,cRDM,,0.2191026665318312,0.2260132002683492,0.1046863203387393,533.2149914000183,123,28,female,True
84,0.21,25,down,down,0.7703181999968365,1.5785505028914355,,psi_staircase,cRDM,,0.1900540959403307,0.1968497961554001,0.1029467298424999,535.7982295000111,123,28,female,True
85,0.18,25,down,down,0.7927534000191372,1.6764227610949936,,psi_staircase,cRDM,,0.1635257589279754,0.1701521334256793,0.1003816477568649,538.5147876999981,123,28,female,True
86,0.15,25,up,up,0.7345799000177067,1.3693186073596109,,psi_staircase,cRDM,,0.1401895574244936,0.1466013351187503,0.0971307628663642,540.9479601000203,123,28,female,True
87,0.13,25,down,down,0.8739194000081625,1.3677373118047538,,psi_staircase,cRDM,,0.1198760602145479,0.1260554767618333,0.0936107694196103,543.3146164000209,123,28,female,True
88,0.11,25,up,up,0.8273093000170775,0.9740353100567718,,psi_staircase,cRDM,,0.1025773523696548,0.1084910344569865,0.0895852101993795,545.4312040999939,123,28,female,True
89,0.09,25,down,down,0.6944485999993049,1.2236698523870528,,psi_staircase,cRDM,,0.087844325958594,0.0934818215320969,0.0854013148647635,547.7480899000075,123,28,female,True
90,0.08,25,down,down,0.8421782999939751,1.55956106184773,,psi_staircase,cRDM,,0.0751852092118086,0.0805556301471181,0.0813554535472043,550.2643682000053,123,28,female,True
91,0.06,25,up,up,0.9695461000083014,0.8648372787190584,,psi_staircase,cRDM,,0.0644790391168514,0.0695422244606275,0.0767012018235253,552.2309720000194,123,28,female,True
92,0.06,25,down,down,0.730624199990416,0.5648992182314593,,psi_staircase,cRDM,,0.055125276742187,0.0599443659720746,0.0730034376643068,554.0308961000119,123,28,female,True
93,0.05,25,down,up,0.9191616999742108,0.52626292653339,,psi_staircase,cRDM,,0.0472535008492138,0.0517268983012455,0.0677666207157333,555.5473511000164,123,28,female,True
94,0.09,25,down,down,0.7382316000002902,1.4037624993984112,,psi_staircase,cRDM,,0.0734913327782013,0.0792442671536033,0.0871500746358451,558.1473221000051,123,28,female,True
95,0.09,25,up,up,0.7653541999752633,1.7909564850261517,,psi_staircase,cRDM,,0.0661247612563512,0.0714810063651105,0.08114070673084,560.9472417000216,123,28,female,True
96,0.08,25,up,down,0.7982515000039712,1.1106532246879588,,psi_staircase,cRDM,,0.0605965081260879,0.0655199986192786,0.0745849919277874,563.0972575000196,123,28,female,True
97,0.11,25,down,down,0.7036478999943938,0.5957560958300774,,psi_staircase,cRDM,,0.0837565578876527,0.090741642714422,0.1058156801846231,564.7638644000108,123,28,female,True
98,0.11,25,down,down,0.7127381000027526,0.6335126326781741,,psi_staircase,cRDM,,0.0766821363085481,0.0833225878055765,0.1005948974589686,566.3637835000118,123,28,female,True
99,0.11,25,up,up,0.7647892000095453,0.923668445978142,,psi_staircase,cRDM,,0.0713552074388595,0.0776098671835797,0.094750613861487,568.2637225000071,123,28,female,True
100,0.11,25,up,up,0.9762133999902288,1.2896907632305117,,psi_staircase,cRDM,,0.0674563525951911,0.07330466616299,0.088594955316502,570.5802985000191,123,28,female,True
101,0.07,25,up,down,0.940352100005839,0.8180383687105,,psi_staircase,cRDM,,0.0646895354351271,0.0701265952988585,0.0823649536052013,572.6301999000134,123,28,female,True
102,0.11,25,up,up,0.9540804999996908,1.8734275259177475,,psi_staircase,cRDM,,0.077833162441641,0.0827628679752115,0.0746791423556603,575.713427700015,123,28,female,True
103,0.11,25,down,down,0.8731861000123899,1.8780892584511517,,psi_staircase,cRDM,,0.0753643710743072,0.0798614196626347,0.068124907141216,578.8133052000194,123,28,female,True
104,0.11,25,down,down,0.7673331999976654,0.9249396156549294,,psi_staircase,cRDM,,0.0737700220999695,0.0778571140334753,0.061914554174574,580.863167500007,123,28,female,True
105,0.09,25,down,down,0.5844090000027791,1.7693778986594086,,psi_staircase,cRDM,,0.0728213914762565,0.0765278024955874,0.0561476936616794,583.6631191000051,123,28,female,True
106,0.09,25,up,down,0.6921132999996189,1.1392563284068704,,psi_staircase,cRDM,,0.0708158391010976,0.0743767408178945,0.053943401773652,585.6463915000204,123,28,female,True
107,0.12,25,up,down,0.9682155000045896,1.2415676447715012,,psi_staircase,cRDM,,0.0786565148390286,0.0830643557252911,0.0667735171572976,587.8463111000019,123,28,female,True
108,0.13,25,down,down,0.7406525000114925,1.8875417195153807,,psi_staircase,cRDM,,0.0865522761365783,0.094680571358818,0.1231339502687948,590.9628986000025,123,28,female,True
109,0.12,25,down,down,0.6774055000278167,0.5888394020433889,,psi_staircase,cRDM,,0.0819232436339471,0.089737005145957,0.1183691407762291,592.546079599997,123,28,female,True
110,0.12,25,up,down,1.127036300022155,0.6891856443622422,,psi_staircase,cRDM,,0.0781366515436931,0.0856158924138818,0.1133015531766553,594.1794549000042,123,28,female,True
111,0.15,25,up,up,0.8278559999889694,1.647676442500195,,psi_staircase,cRDM,,0.0932218377327832,0.1025405909799745,0.1411679654261674,597.212640200014,123,28,female,True
112,0.15,25,down,down,0.7103248000203166,1.3633704035154055,,psi_staircase,cRDM,,0.0879922890496798,0.0971428643653444,0.1386202709231105,599.6791794000019,123,28,female,True
113,0.14,25,up,up,0.7943422000098508,1.0356122694760357,,psi_staircase,cRDM,,0.0835994360591439,0.0925645037433061,0.1358100521936782,601.6791520999977,123,28,female,True
114,0.14,25,down,down,0.5731292999989819,1.5733499781544005,,psi_staircase,cRDM,,0.0797410513728775,0.0885133444592192,0.1328897476166285,604.3123947000131,123,28,female,True
115,0.14,25,up,down,1.0024741000088395,0.6682291310695756,,psi_staircase,cRDM,,0.0764853391993148,0.0850495882314486,0.1297381290392837,605.8289884999976,123,28,female,True
116,0.19,25,down,down,0.6574849000026006,1.9614501689249493,,psi_staircase,cRDM,,0.0908249306296108,0.100550438890025,0.1473298173521081,609.0620213999937,123,28,female,True
117,0.18,25,up,down,0.9611703999980818,0.8533019335296161,,psi_staircase,cRDM,,0.0871412264931522,0.0967286984546279,0.1452387325300067,610.8453367000038,123,28,female,True
118,0.23,25,down,down,0.5901486999937333,1.9322783350087664,,psi_staircase,cRDM,,0.1067653448950626,0.1171609772673516,0.1574813961037917,613.9953545000171,123,28,female,True
119,0.23,25,up,up,0.696847399987746,0.3271360485209122,,psi_staircase,cRDM,,0.1026139406529747,0.1128929494692746,0.1557146887253452,615.1786546999938,123,28,female,True
120,0.22,25,up,up,0.8515647999884095,0.5674922708220345,,psi_staircase,cRDM,,0.0990471952900671,0.1092078235132971,0.1539213643367352,616.7119180000154,123,28,female,True
121,0.21,25,down,down,0.6583737999899313,1.3357786709342785,,psi_staircase,cRDM,,0.0957713201551004,0.1058153292341478,0.1521547237918791,619.1451294000144,123,28,female,True
122,0.21,25,down,down,0.6947723999910522,1.5400265326357054,,psi_staircase,cRDM,,0.0927100675494426,0.1026409127026331,0.1504404256718304,621.6117524000001,123,28,female,True
123,0.17,25,down,down,0.6792120000172872,1.5594788894705545,,psi_staircase,cRDM,,0.0899839699702949,0.0998017621691834,0.1487278086381049,624.1283209999965,123,28,female,True
124,0.18,25,up,up,2.137302300019656,1.5966111282476645,,psi_staircase,cRDM,,0.0867993702324271,0.0965340850321369,0.1474692854103876,626.6782307999965,123,28,female,True
125,0.17,25,up,up,0.6944387000112329,1.5566311201068042,,psi_staircase,cRDM,,0.0840893845542308,0.0937276080744543,0.1460075579405076,630.6280848000024,123,28,female,True
126,0.17,25,down,down,0.5722221000178251,1.908590662081924,,psi_staircase,cRDM,,0.0814572756681429,0.0910042453559873,0.1446251715297312,633.5113046000188,123,28,female,True
127,0.17,25,down,down,0.5049987000238616,1.5583636690209652,,psi_staircase,cRDM,,0.0790530633591203,0.0885056579246957,0.1431955013105349,635.8945452000189,123,28,female,True
128,0.17,25,down,down,0.6586944000155199,1.911836130861449,,psi_staircase,cRDM,,0.0768500688095694,0.0862058216044425,0.1417284643179579,638.5777880999958,123,28,female,True
129,0.17,25,up,up,0.6894674000213854,0.9534053876083556,,psi_staircase,cRDM,,0.0748267611080615,0.0840836383745119,0.140230618328519,640.4610673999996,123,28,female,True
130,0.12,25,up,up,0.6922085999976844,1.4996905871580577,,psi_staircase,cRDM,,0.0729655197764173,0.0821217802607927,0.1387063944289828,642.8942911000049,123,28,female,True
131,0.13,25,up,up,1.0570159000053536,1.8966546664828847,,psi_staircase,cRDM,,0.0703214634965315,0.0794478712888226,0.1382541618510565,645.7444622000039,123,28,female,True
132,100.0,25,M,down,1.5463929999968968,1.0012717634661932,,psi_staircase,emotion,,100.0,100.0,25.00050000000001,665.6601401999942,123,28,female,True
133,145.0,25,M,up,0.8048229000123683,0.5232843703782475,,psi_staircase,emotion,,145.25719053245996,145.25719053245996,25.00050000000028,668.0766994000005,123,28,female,True
134,121.0,25,F,up,0.8986252000031527,0.8776075625701194,,psi_staircase,emotion,,120.36392901436103,120.36392901436103,25.71326925488699,670.1099493000074,123,28,female,True
135,97.0,25,F,down,0.9195627000008244,0.4081751204227235,,psi_staircase,emotion,,102.3887610608496,102.3887610608496,26.14633372628729,671.7599049000128,123,28,female,True
136,113.0,25,M,up,0.8434067999769468,0.8290213100782824,,psi_staircase,emotion,,114.01123255420406,114.01123255420406,23.00305641778335,673.8430727999948,123,28,female,True
137,105.0,25,F,up,0.7770759999984875,0.3424198228437535,,psi_staircase,emotion,,104.94359593877375,104.94359593877375,22.15060322358215,675.3764211999951,123,28,female,True
138,92.0,25,M,up,0.7261519999883603,0.7091881328870743,,psi_staircase,emotion,,97.32104229908208,97.32104229908208,23.93307361449055,677.2263418000075,123,28,female,True
139,74.0,25,F,down,0.6829378000111319,1.8536952565651756,,psi_staircase,emotion,,86.47781129474322,86.47781129474322,31.611106717664093,680.1595876000065,123,28,female,True
140,78.0,25,F,up,0.8663633000105619,0.9333030672861736,,psi_staircase,emotion,,92.62262149239127,92.62262149239127,29.23899594163133,682.1261774000013,123,28,female,True
141,65.0,25,M,down,0.6831031999900006,1.6527731319624002,,psi_staircase,emotion,,83.10936065474064,83.10936065474064,34.34822523845509,685.0094092000218,123,28,female,True
142,67.0,25,F,down,0.6701763000164647,0.3210672811366885,,psi_staircase,emotion,,87.25267932269846,87.25267932269846,32.86571990059022,686.3593487000035,123,28,female,True
143,69.0,25,F,down,0.8115528999769595,0.954642579682098,,psi_staircase,emotion,,90.33036431892236,90.33036431892236,31.512600117184448,688.3259341999947,123,28,female,True
144,114.0,25,F,up,0.7750752000138164,1.1530731857205396,,psi_staircase,emotion,,92.73585259542102,92.73585259542102,30.273590594688407,690.6424412000051,123,28,female,True
145,69.0,25,M,down,1.219726699986495,1.9749437367100209,,psi_staircase,emotion,,90.66320510653208,90.66320510653208,29.02776937637876,693.725754700019,123,28,female,True
146,114.0,25,M,down,0.9852114999957848,1.5033660730588512,,psi_staircase,emotion,,92.47733684558484,92.47733684558484,27.73227538975469,696.7923139000195,123,28,female,True
147,123.0,25,F,up,0.8345221999916248,0.5809037255285112,,psi_staircase,emotion,,98.1030532334718,98.1030532334718,32.3188259570226,698.7089167000086,123,28,female,True
148,122.0,25,F,up,0.6170753999904264,0.6476670203410538,,psi_staircase,emotion,,96.42353966397346,96.42353966397346,31.27032780364454,700.5254839000117,123,28,female,True
149,71.0,25,M,down,0.76969950000057,1.016296610753467,,psi_staircase,emotion,,95.02554549762796,95.02554549762796,30.284001026871927,702.5087612000061,123,28,female,True
150,122.0,25,M,up,0.7808375000022352,1.5051899395666593,,psi_staircase,emotion,,96.4306353605746,96.4306353605746,29.210028416589083,705.1086681000015,123,28,female,True
151,72.0,25,M,down,0.5888453000225127,0.6600780476993999,,psi_staircase,emotion,,95.3032694539066,95.3032694539066,28.2093339959536,706.9086127000046,123,28,female,True
152,73.0,25,M,down,1.8232891999941785,0.7828943763965157,,psi_staircase,emotion,,96.48273711599856,96.48273711599856,27.139492304130822,708.625196500012,123,28,female,True
153,121.0,25,F,up,0.7943852999887895,0.5407833730266444,,psi_staircase,emotion,,97.47965744704834,97.47965744704834,26.148955207133096,711.3250854999933,123,28,female,True
154,74.0,25,F,down,0.9081421000009868,1.1947193758431305,,psi_staircase,emotion,,96.5319659160112,96.5319659160112,25.125883278697977,713.6583728000114,123,28,female,True
155,120.0,25,F,up,0.6475906999839935,1.4656506312532536,,psi_staircase,emotion,,97.38300388590903,97.38300388590903,24.182908111382204,716.3748957000207,123,28,female,True
156,76.0,25,M,down,0.8189658999908715,0.819709221136955,,psi_staircase,emotion,,96.58054248448632,96.58054248448632,23.2335358255003,718.1915228000144,123,28,female,True
157,118.0,25,M,up,0.6087332000024617,1.1610888354017972,,psi_staircase,emotion,,97.35502581215484,97.35502581215484,22.35663780198069,720.5247671999969,123,28,female,True
158,78.0,25,F,down,0.7498543999972753,0.7528797902766302,,psi_staircase,emotion,,96.63282064198712,96.63282064198712,21.48939633901706,722.2247056000051,123,28,female,True
159,117.0,25,F,up,0.7112387999950442,1.3655473709209731,,psi_staircase,emotion,,97.35358741079251,97.35358741079251,20.691467626078897,724.6912829000212,123,28,female,True
160,80.0,25,M,down,0.7063489999854937,1.5766128316011028,,psi_staircase,emotion,,96.72555039598151,96.72555039598151,19.922529230252294,727.3411651000206,123,28,female,True
161,115.0,25,M,up,0.582752900023479,1.2109325029541835,,psi_staircase,emotion,,97.41150568437531,97.41150568437531,19.20629810340715,729.6077622000012,123,28,female,True
162,83.0,25,F,down,0.7344653000182007,0.6443617603908938,,psi_staircase,emotion,,96.82018185230136,96.82018185230136,18.5271926279777,731.1910545999999,123,28,female,True
163,85.0,25,M,down,0.7645745000045281,1.0698074102891773,,psi_staircase,emotion,,97.53260705713602,97.53260705713602,17.888685503158094,733.3409495000087,123,28,female,True
164,113.0,25,F,up,0.6833516000187956,1.5794047537199127,,psi_staircase,emotion,,98.23976217791711,98.23976217791711,17.30636873017974,736.0241333000013,123,28,female,True
165,87.0,25,M,down,0.8007876999909058,1.4936341372411088,,psi_staircase,emotion,,97.66967977417472,97.66967977417472,16.719642733060294,738.540693100018,123,28,female,True
166,89.0,25,F,down,0.7521304999827407,1.2074783557710589,,psi_staircase,emotion,,98.38558193039437,98.38558193039437,16.191324656108502,740.9073530000169,123,28,female,True
167,90.0,25,M,down,0.7459019999951124,1.2796503804962407,,psi_staircase,emotion,,99.11730525242125,99.11730525242125,15.69911637046199,743.2905916000018,123,28,female,True
168,92.0,25,F,up,0.9679793000104836,1.4278392088419378,,psi_staircase,emotion,,99.81853466440975,99.81853466440975,15.219174457562293,745.7904936000123,123,28,female,True
169,113.0,25,M,up,0.6717743999906816,1.8349991983652767,,psi_staircase,emotion,,98.1209277540371,98.1209277540371,16.286677218321508,748.9237278999935,123,28,female,True
170,112.0,25,M,up,1.195822899986524,1.0220947361697954,,psi_staircase,emotion,,97.6694756231782,97.6694756231782,15.76159410159958,750.973667400016,123,28,female,True
171,111.0,25,F,up,0.9838189000147396,0.7087570752472898,,psi_staircase,emotion,,97.2491811213944,97.2491811213944,15.28847926467339,753.2236672000145,123,28,female,True
172,84.0,25,F,down,0.7640006000001449,1.0165592913303632,,psi_staircase,emotion,,96.85162692377608,96.85162692377608,14.858720079291992,755.5734793000156,123,28,female,True
173,109.0,25,F,up,0.8101269000035245,1.9781974857322664,,psi_staircase,emotion,,97.2499057384567,97.2499057384567,14.455639785322964,758.6733490000188,123,28,female,True
174,85.0,25,M,down,1.0078352999989877,0.3264195418031416,,psi_staircase,emotion,,96.83527313424928,96.83527313424928,14.06932467762828,760.1566687000159,123,28,female,True
175,108.0,25,M,up,0.7092751000018325,1.3148348192204065,,psi_staircase,emotion,,97.22210099802052,97.22210099802052,13.701189299612452,762.823218400008,123,28,female,True
176,86.0,25,F,down,0.7217178999853786,0.7772435872159106,,psi_staircase,emotion,,96.81905365783892,96.81905365783892,13.348586998297051,764.639763300016,123,28,female,True
177,107.0,25,F,down,0.8087286000081804,0.7623622564997432,,psi_staircase,emotion,,97.19814296513783,97.19814296513783,13.006920543122964,766.4897621000127,123,28,female,True
178,86.0,25,F,down,0.6185426999873016,0.8590760306700167,,psi_staircase,emotion,,98.54430965672584,98.54430965672584,14.121658864911964,768.5063248999941,123,28,female,True
179,87.0,25,M,down,0.6469496000208892,1.7638180404740151,,psi_staircase,emotion,,98.8706861567134,98.8706861567134,13.781095597451234,771.2395688999968,123,28,female,True
180,88.0,25,M,down,0.5710083000012673,1.1459645621654009,,psi_staircase,emotion,,99.19455424442036,99.19455424442036,13.458278873876411,773.3894828000048,123,28,female,True
181,89.0,25,M,down,0.707040200009942,0.4793377156867863,,psi_staircase,emotion,,99.5181528540761,99.5181528540761,13.150650679598288,774.7894442999968,123,28,female,True
182,0.0680737805537525,25,down,down,0.8106413999921642,0.6865473475591173,,experiment,cRDM,0.0,,,,782.5058336000075,123,28,female,True
183,0.0680737805537525,25,up,up,1.2324184000026437,1.3158280277837615,,experiment,cRDM,0.0,,,,784.8890607000212,123,28,female,True
184,0.0680737805537525,25,down,down,0.9942058000015096,1.7807191567035807,,experiment,cRDM,0.0,,,,788.1723069,123,28,female,True
185,0.0680737805537525,25,up,down,1.070631400012644,0.4547886859711346,,experiment,cRDM,0.0,,,,789.8888781999995,123,28,female,True
186,0.0680737805537525,25,down,down,0.8657032999908552,1.3627166137053954,,experiment,cRDM,0.0,,,,792.5888088000065,123,28,female,True
187,0.0680737805537525,25,down,down,0.8990809999813791,1.6284391846659352,,experiment,cRDM,0.0,,,,795.3553794000181,123,28,female,True
188,0.0680737805537525,25,up,up,0.9279346000112128,0.9153240708163248,,experiment,cRDM,0.0,,,,797.4385586999997,123,28,female,True
189,0.0680737805537525,25,down,up,0.924589600006584,0.3888029004783828,,experiment,cRDM,0.0,,,,799.021906000009,123,28,female,True
190,0.0680737805537525,25,up,down,1.480364399991231,1.850358185592744,,experiment,cRDM,0.0,,,,802.0551102000172,123,28,female,True
191,0.0680737805537525,25,up,up,0.7833419000089634,0.7369594654852885,,experiment,cRDM,0.0,,,,804.5383759000106,123,28,female,True
192,0.0680737805537525,25,down,down,0.8511913999973331,0.7998520096336044,,experiment,cRDM,0.0,,,,806.3882786000031,123,28,female,True
193,0.0680737805537525,25,up,up,0.961573300010059,0.455408782905332,,experiment,cRDM,0.0,,,,807.9548979999963,123,28,female,True
194,0.0680737805537525,25,up,up,0.9552716000180226,0.525400917319703,,experiment,cRDM,0.0,,,,809.6881558000168,123,28,female,True
195,0.0680737805537525,25,up,up,0.8560732999758329,0.9100935784373504,,experiment,cRDM,0.0,,,,811.8213998000138,123,28,female,True
196,0.0680737805537525,25,down,down,0.8941128999867942,0.4295653859958397,,experiment,cRDM,0.0,,,,813.3713592000131,123,28,female,True
197,0.0680737805537525,25,down,up,0.7778612999827601,1.1275361190267357,,experiment,cRDM,0.0,,,,815.6546436000208,123,28,female,True
198,0.0680737805537525,25,up,down,0.9353170999966096,1.2810342359967457,,experiment,cRDM,0.0,,,,817.9711801999947,123,28,female,True
199,0.0680737805537525,25,up,down,0.9047117000154684,1.5363920638241453,,experiment,cRDM,0.0,,,,820.6877595999977,123,28,female,True
200,0.0680737805537525,25,down,down,1.3691071000066586,1.077943839233681,,experiment,cRDM,0.0,,,,822.9543678000045,123,28,female,True
201,0.0680737805537525,25,down,down,0.7678963999787811,1.5351283360072463,,experiment,cRDM,0.0,,,,826.1376035000139,123,28,female,True
202,0.0680737805537525,25,up,down,0.7286905999935698,1.8117559766070783,,experiment,cRDM,0.0,,,,828.9708078000112,123,28,female,True
203,0.0680737805537525,25,down,down,0.7250590000185184,0.5309086439160259,,experiment,cRDM,0.0,,,,830.4873903999978,123,28,female,True
204,0.0680737805537525,25,up,down,0.8983805000025313,0.3821197794619525,,experiment,cRDM,0.0,,,,831.8540319000022,123,28,female,True
205,0.0680737805537525,25,down,up,1.1864592999918386,1.0251034664308123,,experiment,cRDM,0.0,,,,834.0539578000025,123,28,female,True
206,0.0680737805537525,25,down,down,0.7560001999954693,1.9635602122432576,,experiment,cRDM,0.0,,,,837.4704720000154,123,28,female,True
207,0.0680737805537525,25,up,down,0.7755321999720763,0.5487608579910046,,experiment,cRDM,0.0,,,,839.0369326000218,123,28,female,True
208,0.0680737805537525,25,up,down,0.6826381999999285,1.6481675818818633,,experiment,cRDM,0.0,,,,841.7367813000164,123,28,female,True
209,0.0680737805537525,25,down,down,0.6996703000040725,0.5646628994486604,,experiment,cRDM,0.0,,,,843.2367784999951,123,28,female,True
210,0.0680737805537525,25,up,down,0.6919211999920662,1.7563563725819284,,experiment,cRDM,0.0,,,,845.9535396000138,123,28,female,True
211,0.0680737805537525,25,down,down,0.7161123999976553,1.894406167514426,,experiment,cRDM,0.0,,,,848.8033626000106,123,28,female,True
212,0.0680737805537525,25,up,down,0.6634859000041615,0.685110734688436,,experiment,cRDM,0.0,,,,850.4700078000023,123,28,female,True
213,0.0680737805537525,25,down,down,0.5278812000178732,1.3028134227569137,,experiment,cRDM,0.0,,,,852.6865982000018,123,28,female,True
214,0.0680737805537525,25,up,down,0.6557352999807335,1.6008439169039226,,experiment,cRDM,0.0,,,,855.0698324000114,123,28,female,True
215,0.0680737805537525,25,down,down,0.672730699996464,1.3760979779860605,,experiment,cRDM,0.0,,,,857.3697324999957,123,28,female,True
216,0.0680737805537525,25,up,down,0.7837896000128239,1.5473795086574202,,experiment,cRDM,0.0,,,,859.8696679999994,123,28,female,True
217,0.0680737805537525,25,down,down,0.9755592999863438,0.7928006799911016,,experiment,cRDM,0.0,,,,861.7029083000089,123,28,female,True
218,0.0680737805537525,25,up,up,0.8676026999892201,1.3659748872740445,,experiment,cRDM,0.0,,,,864.3028391000116,123,28,female,True
219,0.0680737805537525,25,down,down,0.8617382999800611,1.715445045248022,,experiment,cRDM,0.0,,,,867.1527318000153,123,28,female,True
220,0.0680737805537525,25,up,up,1.3305043999862392,1.2061135656361015,,experiment,cRDM,0.0,,,,869.4859589000116,123,28,female,True
221,0.0680737805537525,25,down,down,1.039893100009067,0.4707446172141102,,experiment,cRDM,0.0,,,,871.5525774999987,123,28,female,True
222,0.0680737805537525,25,down,down,0.9327004000078888,1.240239111530556,,experiment,cRDM,0.0,,,,874.0857804999978,123,28,female,True
223,0.0680737805537525,25,up,down,0.8388328999863006,0.9625154715669187,,experiment,cRDM,0.0,,,,876.2356674000039,123,28,female,True
224,0.0680737805537525,25,down,down,0.8591568999981973,1.2252030463405583,,experiment,cRDM,0.0,,,,878.5523015999934,123,28,female,True
225,0.0680737805537525,25,up,down,1.179999299987685,1.9536747051547017,,experiment,cRDM,0.0,,,,881.6354216000182,123,28,female,True
226,0.0680737805537525,25,up,up,1.2691954000038097,1.5594978232887144,,experiment,cRDM,0.0,,,,884.6352686000173,123,28,female,True
227,0.0680737805537525,25,down,down,1.155144799995469,0.4312154742736688,,experiment,cRDM,0.0,,,,886.5853177999961,123,28,female,True
228,0.0680737805537525,25,down,down,0.8469242999854032,1.4248109367194444,,experiment,cRDM,0.0,,,,889.418539300008,123,28,female,True
229,0.0680737805537525,25,up,up,1.091972700000042,0.7415401756142868,,experiment,cRDM,0.0,,,,891.2684884000046,123,28,female,True
230,0.0680737805537525,25,down,down,0.9410741000028792,0.9952793729930052,,experiment,cRDM,0.0,,,,893.6183887000079,123,28,female,True
231,0.0680737805537525,25,up,down,0.7827107000048272,0.720440974091026,,experiment,cRDM,0.0,,,,895.5516926000128,123,28,female,True
232,0.0680737805537525,25,up,up,0.8662371000100393,1.6198607430514051,,experiment,cRDM,0.0,,,,898.2182269000041,123,28,female,True
233,0.0680737805537525,25,up,down,0.8263652000168804,0.8625000382416339,,experiment,cRDM,0.0,,,,900.2181434000086,123,28,female,True
234,0.0680737805537525,25,up,down,0.8590389000019059,0.9967530173127914,,experiment,cRDM,0.0,,,,902.3014685999952,123,28,female,True
235,0.0680737805537525,25,up,down,0.7470547999837436,1.4165902423917756,,experiment,cRDM,0.0,,,,904.8344308999948,123,28,female,True
236,0.0680737805537525,25,down,down,0.7326442000048701,1.4758482817160627,,experiment,cRDM,0.0,,,,907.3178782000032,123,28,female,True
237,0.0680737805537525,25,down,down,0.8000116999901365,1.6060551891383197,,experiment,cRDM,0.0,,,,909.9344392000056,123,28,female,True
238,0.0680737805537525,25,down,down,0.8343801999872085,1.667663628589062,,experiment,cRDM,0.0,,,,912.651063600002,123,28,female,True
239,0.0680737805537525,25,up,down,0.6641665000061039,1.5418515115725375,,experiment,cRDM,0.0,,,,915.2842635000123,123,28,female,True
240,0.0680737805537525,25,down,down,0.7445046000066213,1.0211870384413275,,experiment,cRDM,0.0,,,,917.2340209000104,123,28,female,True
241,0.0680737805537525,25,down,up,0.7023781999887433,1.7300615206896393,,experiment,cRDM,0.0,,,,919.984081500006,123,28,female,True
242,0.0680737805537525,25,down,down,0.7367203999892808,1.7067228892594344,,experiment,cRDM,0.0,,,,922.650713800016,123,28,female,True
243,0.0680737805537525,25,up,down,0.8138414999993984,1.2016667271507693,,experiment,cRDM,0.0,,,,924.8505925000064,123,28,female,True
244,0.0680737805537525,25,down,up,0.952979099994991,1.8122073945931207,,experiment,cRDM,0.0,,,,927.750494900014,123,28,female,True
245,0.0680737805537525,25,up,down,0.947022799984552,0.5859823165487115,,experiment,cRDM,0.0,,,,929.5504314000136,123,28,female,True
246,0.0680737805537525,25,up,up,0.9847435000119732,0.5286957646171465,,experiment,cRDM,0.0,,,,931.283700400003,123,28,female,True
247,0.0680737805537525,25,down,up,1.7881187000020873,0.624289001699114,,experiment,cRDM,0.0,,,,933.150298099994,123,28,female,True
248,0.0680737805537525,25,up,up,1.538932700001169,0.8751055374832903,,experiment,cRDM,0.0,,,,936.0835119000112,123,28,female,True
249,0.0680737805537525,25,down,down,0.7857548999891151,1.431091091099243,,experiment,cRDM,0.0,,,,939.316729800019,123,28,female,True
250,0.0680737805537525,25,up,down,1.227757100015879,1.1179697013813792,,experiment,cRDM,0.0,,,,941.4666484000044,123,28,female,True
251,0.0680737805537525,25,down,up,1.4079551000031645,1.353683826932892,,experiment,cRDM,0.0,,,,944.3165222000098,123,28,female,True
252,0.0680737805537525,25,up,down,1.2956521000014618,1.1080183114213369,,experiment,cRDM,0.0,,,,947.0998024000146,123,28,female,True
253,0.0680737805537525,25,down,up,1.0077487000089604,0.8014656940379807,,experiment,cRDM,0.0,,,,949.4497002999996,123,28,female,True
254,0.0680737805537525,25,down,down,1.0618608000222594,0.5841826896884141,,experiment,cRDM,0.0,,,,951.299633799994,123,28,female,True
255,0.0680737805537525,25,down,down,0.6948016999813262,1.2193023875794435,,experiment,cRDM,0.0,,,,953.8326485000144,123,28,female,True
256,0.0680737805537525,25,down,down,0.7270087999932002,1.5199681831788392,,experiment,cRDM,0.0,,,,956.29944480001,123,28,female,True
257,0.0680737805537525,25,down,down,0.7189115999790374,1.9570106959107327,,experiment,cRDM,0.0,,,,959.232561700017,123,28,female,True
258,0.0680737805537525,25,up,up,1.0248500000161584,0.5638141376594936,,experiment,cRDM,0.0,,,,960.7826018000196,123,28,female,True
259,0.0680737805537525,25,up,down,0.7212775999796577,1.8695627598665852,,experiment,cRDM,0.0,,,,963.9491710000148,123,28,female,True
260,0.0680737805537525,25,up,up,0.922046899999259,1.046414310040365,,experiment,cRDM,0.0,,,,965.982399600005,123,28,female,True
261,0.0680737805537525,25,up,down,0.7118096000049263,1.7928593824380807,,experiment,cRDM,0.0,,,,968.9656541000004,123,28,female,True
262,104.0,25,M,down,0.8460060999786947,0.9701300340720732,,experiment,emotion,0.0,,,,1002.1644065,123,28,female,True
263,94.0,25,M,down,0.6361475999874528,1.8758581125632188,,experiment,emotion,0.0,,,,1005.1643006000086,123,28,female,True
264,101.0,25,F,down,0.6750914000149351,1.597835031195785,,experiment,emotion,0.0,,,,1007.697512100014,123,28,female,True
265,104.0,25,F,down,0.8599975999968592,1.852354170609392,,experiment,emotion,0.0,,,,1010.4974453000176,123,28,female,True
266,101.0,25,M,up,0.7211210000095889,1.961772431073215,,experiment,emotion,0.0,,,,1013.5973211000093,123,28,female,True
267,98.0,25,F,down,0.9898560000001452,0.675711728925495,,experiment,emotion,0.0,,,,1015.2805837000196,123,28,female,True
268,94.0,25,M,down,1.3719433000078425,0.942799581105738,,experiment,emotion,0.0,,,,1017.4804997000028,123,28,female,True
269,98.0,25,M,down,0.8956854999996722,0.3291167829603745,,experiment,emotion,0.0,,,,1019.4637596000102,123,28,female,True
270,104.0,25,F,down,0.6391098000167403,1.046054437566568,,experiment,emotion,0.0,,,,1021.68033860001,123,28,female,True
271,98.0,25,F,down,1.0415704000042751,1.2917101918444602,,experiment,emotion,0.0,,,,1023.896914300014,123,28,female,True
272,101.0,25,F,up,0.9065760000084992,0.7398547062529135,,experiment,emotion,0.0,,,,1025.946864700003,123,28,female,True
273,104.0,25,F,up,0.6773656999866944,1.2100715259545989,,experiment,emotion,0.0,,,,1028.3300772999935,123,28,female,True
274,101.0,25,F,up,0.8797833000135142,1.564715830115173,,experiment,emotion,0.0,,,,1030.846677499998,123,28,female,True
275,94.0,25,F,up,0.7048135999939404,0.5344992624648166,,experiment,emotion,0.0,,,,1032.5466298999963,123,28,female,True
276,98.0,25,M,down,1.406581000017468,1.1432241500190927,,experiment,emotion,0.0,,,,1034.6798605000076,123,28,female,True
277,94.0,25,M,down,0.7016830999928061,1.6315448002239266,,experiment,emotion,0.0,,,,1037.9797492000216,123,28,female,True
278,104.0,25,M,up,0.9581776999984868,1.068329926155397,,experiment,emotion,0.0,,,,1040.0462321999948,123,28,female,True
279,94.0,25,M,down,0.8061850999947637,0.8326448599448377,,experiment,emotion,0.0,,,,1042.096255500015,123,28,female,True
280,101.0,25,F,up,1.3292498999799136,0.919035692960584,,experiment,emotion,0.0,,,,1044.0961912000205,123,28,female,True
281,101.0,25,M,up,0.6596695999905933,0.4070817467316033,,experiment,emotion,0.0,,,,1046.1127643999937,123,28,female,True
282,98.0,25,M,up,0.6663789000012912,0.5522226030055482,,experiment,emotion,0.0,,,,1047.596059200005,123,28,female,True
283,98.0,25,F,up,0.8696082000096794,1.010804832056857,,experiment,emotion,0.0,,,,1049.5460124000092,123,28,female,True
284,94.0,25,M,up,0.6395244999730494,0.4629613836433614,,experiment,emotion,0.0,,,,1051.1459527999978,123,28,female,True
285,104.0,25,F,up,0.677227199979825,0.4079266685123536,,experiment,emotion,0.0,,,,1052.4792329000193,123,28,female,True
286,101.0,25,F,up,0.7259639000112657,0.8369228674860016,,experiment,emotion,0.0,,,,1054.2624732000113,123,28,female,True
287,94.0,25,M,down,0.8376802999991924,1.1835238620186377,,experiment,emotion,0.0,,,,1056.445734000008,123,28,female,True
288,104.0,25,M,up,1.0914542000100482,1.5282494110993952,,experiment,emotion,0.0,,,,1059.078981700004,123,28,female,True
289,104.0,25,F,up,0.8247323999821674,0.4883519734515711,,experiment,emotion,0.0,,,,1060.9287616999936,123,28,female,True
290,98.0,25,M,down,0.7029628999880515,1.862259003053104,,experiment,emotion,0.0,,,,1063.8954428000145,123,28,female,True
291,94.0,25,F,down,0.6990711000107694,1.954434660473532,,experiment,emotion,0.0,,,,1066.8453688000154,123,28,female,True
292,98.0,25,F,down,0.9104997999966143,1.349877741259588,,experiment,emotion,0.0,,,,1069.1619340000034,123,28,female,True
293,101.0,25,F,down,0.6980288000195287,0.377732828922155,,experiment,emotion,0.0,,,,1070.7284048,123,28,female,True
294,94.0,25,M,down,0.7533129999937955,1.9943371192338828,,experiment,emotion,0.0,,,,1073.6951038000116,123,28,female,True
295,104.0,25,M,down,0.6544096000143327,0.8103709692173826,,experiment,emotion,0.0,,,,1075.5450467000192,123,28,female,True
296,101.0,25,M,down,0.7198180999839678,1.3980571204018264,,experiment,emotion,0.0,,,,1077.8616142999963,123,28,female,True
297,104.0,25,F,down,0.6890693999885116,1.5664784217159826,,experiment,emotion,0.0,,,,1080.411358900019,123,28,female,True
298,94.0,25,F,down,0.5116960000013933,0.6838842665067237,,experiment,emotion,0.0,,,,1082.0447940000158,123,28,female,True
299,101.0,25,M,down,0.5033438999962527,0.7571311156379699,,experiment,emotion,0.0,,,,1083.578077400016,123,28,female,True
300,98.0,25,F,down,0.7367594999959692,0.5263341085887987,,experiment,emotion,0.0,,,,1084.894664899999,123,28,female,True
301,98.0,25,M,down,1.1453387000074144,1.998591753942491,,experiment,emotion,0.0,,,,1087.9111083000023,123,28,female,True
302,101.0,25,M,down,0.759628799976781,1.591655467894386,,experiment,emotion,0.0,,,,1090.927798699995,123,28,female,True
303,104.0,25,M,down,1.0089980000047944,0.4907121602467745,,experiment,emotion,0.0,,,,1092.4444232000096,123,28,female,True
304,98.0,25,F,up,0.7437513000040781,0.4155926151364785,,experiment,emotion,0.0,,,,1094.127649300004,123,28,female,True
305,94.0,25,F,down,1.101110699994024,0.3476113586824048,,experiment,emotion,0.0,,,,1095.4943053000025,123,28,female,True
306,94.0,25,M,down,0.7635654000041541,1.3030535043747693,,experiment,emotion,0.0,,,,1098.1608543000184,123,28,female,True
307,98.0,25,F,down,1.0459591000108048,0.7717319442248949,,experiment,emotion,0.0,,,,1099.9774689000042,123,28,female,True
308,104.0,25,F,down,0.9917815000226256,1.426861274556217,,experiment,emotion,0.0,,,,1102.7106809999968,123,28,female,True
309,101.0,25,M,down,0.6484225999738555,0.6185229889274233,,experiment,emotion,0.0,,,,1104.593959699996,123,28,female,True
310,94.0,25,M,down,0.7598256999917794,1.1034260583553548,,experiment,emotion,0.0,,,,1106.6105742999937,123,28,female,True
311,104.0,25,F,down,0.7535947000142187,0.7056062082466923,,experiment,emotion,0.0,,,,1108.3438305000018,123,28,female,True
312,101.0,25,M,down,0.4846752000157721,1.2239371493078504,,experiment,emotion,0.0,,,,1110.5937357000075,123,28,female,True
313,101.0,25,F,down,0.8765805000148248,0.5748327356525651,,experiment,emotion,0.0,,,,1111.9268815999967,123,28,female,True
314,94.0,25,F,down,0.4603027999983169,1.6347628429738437,,experiment,emotion,0.0,,,,1114.7102293000207,123,28,female,True
315,98.0,25,F,down,0.6707416000135709,0.9887732557431148,,experiment,emotion,0.0,,,,1116.42669990001,123,28,female,True
316,104.0,25,M,down,0.5731080999830738,1.3747733145353576,,experiment,emotion,0.0,,,,1118.7434634999954,123,28,female,True
317,98.0,25,M,down,0.4454537999990862,1.2837723088321578,,experiment,emotion,0.0,,,,1120.8600200999936,123,28,female,True
318,98.0,25,F,down,0.7651065000100061,1.0825576149096647,,experiment,emotion,0.0,,,,1122.6432965999993,123,28,female,True
319,98.0,25,F,up,1.228206899977522,1.0063891554664652,,experiment,emotion,0.0,,,,1124.6932130000205,123,28,female,True
320,104.0,25,M,up,0.7319219000055455,0.3835913598831502,,experiment,emotion,0.0,,,,1126.5764765000204,123,28,female,True
321,101.0,25,M,down,0.706001800019294,0.5744454724123035,,experiment,emotion,0.0,,,,1128.1764119,123,28,female,True
322,94.0,25,M,down,1.1797118000104092,0.3733418489778949,,experiment,emotion,0.0,,,,1129.5597286999982,123,28,female,True
323,94.0,25,M,down,0.8014926000032574,1.5849057160998246,,experiment,emotion,0.0,,,,1132.59293470002,123,28,female,True
324,101.0,25,M,up,0.9453137000091374,0.5705573268276611,,experiment,emotion,0.0,,,,1134.2261210000142,123,28,female,True
325,104.0,25,F,up,0.8709877000073902,1.3570159120244405,,experiment,emotion,0.0,,,,1136.8094343999985,123,28,female,True
326,104.0,25,F,up,0.7440384000074118,0.908104406991683,,experiment,emotion,0.0,,,,1138.8593658000173,123,28,female,True
327,94.0,25,M,down,0.8034769000078086,1.3047133451151147,,experiment,emotion,0.0,,,,1141.1759388000064,123,28,female,True
328,104.0,25,F,down,2.2506240000075195,1.6151424069121267,,experiment,emotion,0.0,,,,1143.8758238000155,123,28,female,True
329,98.0,25,F,down,0.6660890000057407,1.1824005800319015,,experiment,emotion,0.0,,,,1147.5923629000026,123,28,female,True
330,101.0,25,F,down,0.7391708999930415,1.6368633563514483,,experiment,emotion,0.0,,,,1150.1922499000211,123,28,female,True
331,98.0,25,M,down,0.8645458000246435,0.8631447298619321,,experiment,emotion,0.0,,,,1152.0588721999957,123,28,female,True
332,94.0,25,F,down,0.8509964999975637,0.3734552027749006,,experiment,emotion,0.0,,,,1153.5754826000193,123,28,female,True
333,101.0,25,F,down,0.6736916999798268,1.6077004139904882,,experiment,emotion,0.0,,,,1156.308726999996,123,28,female,True
334,98.0,25,F,down,0.7391888999845833,1.7843097021032348,,experiment,emotion,0.0,,,,1159.0252104999963,123,28,female,True
335,101.0,25,M,down,0.7015156999987084,0.9132089658506136,,experiment,emotion,0.0,,,,1160.9418818000122,123,28,female,True
336,94.0,25,M,down,0.6805999999924097,0.6763184500180299,,experiment,emotion,0.0,,,,1162.5918105000164,123,28,female,True
337,104.0,25,F,down,0.5710369999869727,1.5967545701274792,,experiment,emotion,0.0,,,,1165.1584047999931,123,28,female,True
338,101.0,25,M,down,0.6301829000003636,1.5242819158234886,,experiment,emotion,0.0,,,,1167.5081809000112,123,28,female,True
339,104.0,25,F,down,0.6535857999988366,0.7109559964965938,,experiment,emotion,0.0,,,,1169.124809400004,123,28,female,True
340,94.0,25,M,down,0.7558963999908883,0.545866685806948,,experiment,emotion,0.0,,,,1170.591519300011,123,28,female,True
341,98.0,25,M,down,0.6066171000129543,1.2495179583220113,,experiment,emotion,0.0,,,,1172.8747936,123,28,female,True
342,0.0680737805537525,25,up,up,0.7073131000215653,0.4202585309557812,,experiment,cRDM,1.0,,,,1199.507108699996,123,28,female,True
343,0.0680737805537525,25,up,up,0.660357999993721,0.973251600232063,,experiment,cRDM,1.0,,,,1201.4570553000085,123,28,female,True
344,0.0680737805537525,25,down,down,0.7290559000102803,0.6008939794320882,,experiment,cRDM,1.0,,,,1202.9903292999952,123,28,female,True
345,0.0680737805537525,25,down,down,0.6215270000102464,1.7646733577721396,,experiment,cRDM,1.0,,,,1205.7568984999962,123,28,female,True
346,0.0680737805537525,25,up,up,0.7902361000014935,0.6541509917641333,,experiment,cRDM,1.0,,,,1207.2901742999966,123,28,female,True
347,0.0680737805537525,25,down,up,1.332366999995429,1.59773768660381,,experiment,cRDM,1.0,,,,1209.9400714999938,123,28,female,True
348,0.0680737805537525,25,up,down,0.7477943999983836,1.9339708503305089,,experiment,cRDM,1.0,,,,1213.456619100005,123,28,female,True
349,0.0680737805537525,25,up,up,0.6481542999972589,0.3700872410007089,,experiment,cRDM,1.0,,,,1214.823248700006,123,28,female,True
350,0.0680737805537525,25,down,up,1.025259999994887,1.6320340287157418,,experiment,cRDM,1.0,,,,1217.3731463000004,123,28,female,True
351,0.0680737805537525,25,down,down,0.7292993000010028,0.6614676834722863,,experiment,cRDM,1.0,,,,1219.3231114000082,123,28,female,True
352,0.0680737805537525,25,down,down,0.6102778999775182,0.988578830641609,,experiment,cRDM,1.0,,,,1221.306123300019,123,28,female,True
353,0.0680737805537525,25,down,down,0.8448204000014812,1.6523662924575773,,experiment,cRDM,1.0,,,,1223.8395609,123,28,female,True
354,0.0680737805537525,25,down,down,0.59841839998262,1.1664353783223718,,experiment,cRDM,1.0,,,,1226.1059826000128,123,28,female,True
355,0.0680737805537525,25,down,down,0.6945760000089649,0.3531755489329815,,experiment,cRDM,1.0,,,,1227.3227938000057,123,28,female,True
356,0.0680737805537525,25,up,down,0.6706619999895338,1.233462641087881,,experiment,cRDM,1.0,,,,1229.5227273000055,123,28,female,True
357,0.0680737805537525,25,up,down,0.6255816999764647,0.8698398758642985,,experiment,cRDM,1.0,,,,1231.3058212000178,123,28,female,True
358,0.0680737805537525,25,up,down,0.6456880000187084,1.5098949809898718,,experiment,cRDM,1.0,,,,1233.705719999998,123,28,female,True
359,0.0680737805537525,25,up,down,0.807268100004876,1.4749152245676354,,experiment,cRDM,1.0,,,,1236.0891305000114,123,28,female,True
360,0.0680737805537525,25,down,up,0.7052876000234392,0.3685758328344649,,experiment,cRDM,1.0,,,,1237.5221368000202,123,28,female,True
361,0.0680737805537525,25,up,up,1.5561689999885857,0.5422713345749023,,experiment,cRDM,1.0,,,,1239.0222150000045,123,28,female,True
362,0.0680737805537525,25,up,down,0.7114756000228226,1.491123870097724,,experiment,cRDM,1.0,,,,1242.338925499993,123,28,female,True
363,0.0680737805537525,25,down,up,0.7842865999846254,1.410955357034842,,experiment,cRDM,1.0,,,,1244.7221449000062,123,28,female,True
364,0.0680737805537525,25,up,down,0.8247631999838632,1.6105678685653422,,experiment,cRDM,1.0,,,,1247.3886825999944,123,28,female,True
365,0.0680737805537525,25,down,down,0.6684787999838591,1.682690354783057,,experiment,cRDM,1.0,,,,1250.1719224000117,123,28,female,True
366,0.0680737805537525,25,down,up,0.8007410999853164,1.9179766222053785,,experiment,cRDM,1.0,,,,1253.0216687000066,123,28,female,True
367,0.0680737805537525,25,up,down,0.8566552000120282,0.3528959822367241,,experiment,cRDM,1.0,,,,1254.421755899995,123,28,female,True
368,0.0680737805537525,25,up,up,0.8720132000162266,0.3522641828762025,,experiment,cRDM,1.0,,,,1255.8883843999938,123,28,female,True
369,0.0680737805537525,25,down,down,0.7074324999994133,0.4428193044112781,,experiment,cRDM,1.0,,,,1257.4549797000072,123,28,female,True
370,0.0680737805537525,25,up,down,1.3178675999806728,0.3431809209791365,,experiment,cRDM,1.0,,,,1258.771620500018,123,28,female,True
371,0.0680737805537525,25,down,up,0.8759546999935992,1.1601696132278307,,experiment,cRDM,1.0,,,,1261.5214078999998,123,28,female,True
372,0.0680737805537525,25,down,down,0.657275599980494,0.5384140842688719,,experiment,cRDM,1.0,,,,1263.1881248000136,123,28,female,True
373,0.0680737805537525,25,down,down,0.8606819999986328,0.8050075717352956,,experiment,cRDM,1.0,,,,1264.90469950001,123,28,female,True
374,0.0680737805537525,25,up,down,0.8953539000067394,1.4068569090681422,,experiment,cRDM,1.0,,,,1267.4380041999975,123,28,female,True
375,0.0680737805537525,25,up,down,0.6781937000050675,1.180116337556731,,experiment,cRDM,1.0,,,,1269.7712054000003,123,28,female,True
376,0.0680737805537525,25,up,down,0.7186307999945711,1.6815389711706183,,experiment,cRDM,1.0,,,,1272.387763900013,123,28,female,True
377,0.0680737805537525,25,down,down,0.7227228000119794,1.4213525539382468,,experiment,cRDM,1.0,,,,1274.787682299997,123,28,female,True
378,0.0680737805537525,25,down,down,0.809464099991601,0.5958437070850542,,experiment,cRDM,1.0,,,,1276.3709723000063,123,28,female,True
379,0.0680737805537525,25,up,down,0.6472563999996055,1.662939067829809,,experiment,cRDM,1.0,,,,1279.1041632000124,123,28,female,True
380,0.0680737805537525,25,down,down,0.6112968999950681,1.542177052450183,,experiment,cRDM,1.0,,,,1281.5541121000133,123,28,female,True
381,0.0680737805537525,25,up,down,0.6634779000014532,1.57187062989332,,experiment,cRDM,1.0,,,,1284.0039101000002,123,28,female,True
382,0.0680737805537525,25,up,down,1.826085000007879,0.3678238503949697,,experiment,cRDM,1.0,,,,1285.287282300007,123,28,female,True
383,0.0680737805537525,25,up,down,2.170185399998445,0.8529197468631895,,experiment,cRDM,1.0,,,,1288.2372101999936,123,28,female,True
384,0.0680737805537525,25,down,down,1.6699934999924153,1.1463458918121678,,experiment,cRDM,1.0,,,,1291.8204234000004,123,28,female,True
385,0.0680737805537525,25,down,down,1.036764199991012,0.4967318892069041,,experiment,cRDM,1.0,,,,1294.253640800016,123,28,female,True
386,0.0680737805537525,25,up,down,0.950167600007262,1.763187778494093,,experiment,cRDM,1.0,,,,1297.320223799994,123,28,female,True
387,0.0680737805537525,25,down,down,0.646311099990271,1.1285553053147144,,experiment,cRDM,1.0,,,,1299.6700824,123,28,female,True
388,0.0680737805537525,25,down,down,0.8583851000003051,1.8893934959425145,,experiment,cRDM,1.0,,,,1302.4700065999932,123,28,female,True
389,0.0680737805537525,25,up,down,0.8391096999985166,0.4999805930345148,,experiment,cRDM,1.0,,,,1304.1032857999962,123,28,female,True
390,0.0680737805537525,25,up,down,0.9624784999759868,0.921491112231015,,experiment,cRDM,1.0,,,,1306.1199113000184,123,28,female,True
391,0.0680737805537525,25,down,down,0.7073181000014301,1.8079470165294695,,experiment,cRDM,1.0,,,,1309.153085500002,123,28,female,True
392,0.0680737805537525,25,up,down,0.7790765000099782,0.8149965661172656,,experiment,cRDM,1.0,,,,1310.9363606999975,123,28,female,True
393,0.0680737805537525,25,down,down,0.6747977000195533,1.832166848981964,,experiment,cRDM,1.0,,,,1313.819616199995,123,28,female,True
394,0.0680737805537525,25,down,down,0.9868874000094364,1.5506095108982436,,experiment,cRDM,1.0,,,,1316.3195022,123,28,female,True
395,0.0680737805537525,25,down,down,0.7986571000074036,1.0027774682958146,,experiment,cRDM,1.0,,,,1318.5527351000055,123,28,female,True
396,0.0680737805537525,25,up,up,0.9143773000105284,0.7164170440157938,,experiment,cRDM,1.0,,,,1320.3360107000044,123,28,female,True
397,0.0680737805537525,25,up,up,1.0129128000116907,1.1917731828396696,,experiment,cRDM,1.0,,,,1322.7024781999935,123,28,female,True
398,0.0680737805537525,25,down,down,0.8508478000003379,0.9626367165925804,,experiment,cRDM,1.0,,,,1324.9525035000115,123,28,female,True
399,0.0680737805537525,25,down,up,0.979553599987412,0.9619997561136546,,experiment,cRDM,1.0,,,,1327.0357847000123,123,28,female,True
400,0.0680737805537525,25,up,up,0.9677287000231444,0.3677818361774836,,experiment,cRDM,1.0,,,,1328.6357351000188,123,28,female,True
401,0.0680737805537525,25,up,down,0.81411360000493,0.6952116900759838,,experiment,cRDM,1.0,,,,1330.552306700003,123,28,female,True
402,0.0680737805537525,25,up,up,0.7761270000191871,0.5659483411706818,,experiment,cRDM,1.0,,,,1332.2022660000075,123,28,female,True
403,0.0680737805537525,25,up,down,1.177920100017218,1.6502178057906711,,experiment,cRDM,1.0,,,,1334.885472599999,123,28,female,True
404,0.0680737805537525,25,up,down,0.94282560001011,0.6934731208478198,,experiment,cRDM,1.0,,,,1337.0185559999954,123,28,female,True
405,0.0680737805537525,25,down,down,0.8610252999933437,0.5177295926571861,,experiment,cRDM,1.0,,,,1338.7353495999996,123,28,female,True
406,0.0680737805537525,25,down,down,0.7441386000136845,1.0289479584722678,,experiment,cRDM,1.0,,,,1340.885249600018,123,28,female,True
407,0.0680737805537525,25,up,up,0.9151886999898124,1.6461250489144357,,experiment,cRDM,1.0,,,,1343.5351760000049,123,28,female,True
408,0.0680737805537525,25,down,down,0.8040113000024576,0.5558486688862245,,experiment,cRDM,1.0,,,,1345.268431000004,123,28,female,True
409,0.0680737805537525,25,down,down,0.8007357000024058,1.7147899196177925,,experiment,cRDM,1.0,,,,1348.051648599998,123,28,female,True
410,0.0680737805537525,25,down,down,0.6972546000033617,0.6081440848334089,,experiment,cRDM,1.0,,,,1349.7181323000111,123,28,female,True
411,0.0680737805537525,25,up,down,0.7245251999993343,1.8661456891244683,,experiment,cRDM,1.0,,,,1352.5348414000182,123,28,female,True
412,0.0680737805537525,25,down,down,0.6764583000040147,0.6006436078193613,,experiment,cRDM,1.0,,,,1354.117965900019,123,28,female,True
413,0.0680737805537525,25,down,down,0.6427011000050697,0.5648990672058638,,experiment,cRDM,1.0,,,,1355.634731099999,123,28,female,True
414,0.0680737805537525,25,down,down,0.673133800009964,1.4531467817144097,,experiment,cRDM,1.0,,,,1358.0012718999933,123,28,female,True
415,0.0680737805537525,25,up,down,1.029906100011431,1.9011947452904052,,experiment,cRDM,1.0,,,,1360.83450680002,123,28,female,True
416,0.0680737805537525,25,up,down,0.760627800016664,1.342074759536152,,experiment,cRDM,1.0,,,,1363.4677594999955,123,28,female,True
417,0.0680737805537525,25,down,down,0.6950262999744155,1.1542733497803026,,experiment,cRDM,1.0,,,,1365.6343551000173,123,28,female,True
418,0.0680737805537525,25,up,up,1.4861333000008017,1.762448137066157,,experiment,cRDM,1.0,,,,1368.3342487000043,123,28,female,True
419,0.0680737805537525,25,down,down,0.6585672000073828,1.684514773027991,,experiment,cRDM,1.0,,,,1371.7507768000069,123,28,female,True
420,0.0680737805537525,25,up,up,0.91103300001123,1.24743837163037,,experiment,cRDM,1.0,,,,1373.917398999998,123,28,female,True
421,0.0680737805537525,25,up,down,0.8511171000136528,1.5895205211258574,,experiment,cRDM,1.0,,,,1376.6672647999949,123,28,female,True
422,104.0,25,M,down,1.0673944000154734,1.7872051408215115,,experiment,emotion,1.0,,,,1384.1669873000064,123,28,female,True
423,94.0,25,M,down,0.7472757000068668,1.7801174027400934,,experiment,emotion,1.0,,,,1387.3001466999997,123,28,female,True
424,101.0,25,F,down,0.640569899987895,0.6018859519763983,,experiment,emotion,1.0,,,,1388.9168208000192,123,28,female,True
425,104.0,25,F,down,0.7103490000008605,1.081525683885632,,experiment,emotion,1.0,,,,1391.750035200006,123,28,female,True
426,101.0,25,M,up,1.0664464000146836,1.6063466030126192,,experiment,emotion,1.0,,,,1394.3499351000064,123,28,female,True
427,98.0,25,F,down,0.8212051999871619,1.5366284189815456,,experiment,emotion,1.0,,,,1397.233174299996,123,28,female,True
428,94.0,25,M,down,0.6976918999862392,1.3802882022336478,,experiment,emotion,1.0,,,,1399.6996986000158,123,28,female,True
429,98.0,25,M,down,0.5710110999934841,0.959183775950584,,experiment,emotion,1.0,,,,1401.6163508000027,123,28,female,True
430,104.0,25,F,up,0.7244643000012729,1.11000426068984,,experiment,emotion,1.0,,,,1403.5829198000138,123,28,female,True
431,98.0,25,F,down,0.6542224000149872,1.6897461000488363,,experiment,emotion,1.0,,,,1406.2661792,123,28,female,True
432,101.0,25,F,up,0.7986489000031725,1.831467786456252,,experiment,emotion,1.0,,,,1409.0327275000163,123,28,female,True
433,104.0,25,F,up,0.8747240000229795,0.5957527402279822,,experiment,emotion,1.0,,,,1410.6826503000048,123,28,female,True
434,101.0,25,F,up,0.8291131999867503,0.8147843470200091,,experiment,emotion,1.0,,,,1412.6492617000183,123,28,female,True
435,94.0,25,F,down,0.7438727999979164,1.9772830115684343,,experiment,emotion,1.0,,,,1415.7324937999947,123,28,female,True
436,98.0,25,M,up,0.9313298999913968,0.7760861128952953,,experiment,emotion,1.0,,,,1417.5490902000165,123,28,female,True
437,94.0,25,M,down,0.8113569999986794,0.340290330088286,,experiment,emotion,1.0,,,,1419.0990331000066,123,28,female,True
438,104.0,25,M,down,0.8074054999742657,0.6788898768644666,,experiment,emotion,1.0,,,,1420.8489551999955,123,28,female,True
439,94.0,25,M,down,0.6794666999776382,1.2243807921584662,,experiment,emotion,1.0,,,,1423.1488796000194,123,28,female,True
440,101.0,25,F,down,0.9192216999945232,1.0357725703030165,,experiment,emotion,1.0,,,,1425.1321372000093,123,28,female,True
441,101.0,25,M,down,1.1933295000053477,1.3667417523703678,,experiment,emotion,1.0,,,,1427.6820511000114,123,28,female,True
442,98.0,25,M,down,0.8704810999915935,1.6386785276371527,,experiment,emotion,1.0,,,,1430.781908600009,123,28,female,True
443,98.0,25,F,down,0.8361587999970652,0.3468720698783135,,experiment,emotion,1.0,,,,1432.2652062000125,123,28,female,True
444,94.0,25,M,down,1.2729420000105165,1.428266166589858,,experiment,emotion,1.0,,,,1434.798430099996,123,28,female,True
445,104.0,25,F,up,0.8319947000127286,0.7056600810606488,,experiment,emotion,1.0,,,,1437.0483815000043,123,28,female,True
446,101.0,25,F,up,0.7057411000132561,0.3577191106222547,,experiment,emotion,1.0,,,,1438.531659500004,123,28,female,True
447,94.0,25,M,down,0.9328172000241466,1.5713635330295006,,experiment,emotion,1.0,,,,1441.0815651000012,123,28,female,True
448,104.0,25,M,down,0.6998991000000387,1.2862630092529037,,experiment,emotion,1.0,,,,1443.5814606000204,123,28,female,True
449,104.0,25,F,down,0.8620064000133425,1.333032228170409,,experiment,emotion,1.0,,,,1445.881367599999,123,28,female,True
450,98.0,25,M,down,0.6711036000051536,1.387949857700724,,experiment,emotion,1.0,,,,1448.431277900003,123,28,female,True
451,94.0,25,F,down,0.696813500020653,0.7916044127984281,,experiment,emotion,1.0,,,,1450.1645559000026,123,28,female,True
452,98.0,25,F,down,0.6749316999921575,1.0414700470422036,,experiment,emotion,1.0,,,,1452.1644657000145,123,28,female,True
453,101.0,25,F,down,0.6582829999970272,0.3108406589987397,,experiment,emotion,1.0,,,,1453.4310925000173,123,28,female,True
454,94.0,25,M,down,0.6367649000021629,0.9227910710216696,,experiment,emotion,1.0,,,,1455.2976225000166,123,28,female,True
455,104.0,25,M,down,0.5858493999985512,1.0941515198354577,,experiment,emotion,1.0,,,,1457.297582500003,123,28,female,True
456,101.0,25,M,up,0.7935183000226971,0.3226131288988068,,experiment,emotion,1.0,,,,1458.4809127000044,123,28,female,True
457,104.0,25,F,down,0.771566100011114,1.6899517874900156,,experiment,emotion,1.0,,,,1461.2308104000113,123,28,female,True
458,94.0,25,F,down,0.841330499999458,1.6934287283170304,,experiment,emotion,1.0,,,,1463.9640437000198,123,28,female,True
459,101.0,25,M,down,0.7964099000091664,1.135244013342201,,experiment,emotion,1.0,,,,1466.213961500005,123,28,female,True
460,98.0,25,F,down,0.7182900999905542,1.4932544333907805,,experiment,emotion,1.0,,,,1468.797065000021,123,28,female,True
461,98.0,25,M,up,0.9935402999981306,0.9230390695877416,,experiment,emotion,1.0,,,,1470.7138030000206,123,28,female,True
462,101.0,25,M,down,0.8330015999963507,1.342171914899871,,experiment,emotion,1.0,,,,1473.3303631000165,123,28,female,True
463,104.0,25,M,down,0.8101197999785654,1.422828331239353,,experiment,emotion,1.0,,,,1475.8802701999955,123,28,female,True
464,98.0,25,F,down,0.6721630000101868,1.266241134433376,,experiment,emotion,1.0,,,,1478.2301678000076,123,28,female,True
465,94.0,25,F,down,0.7499239999742713,1.1727474296627969,,experiment,emotion,1.0,,,,1480.3634449999954,123,28,female,True
466,94.0,25,M,down,0.7540166999970097,1.8933563806936535,,experiment,emotion,1.0,,,,1483.263336400007,123,28,female,True
467,98.0,25,F,down,0.5644735000096262,1.2889976072107967,,experiment,emotion,1.0,,,,1485.579896500014,123,28,female,True
468,104.0,25,F,down,0.7079309999826364,1.7666732963983387,,experiment,emotion,1.0,,,,1488.1964078000165,123,28,female,True
469,101.0,25,M,down,0.6706620999902952,1.818773635841977,,experiment,emotion,1.0,,,,1490.9796871000144,123,28,female,True
470,94.0,25,M,down,0.4507735000224784,1.3709323829018687,,experiment,emotion,1.0,,,,1493.2795951000007,123,28,female,True
471,104.0,25,F,up,0.939826899993932,1.2677471482468872,,experiment,emotion,1.0,,,,1495.279535700014,123,28,female,True
472,101.0,25,M,up,0.799644700018689,1.964489455742781,,experiment,emotion,1.0,,,,1498.462753300002,123,28,female,True
473,101.0,25,F,up,0.7456222000182606,1.7685369993355124,,experiment,emotion,1.0,,,,1501.2957213000043,123,28,female,True
474,94.0,25,F,down,1.07918279999285,1.7557544547226205,,experiment,emotion,1.0,,,,1504.0792121000122,123,28,female,True
475,98.0,25,F,down,0.7588584999903105,0.4196951524768053,,experiment,emotion,1.0,,,,1505.8625006999937,123,28,female,True
476,104.0,25,M,down,0.8223348000028636,1.4300720053030902,,experiment,emotion,1.0,,,,1508.3290662000072,123,28,female,True
477,98.0,25,M,down,0.8134156000160147,1.5503986305603363,,experiment,emotion,1.0,,,,1510.9789512999996,123,28,female,True
478,98.0,25,F,down,0.8481082000071183,0.5986279165501822,,experiment,emotion,1.0,,,,1512.6622589000035,123,28,female,True
479,98.0,25,F,down,0.8595462999946903,1.1051633047575078,,experiment,emotion,1.0,,,,1514.878817799996,123,28,female,True
480,104.0,25,M,up,1.1352649999898858,0.4012306739169912,,experiment,emotion,1.0,,,,1516.412120299996,123,28,female,True
481,101.0,25,M,down,0.962238800013438,0.4530963354150955,,experiment,emotion,1.0,,,,1518.295135399996,123,28,female,True
482,94.0,25,M,down,0.8327966000069864,1.6318586021045052,,experiment,emotion,1.0,,,,1521.1785731000127,123,28,female,True
483,94.0,25,M,down,0.7245109000068624,0.7818884726099675,,experiment,emotion,1.0,,,,1523.0618825000129,123,28,female,True
484,101.0,25,M,up,0.8319719999853987,1.2023589722384804,,experiment,emotion,1.0,,,,1525.2784313000157,123,28,female,True
485,104.0,25,F,up,0.8060058999981266,1.7032370992621708,,experiment,emotion,1.0,,,,1528.0783409000142,123,28,female,True
486,104.0,25,F,up,0.8363881999976002,0.4388568533991699,,experiment,emotion,1.0,,,,1529.5949862000125,123,28,female,True
487,94.0,25,M,down,0.7768411000142805,0.5536546553439985,,experiment,emotion,1.0,,,,1531.261563100008,123,28,female,True
488,104.0,25,F,down,0.7355571999796666,0.6219531118044892,,experiment,emotion,1.0,,,,1532.94482590002,123,28,female,True
489,98.0,25,F,down,0.6842642999836244,0.8442132372574498,,experiment,emotion,1.0,,,,1534.8280937999953,123,28,female,True
490,101.0,25,F,down,0.6896803999843542,1.5167889156166006,,experiment,emotion,1.0,,,,1537.2946412000165,123,28,female,True
491,98.0,25,M,down,0.7413862999819685,1.1335740681355364,,experiment,emotion,1.0,,,,1539.377942399995,123,28,female,True
492,94.0,25,F,down,0.6132600999844726,1.518415170809872,,experiment,emotion,1.0,,,,1541.9111040999996,123,28,female,True
493,101.0,25,F,down,0.632600300014019,1.4772347593071875,,experiment,emotion,1.0,,,,1544.2777624000155,123,28,female,True
494,98.0,25,F,down,0.6524027999839745,1.3497640976355356,,experiment,emotion,1.0,,,,1546.5109650999948,123,28,female,True
495,101.0,25,M,down,0.6421524999896064,1.6207065518938486,,experiment,emotion,1.0,,,,1549.0442179999957,123,28,female,True
496,94.0,25,M,down,0.7679163000138942,1.90423796107568,,experiment,emotion,1.0,,,,1551.8774698000052,123,28,female,True
497,104.0,25,F,up,1.0002836999774445,0.5705108774216525,,experiment,emotion,1.0,,,,1553.4940474000175,123,28,female,True
498,101.0,25,M,down,1.2040329999872483,1.2001581627374074,,experiment,emotion,1.0,,,,1555.977325999993,123,28,female,True
499,104.0,25,F,up,0.731881700019585,1.0636176894739746,,experiment,emotion,1.0,,,,1558.510438600002,123,28,female,True
500,94.0,25,M,down,0.7685924000106752,1.821789658852349,,experiment,emotion,1.0,,,,1561.3437705000106,123,28,female,True
501,98.0,25,M,up,0.8001151000207756,0.9309426545846148,,experiment,emotion,1.0,,,,1563.3102375000017,123,28,female,True
502,0.0680737805537525,25,up,up,0.902617099985946,1.7823956799585663,,experiment,cRDM,2.0,,,,1598.8257341000135,123,28,female,True
503,0.0680737805537525,25,up,up,0.8104031000111718,1.757367693833661,,experiment,cRDM,2.0,,,,1601.7589505000217,123,28,female,True
504,0.0680737805537525,25,down,down,0.7433627999853343,0.7734277887532375,,experiment,cRDM,2.0,,,,1603.5920517000195,123,28,female,True
505,0.0680737805537525,25,down,down,0.6785304000077303,1.357595812094512,,experiment,cRDM,2.0,,,,1605.9588191999935,123,28,female,True
506,0.0680737805537525,25,up,up,0.8825696999847423,1.452680275849496,,experiment,cRDM,2.0,,,,1608.3587125000197,123,28,female,True
507,0.0680737805537525,25,down,down,0.7084012000123039,0.8844061171177002,,experiment,cRDM,2.0,,,,1610.391944300005,123,28,female,True
508,0.0680737805537525,25,up,down,0.6974178000236861,0.5905082114233657,,experiment,cRDM,2.0,,,,1611.941909700021,123,28,female,True
509,0.0680737805537525,25,up,,,0.703308444667836,,experiment,cRDM,2.0,,,,1613.6085426000063,123,28,female,True
510,0.0680737805537525,25,down,down,0.7316838000260759,0.6014838394826825,,experiment,cRDM,2.0,,,,1616.891659899993,123,28,female,True
511,0.0680737805537525,25,down,down,0.8473683999909554,1.9315231126584875,,experiment,cRDM,2.0,,,,1619.8249619000126,123,28,female,True
512,0.0680737805537525,25,down,down,0.6114710999827366,0.8459776043591056,,experiment,cRDM,2.0,,,,1621.774876200012,123,28,female,True
513,0.0680737805537525,25,down,down,0.7851844000106212,0.9134636249022808,,experiment,cRDM,2.0,,,,1623.5581548000046,123,28,female,True
514,0.0680737805537525,25,down,down,0.7190466000174638,0.4877518105453002,,experiment,cRDM,2.0,,,,1625.0913225999975,123,28,female,True
515,0.0680737805537525,25,down,down,1.116794800007483,1.7257807784047865,,experiment,cRDM,2.0,,,,1627.7915881999943,123,28,female,True
516,0.0680737805537525,25,up,down,0.8801193999825045,0.4280563671082605,,experiment,cRDM,2.0,,,,1629.591175300011,123,28,female,True
517,0.0680737805537525,25,up,down,0.9794820999959484,0.4194655047926081,,experiment,cRDM,2.0,,,,1631.1578635000042,123,28,female,True
518,0.0680737805537525,25,up,down,0.8675267999933567,1.0983079313823154,,experiment,cRDM,2.0,,,,1633.5078227000197,123,28,female,True
519,0.0680737805537525,25,up,up,1.06764690001728,1.120713881055424,,experiment,cRDM,2.0,,,,1635.757693399995,123,28,female,True
520,0.0680737805537525,25,down,down,1.6255791000148747,0.9165528571225472,,experiment,cRDM,2.0,,,,1637.9907836000202,123,28,female,True
521,0.0680737805537525,25,up,down,2.305198799993377,1.7986293235157258,,experiment,cRDM,2.0,,,,1641.6741278000118,123,28,female,True
522,0.0680737805537525,25,up,up,1.470717699994566,1.9894256737366205,,experiment,cRDM,2.0,,,,1646.240655600006,123,28,female,True
523,0.0680737805537525,25,down,up,1.4347984000050928,0.4523925509471489,,experiment,cRDM,2.0,,,,1648.44055140001,123,28,female,True
524,0.0680737805537525,25,up,down,1.0325116000021808,0.8853218887177521,,experiment,cRDM,2.0,,,,1651.023828800011,123,28,female,True
525,0.0680737805537525,25,down,down,0.7562635999929626,0.6475708624685985,,experiment,cRDM,2.0,,,,1652.957080799999,123,28,female,True
526,0.0680737805537525,25,down,down,0.8913209000020288,0.5718170855557161,,experiment,cRDM,2.0,,,,1654.5570448999931,123,28,female,True
527,0.0680737805537525,25,up,up,0.9661617999954616,0.8825057314230864,,experiment,cRDM,2.0,,,,1656.5901823000167,123,28,female,True
528,0.0680737805537525,25,up,down,0.77689029998146,1.807905301663075,,experiment,cRDM,2.0,,,,1659.623473100015,123,28,female,True
529,0.0680737805537525,25,down,down,0.7019409000058658,0.9081209590401114,,experiment,cRDM,2.0,,,,1661.5734031000177,123,28,female,True
530,0.0680737805537525,25,up,down,0.6700247999979183,1.7431380006679869,,experiment,cRDM,2.0,,,,1664.2733071999974,123,28,female,True
531,0.0680737805537525,25,down,up,0.9595016000093892,1.3258508367061566,,experiment,cRDM,2.0,,,,1666.539903099998,123,28,female,True
532,0.0680737805537525,25,down,down,0.749945999996271,0.9368210001319228,,experiment,cRDM,2.0,,,,1668.7063978000078,123,28,female,True
533,0.0680737805537525,25,down,down,0.8335829999996349,0.9268072237855738,,experiment,cRDM,2.0,,,,1670.6397597000175,123,28,female,True
534,0.0680737805537525,25,up,down,0.6209503999853041,0.9258778427751876,,experiment,cRDM,2.0,,,,1672.6563663000125,123,28,female,True
535,0.0680737805537525,25,up,down,0.727788199990755,1.6468138482181025,,experiment,cRDM,2.0,,,,1675.1895468000148,123,28,female,True
536,0.0680737805537525,25,up,up,0.6688060000014957,0.6532737283543155,,experiment,cRDM,2.0,,,,1676.8395336999963,123,28,female,True
537,0.0680737805537525,25,down,up,0.8952278999786358,1.0915028316476911,,experiment,cRDM,2.0,,,,1678.8561125000124,123,28,female,True
538,0.0680737805537525,25,down,down,0.7516610000166111,1.6763625283181345,,experiment,cRDM,2.0,,,,1681.6726908000128,123,28,female,True
539,0.0680737805537525,25,up,up,0.7267261999950279,0.8854147320408878,,experiment,cRDM,2.0,,,,1683.5726122000196,123,28,female,True
540,0.0680737805537525,25,down,down,0.7537793999945279,1.5460260698467012,,experiment,cRDM,2.0,,,,1686.1225544000044,123,28,female,True
541,0.0680737805537525,25,up,down,0.6738773999968544,0.937217805499418,,experiment,cRDM,2.0,,,,1688.0724515000184,123,28,female,True
542,0.0680737805537525,25,up,up,0.7297255999874324,0.9948199209485638,,experiment,cRDM,2.0,,,,1690.005574200011,123,28,female,True
543,0.0680737805537525,25,up,down,1.1330988999980036,1.0831748557018284,,experiment,cRDM,2.0,,,,1692.0722327000112,123,28,female,True
544,0.0680737805537525,25,down,down,0.8227057000040077,0.3285433289990275,,experiment,cRDM,2.0,,,,1693.8056281000029,123,28,female,True
545,0.0680737805537525,25,down,down,0.6738542999955826,1.7198691237901724,,experiment,cRDM,2.0,,,,1696.6054921000032,123,28,female,True
546,0.0680737805537525,25,up,down,0.8093113000213634,1.9919023417144328,,experiment,cRDM,2.0,,,,1699.52202210002,123,28,female,True
547,0.0680737805537525,25,down,down,0.905130699975416,1.8633056217076085,,experiment,cRDM,2.0,,,,1702.4552217000164,123,28,female,True
548,0.0680737805537525,25,down,up,0.7344574999879114,0.5071782240801646,,experiment,cRDM,2.0,,,,1704.121875700017,123,28,female,True
549,0.0680737805537525,25,up,down,1.3902388000278734,1.6433356635675351,,experiment,cRDM,2.0,,,,1706.755090199993,123,28,female,True
550,0.0680737805537525,25,up,down,0.6463664000038989,1.2412026701156766,,experiment,cRDM,2.0,,,,1709.6549637000137,123,28,female,True
551,0.0680737805537525,25,down,down,0.5677773999923375,1.447778063812144,,experiment,cRDM,2.0,,,,1712.021562800015,123,28,female,True
552,0.0680737805537525,25,up,up,0.9501817999989726,0.9860650627432452,,experiment,cRDM,2.0,,,,1713.838164899993,123,28,female,True
553,0.0680737805537525,25,down,down,0.6559210999985225,1.296846440339907,,experiment,cRDM,2.0,,,,1716.3714091000147,123,28,female,True
554,0.0680737805537525,25,down,down,0.668660399998771,0.9597832406213036,,experiment,cRDM,2.0,,,,1718.2546581000206,123,28,female,True
555,0.0680737805537525,25,down,down,0.6886771999998018,1.204610177086863,,experiment,cRDM,2.0,,,,1720.4046147000045,123,28,female,True
556,0.0680737805537525,25,up,down,2.277828899997985,1.682096846696434,,experiment,cRDM,2.0,,,,1723.0545004000014,123,28,female,True
557,0.0680737805537525,25,up,down,0.8793503000051714,1.3896349429250212,,experiment,cRDM,2.0,,,,1726.971011400019,123,28,female,True
558,0.0680737805537525,25,down,down,0.7068735000211746,1.977479503362083,,experiment,cRDM,2.0,,,,1730.087458599999,123,28,female,True
559,0.0680737805537525,25,down,down,0.7998875999765005,1.886513624852343,,experiment,cRDM,2.0,,,,1732.9374408000149,123,28,female,True
560,0.0680737805537525,25,up,down,0.6932430999877397,0.544126831220876,,experiment,cRDM,2.0,,,,1734.5540653000062,123,28,female,True
561,0.0680737805537525,25,up,down,0.8246603999868967,1.7708009933581694,,experiment,cRDM,2.0,,,,1737.2706258000107,123,28,female,True
562,0.0680737805537525,25,up,up,0.8610919000057038,0.5747465490544252,,experiment,cRDM,2.0,,,,1738.9372386000175,123,28,female,True
563,0.0680737805537525,25,up,up,1.3575393999926746,1.8900014576996047,,experiment,cRDM,2.0,,,,1741.9537826000014,123,28,female,True
564,0.0680737805537525,25,up,down,0.946958699991228,0.8490576638193885,,experiment,cRDM,2.0,,,,1744.4203674000164,123,28,female,True
565,0.0680737805537525,25,down,up,0.7823754999844823,1.1110474737215696,,experiment,cRDM,2.0,,,,1746.7369500000204,123,28,female,True
566,0.0680737805537525,25,down,down,0.7365139000175986,0.8159384957453744,,experiment,cRDM,2.0,,,,1748.5868085999973,123,28,female,True
567,0.0680737805537525,25,up,up,1.3126315999834333,0.99491100275944,,experiment,cRDM,2.0,,,,1750.5866696000155,123,28,female,True
568,0.0680737805537525,25,down,up,1.130625699996017,0.5743141463247848,,experiment,cRDM,2.0,,,,1752.7367182000016,123,28,female,True
569,0.0680737805537525,25,down,up,1.3201195999863558,1.418383846093613,,experiment,cRDM,2.0,,,,1755.553279100015,123,28,female,True
570,0.0680737805537525,25,down,up,1.032067799998913,1.542826191597169,,experiment,cRDM,2.0,,,,1758.6863160000066,123,28,female,True
571,0.0680737805537525,25,up,up,1.209217700001318,1.8239569241992035,,experiment,cRDM,2.0,,,,1761.8031011999992,123,28,female,True
572,0.0680737805537525,25,down,down,0.8163679999997839,1.7227607966297147,,experiment,cRDM,2.0,,,,1765.0029636000108,123,28,female,True
573,0.0680737805537525,25,down,down,1.0504327999951784,1.1664729067627,,experiment,cRDM,2.0,,,,1767.2528730000197,123,28,female,True
574,0.0680737805537525,25,down,up,0.9875540999928488,1.5284744256250409,,experiment,cRDM,2.0,,,,1770.1027726000175,123,28,female,True
575,0.0680737805537525,25,up,up,0.9346871000016108,1.6995020861074432,,experiment,cRDM,2.0,,,,1773.052634199994,123,28,female,True
576,0.0680737805537525,25,up,up,0.9280564000073356,0.7766052622012314,,experiment,cRDM,2.0,,,,1775.0192685000077,123,28,female,True
577,0.0680737805537525,25,down,down,1.2836183000181336,0.9727012230884312,,experiment,cRDM,2.0,,,,1777.1856989999942,123,28,female,True
578,0.0680737805537525,25,up,down,2.008943699998781,1.959780070497576,,experiment,cRDM,2.0,,,,1780.7024026,123,28,female,True
579,0.0680737805537525,25,down,down,1.004408400011016,1.6926976834520129,,experiment,cRDM,2.0,,,,1784.6689158999943,123,28,female,True
580,0.0680737805537525,25,up,up,0.9958309000066948,1.30497094564253,,experiment,cRDM,2.0,,,,1787.235487600003,123,28,female,True
581,0.0680737805537525,25,up,down,0.9016339000081643,0.680024679215047,,experiment,cRDM,2.0,,,,1789.1687011000176,123,28,female,True
582,104.0,25,M,down,1.347269799996866,1.7944886445339396,,experiment,emotion,2.0,,,,1796.1850681000217,123,28,female,True
583,94.0,25,M,down,0.9342769000213592,0.6074584595916945,,experiment,emotion,2.0,,,,1798.4350466000033,123,28,female,True
584,101.0,25,F,down,0.9567167999921368,1.9626017451000943,,experiment,emotion,2.0,,,,1801.601618200017,123,28,female,True
585,104.0,25,F,down,0.6734858999843709,1.2146188792276216,,experiment,emotion,2.0,,,,1804.0348453000188,123,28,female,True
586,101.0,25,M,up,1.0739360000006857,1.7645830898705437,,experiment,emotion,2.0,,,,1806.751382600021,123,28,female,True
587,98.0,25,F,up,0.7684542000060901,0.8635893190633015,,experiment,emotion,2.0,,,,1808.9678512999965,123,28,female,True
588,94.0,25,M,down,0.7647384000010788,0.8248250908428545,,experiment,emotion,2.0,,,,1810.8345712000155,123,28,female,True
589,98.0,25,M,down,0.6494160000002012,0.7470766029410834,,experiment,emotion,2.0,,,,1812.6178505000132,123,28,female,True
590,104.0,25,F,up,1.345860300003551,1.051565996502415,,experiment,emotion,2.0,,,,1814.584452200012,123,28,female,True
591,98.0,25,F,down,0.6806829999841284,1.4706674042149654,,experiment,emotion,2.0,,,,1817.66763120002,123,28,female,True
592,101.0,25,F,down,0.6334580999973696,1.3114307742087636,,experiment,emotion,2.0,,,,1819.9509081,123,28,female,True
593,104.0,25,F,down,0.7431799000187311,1.833347471273799,,experiment,emotion,2.0,,,,1822.684137300006,123,28,female,True
594,101.0,25,F,down,0.6832718000223394,1.4283772905067316,,experiment,emotion,2.0,,,,1825.1340619999971,123,28,female,True
595,94.0,25,F,down,0.9097064999805298,0.8550001272695749,,experiment,emotion,2.0,,,,1826.9506058999975,123,28,female,True
596,98.0,25,M,down,0.8522510000038892,1.6202549118567966,,experiment,emotion,2.0,,,,1829.767063700012,123,28,female,True
597,94.0,25,M,down,1.0314041000092402,1.0706031036589112,,experiment,emotion,2.0,,,,1831.9669058000145,123,28,female,True
598,104.0,25,M,up,0.9019296000187752,1.3625982596487043,,experiment,emotion,2.0,,,,1834.6503641000015,123,28,female,True
599,94.0,25,M,down,0.9053982000041289,1.44220006381436,,experiment,emotion,2.0,,,,1837.2669176000052,123,28,female,True
600,101.0,25,F,down,1.718152099987492,1.0391611475241451,,experiment,emotion,2.0,,,,1839.5001926000116,123,28,female,True
601,101.0,25,M,down,1.3192746000131592,1.2605492357792625,,experiment,emotion,2.0,,,,1842.750062700012,123,28,female,True
602,98.0,25,M,down,0.9397080999915488,1.209496907903549,,experiment,emotion,2.0,,,,1845.566603400017,123,28,female,True
603,98.0,25,F,down,0.9177598000096624,1.0383688737786565,,experiment,emotion,2.0,,,,1847.8165533000135,123,28,female,True
604,94.0,25,M,down,0.6681232000119053,0.5854661462898711,,experiment,emotion,2.0,,,,1849.583187000011,123,28,female,True
605,104.0,25,F,down,0.9769634999975096,1.843811300033944,,experiment,emotion,2.0,,,,1852.366359000007,123,28,female,True
606,101.0,25,F,down,0.7537063999916427,1.4327684330517032,,experiment,emotion,2.0,,,,1855.049606100016,123,28,female,True
607,94.0,25,M,down,0.7367860000231303,0.7686277868696346,,experiment,emotion,2.0,,,,1856.8495309000136,123,28,female,True
608,104.0,25,M,down,0.659486399992602,1.4869868494713183,,experiment,emotion,2.0,,,,1859.3327665000104,123,28,female,True
609,104.0,25,F,down,0.7136814999976195,0.8580270266564662,,experiment,emotion,2.0,,,,1861.1327265000143,123,28,female,True
610,98.0,25,M,down,0.799994400003925,0.4299867125406083,,experiment,emotion,2.0,,,,1862.5493289000003,123,28,female,True
611,94.0,25,F,down,0.6354294000193477,1.5404639522011283,,experiment,emotion,2.0,,,,1865.165881499997,123,28,female,True
612,98.0,25,F,down,0.8551217000058386,0.7907949676198525,,experiment,emotion,2.0,,,,1866.849182900012,123,28,female,True
613,101.0,25,F,down,0.7635182000230998,0.3321392921261377,,experiment,emotion,2.0,,,,1868.3157874000024,123,28,female,True
614,94.0,25,M,down,0.6665958999947179,0.6166120787100273,,experiment,emotion,2.0,,,,1869.965712300007,123,28,female,True
615,104.0,25,M,down,0.8942870000028051,0.5747683757140449,,experiment,emotion,2.0,,,,1871.4990345000117,123,28,female,True
616,101.0,25,M,down,1.1053582999738865,0.870401635869025,,experiment,emotion,2.0,,,,1873.5489421999955,123,28,female,True
617,104.0,25,F,up,1.3014253999863286,0.5285784737195574,,experiment,emotion,2.0,,,,1875.4488723000104,123,28,female,True
618,94.0,25,F,down,0.7565736999968067,1.929428885459408,,experiment,emotion,2.0,,,,1878.9487323000208,123,28,female,True
619,101.0,25,M,down,0.8430208999780007,1.1024945934090924,,experiment,emotion,2.0,,,,1881.0653008999943,123,28,female,True
620,98.0,25,F,down,0.8387598000117578,1.79753592868094,,experiment,emotion,2.0,,,,1883.9985604000103,123,28,female,True
621,98.0,25,M,down,0.7527883999864571,1.8861251633911555,,experiment,emotion,2.0,,,,1886.9815232999968,123,28,female,True
622,101.0,25,M,down,0.7659763999981806,1.3427903797087823,,experiment,emotion,2.0,,,,1889.348333300004,123,28,female,True
623,104.0,25,M,down,0.7803528999793343,0.6727284016609694,,experiment,emotion,2.0,,,,1891.0649486000184,123,28,female,True
624,98.0,25,F,down,0.6504313999903388,0.9944698895455876,,experiment,emotion,2.0,,,,1893.114876000007,123,28,female,True
625,94.0,25,F,down,0.7278306999942288,0.5874047006928469,,experiment,emotion,2.0,,,,1894.631485299993,123,28,female,True
626,94.0,25,M,down,0.6908604000054765,0.3097205327522846,,experiment,emotion,2.0,,,,1895.9314241000104,123,28,female,True
627,98.0,25,F,down,0.8799783000140451,1.941873107337872,,experiment,emotion,2.0,,,,1898.831323799997,123,28,female,True
628,104.0,25,F,down,0.8937240999948699,0.3923380280203872,,experiment,emotion,2.0,,,,1900.3645777000056,123,28,female,True
629,101.0,25,M,down,0.8054416000086349,1.880556354069964,,experiment,emotion,2.0,,,,1903.3978737000143,123,28,female,True
630,94.0,25,M,down,0.7508080000116024,1.2397451030805446,,experiment,emotion,2.0,,,,1905.714423700003,123,28,female,True
631,104.0,25,F,down,1.137715000018943,1.9642116031828305,,experiment,emotion,2.0,,,,1908.6976059000008,123,28,female,True
632,101.0,25,M,down,0.6804963999893516,1.724497412366527,,experiment,emotion,2.0,,,,1911.830849299993,123,28,female,True
633,101.0,25,F,down,0.8542275999789126,1.9820334072857004,,experiment,emotion,2.0,,,,1914.7640688999963,123,28,female,True
634,94.0,25,F,down,0.7666650000028312,1.24576212129334,,experiment,emotion,2.0,,,,1917.1306350000089,123,28,female,True
635,98.0,25,F,down,0.625451100000646,1.9412393428285015,,experiment,emotion,2.0,,,,1920.113854399999,123,28,female,True
636,104.0,25,M,down,0.7337988000072073,0.9150081128082516,,experiment,emotion,2.0,,,,1921.9304714000027,123,28,female,True
637,98.0,25,M,down,0.8712325000087731,0.51780753635795,,experiment,emotion,2.0,,,,1923.4470683000109,123,28,female,True
638,98.0,25,F,down,0.7893091999867465,1.3630529807086806,,experiment,emotion,2.0,,,,1925.946974200022,123,28,female,True
639,98.0,25,F,down,0.519736100017326,1.7036123799742369,,experiment,emotion,2.0,,,,1928.713563199999,123,28,female,True
640,104.0,25,M,down,0.7980313999869395,1.8640894229931904,,experiment,emotion,2.0,,,,1931.3632648000205,123,28,female,True
641,101.0,25,M,down,0.9126331000006758,1.9012392481604417,,experiment,emotion,2.0,,,,1934.346690700011,123,28,female,True
642,94.0,25,M,down,0.7041872999980114,1.7352602167195663,,experiment,emotion,2.0,,,,1937.2630658000128,123,28,female,True
643,94.0,25,M,down,0.7654535000037868,0.8894367791210018,,experiment,emotion,2.0,,,,1939.1298532999936,123,28,female,True
644,101.0,25,M,down,0.9855402000248432,1.659391566517899,,experiment,emotion,2.0,,,,1941.8297337999973,123,28,female,True
645,104.0,25,F,down,0.8996768999786582,1.4453389678915491,,experiment,emotion,2.0,,,,1944.529640199995,123,28,female,True
646,104.0,25,F,down,0.7060999999812339,1.905718717909524,,experiment,emotion,2.0,,,,1947.5961911000195,123,28,female,True
647,94.0,25,M,down,0.7786996999930125,1.871517964756979,,experiment,emotion,2.0,,,,1950.4626334000204,123,28,female,True
648,104.0,25,F,down,0.8303025999921374,1.284780314161014,,experiment,emotion,2.0,,,,1952.7960098000185,123,28,female,True
649,98.0,25,F,down,0.8176851999887731,1.0521656250946885,,experiment,emotion,2.0,,,,1954.962585500005,123,28,female,True
650,101.0,25,F,down,1.0720901000022425,1.222412550947231,,experiment,emotion,2.0,,,,1957.27920390002,123,28,female,True
651,98.0,25,M,down,1.0072202000010293,0.4132928543922796,,experiment,emotion,2.0,,,,1959.029103800014,123,28,female,True
652,94.0,25,F,down,0.8189196000166703,0.8009020264473803,,experiment,emotion,2.0,,,,1961.112368300004,123,28,female,True
653,101.0,25,F,down,0.8180862999870442,0.9884051130827536,,experiment,emotion,2.0,,,,1963.1792083000184,123,28,female,True
654,98.0,25,F,down,0.7013749000034295,0.8093695585163758,,experiment,emotion,2.0,,,,1965.0789164000016,123,28,female,True
655,101.0,25,M,down,0.6068348000117112,1.8863725101830189,,experiment,emotion,2.0,,,,1967.9454424,123,28,female,True
656,94.0,25,M,down,0.7099471999972593,1.5784145723747338,,experiment,emotion,2.0,,,,1970.3953454,123,28,female,True
657,104.0,25,F,down,0.7428029000002425,0.4834162444870237,,experiment,emotion,2.0,,,,1971.8785205000024,123,28,female,True
658,101.0,25,M,up,0.893795299984049,1.6809621475523298,,experiment,emotion,2.0,,,,1974.5784793000205,123,28,female,True
659,104.0,25,F,down,0.838812300004065,0.724971712170114,,experiment,emotion,2.0,,,,1976.4784798000185,123,28,female,True
660,94.0,25,M,down,0.7129433999944013,1.3287244132624176,,experiment,emotion,2.0,,,,1978.9283594000156,123,28,female,True
661,98.0,25,M,down,0.7046722999948543,0.7842006546810512,,experiment,emotion,2.0,,,,1980.711657600012,123,28,female,True
662,0.0680737805537525,25,up,up,1.0941257000085898,0.9294791328834796,,experiment,cRDM,3.0,,,,2031.0931451000213,123,28,female,True
663,0.0680737805537525,25,up,up,1.0722691000264604,1.1827756656537176,,experiment,cRDM,3.0,,,,2033.64302790002,123,28,female,True
664,0.0680737805537525,25,down,up,0.9460247000097296,1.4580870832977328,,experiment,cRDM,3.0,,,,2036.4262581999935,123,28,female,True
665,0.0680737805537525,25,down,down,0.6244686999998521,1.464304573320352,,experiment,cRDM,3.0,,,,2039.09280850002,123,28,female,True
666,0.0680737805537525,25,up,up,0.7091286999930162,1.2945893212711002,,experiment,cRDM,3.0,,,,2041.2761289000048,123,28,female,True
667,0.0680737805537525,25,down,down,0.8456600000208709,1.690636763963409,,experiment,cRDM,3.0,,,,2043.94261670002,123,28,female,True
668,0.0680737805537525,25,up,up,0.7073712999990676,1.4277065473847692,,experiment,cRDM,3.0,,,,2046.4759116000205,123,28,female,True
669,0.0680737805537525,25,up,down,0.7524934999819379,1.484214281410302,,experiment,cRDM,3.0,,,,2048.925805600011,123,28,female,True
670,0.0680737805537525,25,down,down,0.7049202999914996,1.3522771401393725,,experiment,cRDM,3.0,,,,2051.292370500014,123,28,female,True
671,0.0680737805537525,25,down,down,0.7213942999951541,1.9964747828061369,,experiment,cRDM,3.0,,,,2054.258894900005,123,28,female,True
672,0.0680737805537525,25,down,down,0.8450949999969453,1.211419350047069,,experiment,cRDM,3.0,,,,2056.442176100012,123,28,female,True
673,0.0680737805537525,25,down,up,0.7281925000133924,0.8373302902856861,,experiment,cRDM,3.0,,,,2058.392112100002,123,28,female,True
674,0.0680737805537525,25,down,down,0.7388538999948651,0.3497518417550293,,experiment,cRDM,3.0,,,,2059.725388299994,123,28,female,True
675,0.0680737805537525,25,down,down,0.8053016999911051,1.162218810515891,,experiment,cRDM,3.0,,,,2061.891976600018,123,28,female,True
676,0.0680737805537525,25,up,down,0.7698611000087112,1.6986617606263406,,experiment,cRDM,3.0,,,,2064.6584143000077,123,28,female,True
677,0.0680737805537525,25,up,down,1.0271267000061926,1.1926527733687526,,experiment,cRDM,3.0,,,,2066.875158200012,123,28,female,True
678,0.0680737805537525,25,up,down,0.7239299000066239,1.7522796363602282,,experiment,cRDM,3.0,,,,2069.908353400009,123,28,female,True
679,0.0680737805537525,25,up,down,0.985639499995159,0.3042497729374023,,experiment,cRDM,3.0,,,,2071.1916321000026,123,28,female,True
680,0.0680737805537525,25,down,down,0.6567440000071656,1.7568474612207934,,experiment,cRDM,3.0,,,,2074.1915369000053,123,28,female,True
681,0.0680737805537525,25,up,up,0.9981924000021536,1.989957623160939,,experiment,cRDM,3.0,,,,2077.108082699997,123,28,female,True
682,0.0680737805537525,25,up,up,0.7129453000088688,1.7882938665088,,experiment,cRDM,3.0,,,,2080.1413343000168,123,28,female,True
683,0.0680737805537525,25,down,down,0.8493910999968648,1.3529626470291412,,experiment,cRDM,3.0,,,,2082.457888600009,123,28,female,True
684,0.0680737805537525,25,up,up,0.9601085000031162,1.3036487861419854,,experiment,cRDM,3.0,,,,2084.891192100011,123,28,female,True
685,0.0680737805537525,25,down,down,0.7185966999968514,1.98934093480747,,experiment,cRDM,3.0,,,,2088.1076974000025,123,28,female,True
686,0.0680737805537525,25,down,down,0.7353987999958917,1.8420342230226443,,experiment,cRDM,3.0,,,,2090.9409106000094,123,28,female,True
687,0.0680737805537525,25,up,down,0.6660869999905117,1.096952504726423,,experiment,cRDM,3.0,,,,2093.024179800006,123,28,female,True
688,0.0680737805537525,25,up,up,1.065967600006843,0.7971107474313848,,experiment,cRDM,3.0,,,,2094.757307699998,123,28,female,True
689,0.0680737805537525,25,down,down,0.6099270000122488,0.9679548353494764,,experiment,cRDM,3.0,,,,2097.057316100021,123,28,female,True
690,0.0680737805537525,25,up,down,0.7082861000089906,0.4345424936112894,,experiment,cRDM,3.0,,,,2098.373986199993,123,28,female,True
691,0.0680737805537525,25,down,down,0.6430590000236407,0.6133633885014802,,experiment,cRDM,3.0,,,,2099.957272,123,28,female,True
692,0.0680737805537525,25,down,down,0.687463200010825,1.9505747084272085,,experiment,cRDM,3.0,,,,2102.82380860002,123,28,female,True
693,0.0680737805537525,25,down,down,0.6313712999981362,1.4665529896629292,,experiment,cRDM,3.0,,,,2105.256901300017,123,28,female,True
694,0.0680737805537525,25,up,up,0.8429726000176743,1.3887851480916589,,experiment,cRDM,3.0,,,,2107.5402957000188,123,28,female,True
695,0.0680737805537525,25,up,up,0.9080758999916724,0.7454692727624623,,experiment,cRDM,3.0,,,,2109.3902543000004,123,28,female,True
696,0.0680737805537525,25,up,up,0.8437467999756336,0.3491687108888961,,experiment,cRDM,3.0,,,,2110.9235285000177,123,28,female,True
697,0.0680737805537525,25,down,down,0.6281448999943677,0.8416407788224016,,experiment,cRDM,3.0,,,,2112.8901250000054,123,28,female,True
698,0.0680737805537525,25,down,down,0.7405781999987084,0.3798624753089876,,experiment,cRDM,3.0,,,,2114.156703000015,123,28,female,True
699,0.0680737805537525,25,up,down,1.0189794999896549,1.369797294448004,,experiment,cRDM,3.0,,,,2116.523293700011,123,28,female,True
700,0.0680737805537525,25,down,down,0.9897356000146827,1.6102669350012426,,experiment,cRDM,3.0,,,,2119.4065338000078,123,28,female,True
701,0.0680737805537525,25,up,down,0.7523044999979902,1.6927962667949563,,experiment,cRDM,3.0,,,,2122.356992100016,123,28,female,True
702,0.0680737805537525,25,up,down,0.9252557999861892,0.8444185119453484,,experiment,cRDM,3.0,,,,2124.223012400005,123,28,female,True
703,0.0680737805537525,25,up,down,0.6543202000029851,0.8789225466491744,,experiment,cRDM,3.0,,,,2126.2729453000065,123,28,female,True
704,0.0680737805537525,25,down,down,0.5456009000190534,1.3795121954240457,,experiment,cRDM,3.0,,,,2128.572666799999,123,28,female,True
705,0.0680737805537525,25,down,down,0.6957741999940481,0.8119299043507668,,experiment,cRDM,3.0,,,,2130.1894959000056,123,28,female,True
706,0.0680737805537525,25,up,down,0.5532164000032935,1.9656039067856557,,experiment,cRDM,3.0,,,,2133.1060320000106,123,28,female,True
707,0.0680737805537525,25,down,down,0.5973069999890868,0.7956317287936178,,experiment,cRDM,3.0,,,,2134.7059520000184,123,28,female,True
708,0.0680737805537525,25,down,down,0.7430770000210032,0.9870516202706252,,experiment,cRDM,3.0,,,,2136.539229899994,123,28,female,True
709,0.0680737805537525,25,up,up,0.9397677000088152,0.382248536179568,,experiment,cRDM,3.0,,,,2137.9224957000115,123,28,female,True
710,0.0680737805537525,25,up,down,1.1301469999889378,0.95215112585415,,experiment,cRDM,3.0,,,,2140.0891166999936,123,28,female,True
711,0.0680737805537525,25,down,down,1.4592210999981037,0.8066342680868375,,experiment,cRDM,3.0,,,,2142.2890415000147,123,28,female,True
712,0.0680737805537525,25,up,down,0.9572836000006646,0.3762150100994266,,experiment,cRDM,3.0,,,,2144.3889834000147,123,28,female,True
713,0.0680737805537525,25,down,down,0.8063939000130631,1.0762821985655355,,experiment,cRDM,3.0,,,,2146.6888716999965,123,28,female,True
714,0.0680737805537525,25,down,up,0.8068135000066832,0.462907318563488,,experiment,cRDM,3.0,,,,2148.205480500008,123,28,female,True
715,0.0680737805537525,25,down,down,0.7628585000056773,0.7282823857067326,,experiment,cRDM,3.0,,,,2150.0054046000005,123,28,female,True
716,0.0680737805537525,25,up,down,0.815617399988696,1.760254158364505,,experiment,cRDM,3.0,,,,2152.7886548000097,123,28,female,True
717,0.0680737805537525,25,up,down,0.8466545999981463,0.5261483067225161,,experiment,cRDM,3.0,,,,2154.3885870999948,123,28,female,True
718,0.0680737805537525,25,down,down,0.8474295000196435,1.1325308684650903,,experiment,cRDM,3.0,,,,2156.621834699996,123,28,female,True
719,0.0680737805537525,25,down,down,0.7885149999929126,0.5765945855692554,,experiment,cRDM,3.0,,,,2158.321770800016,123,28,female,True
720,0.0680737805537525,25,up,down,0.7938772999914363,1.5169265856811691,,experiment,cRDM,3.0,,,,2160.888352800015,123,28,female,True
721,0.0680737805537525,25,up,up,0.8283129000046756,1.3723803294955903,,experiment,cRDM,3.0,,,,2163.3049075000163,123,28,female,True
722,0.0680737805537525,25,up,up,1.3584112000244204,0.8270828657898781,,experiment,cRDM,3.0,,,,2165.204836000019,123,28,female,True
723,0.0680737805537525,25,up,up,1.001948999997694,1.3411376272605755,,experiment,cRDM,3.0,,,,2168.17131830001,123,28,female,True
724,0.0680737805537525,25,up,up,0.8142678000149317,0.8138112483639541,,experiment,cRDM,3.0,,,,2170.237995500007,123,28,female,True
725,0.0680737805537525,25,down,up,0.9400550000136718,1.3178405941060465,,experiment,cRDM,3.0,,,,2172.621234899998,123,28,female,True
